Acc_x,Acc_y,Acc_z
0,0,0
0,0,0
0,0,0
0,0,0
0,0,0
0,0,0
0,0,0
0,0,0
0,0,0
0,0,0
0,0,0
0,0,0
0,0,0
0,0,0
0,0,0
0,0,0
0,0,0
0,0,0
0,0,0
0,0,0
0,0,0
0,0,0
0,0,0
0,0,0
0,0,0
0,0,0
0,0,0
0,0,0
0,0,0
0,0,0
0,0,0
0,0,0
0,0,0
0,0,0
0,0,0
0,0,0
0,0,0
0,0,0
0,0,0
0,0,0
0,0,0
0,0,0
0,0,0
0,0,0
0,0,0
0,0,0
0,0,0
0,0,0
0,0,0
0,0,0
0,0,0
0,0,0
0,0,0
0,0,0
0,0,0
0,0,0
0,0,0
0,0,0
0,0,0
0,0,0
0,0,0
0,0,0
0,0,0
0,0,0
0,0,0
0,0,0
0,0,0
0,0,0
0,0,0
0,0,0
0,0,0
0,0,0
0,0,0
0,0,0
0,0,0
0,0,0
0,0,0
0,0,0
0,0,0
0,0,0
0,0,0
0,0,0
0,0,0
0,0,0
0,0,0
0,0,0
0,0,0
0,0,0
0,0,0
0,0,0
0,0,0
0,0,0
0,0,0
0,0,0
0,0,0
0,0,0
0,0,0
0,0,0
0,0,0
0,0,0
0,0,0
0,0,0
0,0,0
0,0,0
0,0,0
0,0,0
0,0,0
0,0,0
0,0,0
0,0,0
0,0,0
0,0,0
0,0,0
0,0,0
0,0,0
0,0,0
0,0,0
0,0,0
0,0,0
0,0,0
0,0,0
0,0,0
0,0,0
0,0,0
0,0,0
0,0,0
0,0,0
0,0,0
0,0,0
0,0,0
0,0,0
0,0,0
0,0,0
0,0,0
0,0,0
0,0,0
0,0,0
0,0,0
0,0,0
0,0,0
0,0,0
0,0,0
0,0,0
0,0,0
0,0,0
0,0,0
0,0,0
0,0,0
0,0,0
0,0,0
0,0,0
0,0,0
0,0,0
0,0,0
0,0,0
0,0,0
0,0,0
0,0,0
0,0,0
0,0,0
0,0,0
0,0,0
0,0,0
0,0,0
0,0,0
0,0,0
0,0,0
0,0,0
0,0,0
0,0,0
0,0,0
0,0,0
0,0,0
0,0,0
0,0,0
0,0,0
0,0,0
0,0,0
0,0,0
0,0,0
0,0,0
0,0,0
0,0,0
0,0,0
0,0,0
0,0,0
0,0,0
0,0,0
0,0,0
0,0,0
0,0,0
0,0,0
0,0,0
0,0,0
0,0,0
0,0,0
0,0,0
0,0,0
0,0,0
0,0,0
0,0,0
0,0,0
0,0,0
0,0,0
0,0,0
0,0,0
0,0,0
0,0,0
0,0,0
0,0,0
0,0,0
0,0,0
0,0,0
0,0,0
0,0,0
0,0,0
0,0,0
0,0,0
0,0,0
0,0,0
0,0,0
0,0,0
0,0,0
0,0,0
0,0,0
0,0,0
0,0,0
0,0,0
0,0,0
0,0,0
0,0,0
0,0,0
0,0,0
0,0,0
0,0,0
0,0,0
0,0,0
0,0,0
0,0,0
0,0,0
0,0,0
0,0,0
0,0,0
0,0,0
0,0,0
0,0,0
0,0,0
0,0,0
0,0,0
0,0,0
0,0,0
0,0,0
0,0,0
0,0,0
0,0,0
0,0,0
0,0,0
0,0,0
0,0,0
0,0,0
0,0,0
0,0,0
0,0,0
0,0,0
0,0,0
0,0,0
0,0,0
0,0,0
0,0,0
0,0,0
0,0,0
0,0,0
0,0,0
0,0,0
0,0,0
0,0,0
0,0,0
0,0,0
0,0,0
0,0,0
0,0,0
0,0,0
0,0,0
0,0,0
0,0,0
0,0,0
0,0,0
0,0,0
0,0,0
0,0,0
0,0,0
0,0,0
0,0,0
0,0,0
0,0,0
0,0,0
0,0,0
0,0,0
0,0,0
0,0,0
0,0,0
0,0,0
0,0,0
0,0,0
0,0,0
0,0,0
0,0,0
0,0,0
0,0,0
0,0,0
0,0,0
0,0,0
0,0,0
0,0,0
0,0,0
0,0,0
0,0,0
0,0,0
0,0,0
0,0,0
0,0,0
0,0,0
0,0,0
0,0,0
0,0,0
0,0,0
0,0,0
0,0,0
0,0,0
0,0,0
0,0,0
0,0,0
0,0,0
0,0,0
0,0,0
0,0,0
0,0,0
0,0,0
0,0,0
0,0,0
0,0,0
0,0,0
0,0,0
0,0,0
0,0,0
0,0,0
0,0,0
0,0,0
0,0,0
0,0,0
0,0,0
0,0,0
0,0,0
0,0,0
0,0,0
0,0,0
0,0,0
0,0,0
0,0,0
0,0,0
0,0,0
0,0,0
0,0,0
0,0,0
0,0,0
0,0,0
0,0,0
0,0,0
0,0,0
0,0,0
0,0,0
0,0,0
0,0,0
0,0,0
0,0,0
0,0,0
0,0,0
0,0,0
0,0,0
0,0,0
0,0,0
0,0,0
0,0,0
0,0,0
0,0,0
0,0,0
0,0,0
0,0,0
0,0,0
0,0,0
0,0,0
0,0,0
0,0,0
0,0,0
0,0,0
0,0,0
0,0,0
0,0,0
0,0,0
0,0,0
0,0,0
0,0,0
0,0,0
0,0,0
0,0,0
0,0,0
0,0,0
0,0,0
0,0,0
0,0,0
0,0,0
0,0,0
0,0,0
0,0,0
0,0,0
0,0,0
0,0,0
0,0,0
0,0,0
0,0,0
0,0,0
0,0,0
0,0,0
0,0,0
0,0,0
0,0,0
0,0,0
0,0,0
0,0,0
0,0,0
0,0,0
0,0,0
0,0,0
0,0,0
0,0,0
0,0,0
0,0,0
0,0,0
0,0,0
0,0,0
0,0,0
0,0,0
0,0,0
0,0,0
0,0,0
0,0,0
0,0,0
0,0,0
0,0,0
0,0,0
0,0,0
0,0,0
0,0,0
0,0,0
0,0,0
0,0,0
0,0,0
0,0,0
0,0,0
0,0,0
0,0,0
0,0,0
0,0,0
0,0,0
0,0,0
0,0,0
0,0,0
0,0,0
0,0,0
0,0,0
0,0,0
0,0,0
0,0,0
0,0,0
0,0,0
0,0,0
0,0,0
0,0,0
0,0,0
0,0,0
0,0,0
0,0,0
0,0,0
0,0,0
0,0,0
0,0,0
0,0,0
0,0,0
0,0,0
0,0,0
0,0,0
0,0,0
0,0,0
0,0,0
0,0,0
0,0,0
0,0,0
0.21,-0.06,1.04
0.21,-0.06,1.04
0.19,-0.07,1.03
0.16,-0.11,1.02
0.17,-0.11,1.03
0.21,-0.1,1.04
0.22,-0.09,1.05
0.21,-0.11,1.05
0.2,-0.13,1
0.25,-0.07,0.96
0.24,-0.05,0.96
0.14,-0.14,0.98
0.13,-0.16,1
0.19,-0.08,1.03
0.2,-0.07,1.08
0.08,-0.05,1.3
0.22,-0.02,1.43
0.4,-0.12,1.2
0.19,-0.06,1.03
0.19,-0.02,0.95
0.25,-0.01,0.96
0.3,-0.01,1.01
0.31,0,1.02
0.29,0.02,1
0.25,0.04,0.96
0.25,0.06,0.94
0.28,0.05,0.93
0.29,0.06,0.93
0.29,0.08,0.94
0.32,0.08,0.92
0.35,0.08,0.87
0.33,0.12,0.88
0.29,0.14,0.97
0.28,0.1,0.99
0.32,0.06,0.97
0.36,0.08,0.93
0.42,0.11,0.9
0.44,0.12,0.9
0.44,0.11,0.9
0.44,0.1,0.9
0.45,0.09,0.93
0.43,0.07,0.93
0.41,0.08,0.94
0.41,0.06,0.93
0.4,0.09,0.93
0.39,0.09,0.93
0.38,0.06,0.92
0.38,0.06,0.92
0.38,0.06,0.92
0.39,0.05,0.92
0.39,0.05,0.92
0.41,0.04,0.92
0.42,0.04,0.92
0.42,0.04,0.92
0.28,0.13,0.89
0.37,0.08,0.91
0.52,-0.02,0.94
0.43,0.04,0.92
0.42,0.05,0.92
0.43,0.05,0.91
0.43,0.05,0.92
0.43,0.05,0.92
0.42,0.05,0.92
0.42,0.05,0.92
0.4,0.04,0.92
0.39,0.04,0.92
0.38,0.04,0.92
0.39,0.04,0.92
0.39,0.04,0.92
0.44,0.02,0.93
0.43,0.03,0.92
0.42,0.03,0.92
0.42,0.03,0.92
0.42,0.03,0.92
0.42,0.03,0.92
0.41,0.03,0.92
0.4,0.03,0.92
0.4,0.04,0.92
0.4,0.04,0.92
0.4,0.04,0.92
0.4,0.04,0.92
0.39,0.04,0.92
0.39,0.04,0.92
0.41,0.03,0.93
0.4,0.03,0.92
0.39,0.03,0.92
0.4,0.03,0.93
0.4,0.03,0.93
0.4,0.03,0.93
0.4,0.03,0.93
0.39,0.03,0.92
0.39,0.04,0.92
0.39,0.04,0.92
0.39,0.04,0.92
0.4,0.04,0.92
0.41,0.03,0.93
0.42,0.03,0.93
0.41,0.03,0.92
0.41,0.03,0.92
0.4,0.03,0.92
0.4,0.03,0.92
0.4,0.03,0.92
0.4,0.03,0.92
0.4,0.03,0.92
0.41,0.03,0.92
0.4,0.03,0.93
0.4,0.03,0.93
0.4,0.03,0.92
0.4,0.03,0.93
0.39,0.03,0.93
0.39,0.03,0.92
0.39,0.03,0.92
0.39,0.03,0.93
0.39,0.03,0.93
0.39,0.03,0.93
0.39,0.03,0.93
0.4,0.03,0.93
0.4,0.03,0.93
0.4,0.03,0.93
0.4,0.03,0.93
0.4,0.03,0.92
0.4,0.02,0.93
0.4,0.03,0.92
0.39,0.03,0.92
0.4,0.03,0.92
0.41,0.02,0.93
0.41,0.02,0.93
0.41,0.02,0.93
0.41,0.02,0.93
0.4,0.03,0.93
0.4,0.03,0.92
0.4,0.03,0.92
0.4,0.03,0.93
0.39,0.03,0.93
0.39,0.03,0.93
0.38,0.03,0.93
0.39,0.03,0.93
0.39,0.03,0.93
0.39,0.03,0.93
0.39,0.03,0.93
0.39,0.03,0.92
0.4,0.03,0.92
0.4,0.03,0.92
0.4,0.03,0.92
0.41,0.03,0.92
0.41,0.02,0.92
0.41,0.02,0.92
0.41,0.02,0.92
0.4,0.03,0.92
0.4,0.03,0.92
0.4,0.03,0.92
0.4,0.02,0.93
0.4,0.02,0.93
0.4,0.03,0.93
0.4,0.03,0.93
0.4,0.03,0.93
0.4,0.03,0.93
0.4,0.03,0.93
0.4,0.03,0.93
0.4,0.03,0.93
0.4,0.03,0.92
0.4,0.03,0.92
0.4,0.03,0.92
0.4,0.03,0.92
0.4,0.03,0.93
0.4,0.02,0.92
0.4,0.03,0.92
0.4,0.02,0.93
0.4,0.02,0.93
0.4,0.02,0.92
0.4,0.02,0.92
0.4,0.02,0.93
0.4,0.03,0.92
0.4,0.03,0.93
0.4,0.03,0.92
0.4,0.03,0.93
0.4,0.03,0.93
0.4,0.03,0.93
0.39,0.03,0.93
0.39,0.03,0.93
0.39,0.03,0.93
0.39,0.03,0.93
0.39,0.03,0.93
0.4,0.03,0.93
0.4,0.03,0.92
0.4,0.03,0.92
0.4,0.03,0.92
0.4,0.03,0.93
0.4,0.03,0.93
0.4,0.03,0.93
0.4,0.03,0.93
0.4,0.03,0.92
0.4,0.03,0.93
0.4,0.02,0.93
0.4,0.03,0.93
0.4,0.03,0.93
0.4,0.03,0.92
0.41,0.03,0.92
0.41,0.03,0.92
0.41,0.02,0.93
0.4,0.02,0.93
0.4,0.02,0.92
0.4,0.03,0.93
0.4,0.03,0.93
0.39,0.03,0.93
0.39,0.03,0.93
0.4,0.03,0.93
0.39,0.03,0.93
0.39,0.02,0.93
0.39,0.02,0.93
0.39,0.03,0.93
0.4,0.03,0.93
0.4,0.03,0.92
0.4,0.03,0.92
0.4,0.02,0.92
0.4,0.02,0.92
0.41,0.02,0.92
0.41,0.02,0.92
0.4,0.03,0.92
0.4,0.03,0.92
0.4,0.03,0.93
0.41,0.02,0.93
0.4,0.02,0.92
0.4,0.02,0.93
0.4,0.02,0.92
0.4,0.03,0.92
0.4,0.03,0.93
0.4,0.03,0.93
0.4,0.03,0.93
0.4,0.03,0.93
0.4,0.03,0.92
0.4,0.03,0.93
0.4,0.03,0.93
0.4,0.03,0.93
0.4,0.03,0.93
0.4,0.02,0.92
0.4,0.02,0.92
0.4,0.03,0.93
0.4,0.02,0.93
0.4,0.02,0.93
0.4,0.02,0.93
0.4,0.02,0.93
0.39,0.02,0.93
0.39,0.02,0.93
0.4,0.02,0.93
0.4,0.02,0.93
0.4,0.02,0.93
0.39,0.03,0.93
0.39,0.03,0.93
0.38,0.02,0.93
0.38,0.02,0.93
0.39,0.02,0.93
0.38,0.02,0.93
0.39,0.03,0.93
0.39,0.03,0.93
0.39,0.03,0.93
0.39,0.03,0.93
0.4,0.02,0.92
0.39,0.02,0.92
0.39,0.02,0.93
0.39,0.02,0.93
0.4,0.02,0.93
0.4,0.01,0.94
0.43,0.02,0.93
0.44,0.03,0.92
0.42,0.01,0.92
0.43,0.02,0.91
0.44,0.03,0.92
0.43,0.01,0.92
0.43,0.01,0.92
0.43,0.01,0.92
0.42,0,0.92
0.42,-0.01,0.92
0.43,0,0.91
0.44,0.02,0.91
0.44,0.02,0.91
0.45,0.01,0.9
0.47,0.01,0.89
0.48,-0.01,0.89
0.52,-0.01,0.9
0.55,-0.02,0.9
0.56,-0.04,0.89
0.57,-0.09,0.88
0.59,-0.11,0.87
0.61,-0.09,0.88
0.61,-0.1,0.86
0.61,-0.14,0.83
0.56,-0.19,0.87
0.57,-0.2,0.87
0.62,-0.16,0.86
0.6,-0.13,0.88
0.6,-0.1,0.88
0.62,-0.1,0.87
0.62,-0.13,0.85
0.63,-0.15,0.86
0.67,-0.18,0.87
0.67,-0.2,0.86
0.65,-0.22,0.85
0.63,-0.21,0.83
0.63,-0.2,0.81
0.64,-0.19,0.8
0.66,-0.2,0.8
0.69,-0.22,0.82
0.71,-0.24,0.83
0.72,-0.29,0.84
0.72,-0.31,0.84
0.72,-0.33,0.82
0.72,-0.34,0.8
0.72,-0.35,0.78
0.72,-0.36,0.75
0.73,-0.37,0.73
0.75,-0.38,0.73
0.77,-0.4,0.74
0.78,-0.43,0.75
0.78,-0.45,0.75
0.77,-0.47,0.74
0.77,-0.48,0.72
0.76,-0.48,0.7
0.74,-0.49,0.68
0.71,-0.5,0.65
0.71,-0.49,0.63
0.71,-0.5,0.63
0.69,-0.52,0.64
0.67,-0.54,0.63
0.65,-0.54,0.61
0.63,-0.53,0.6
0.61,-0.55,0.59
0.59,-0.56,0.58
0.58,-0.54,0.55
0.57,-0.52,0.52
0.57,-0.52,0.51
0.53,-0.53,0.51
0.54,-0.55,0.49
0.57,-0.56,0.46
0.59,-0.58,0.45
0.6,-0.59,0.44
0.61,-0.6,0.44
0.61,-0.63,0.44
0.63,-0.64,0.43
0.64,-0.65,0.43
0.65,-0.67,0.43
0.66,-0.68,0.42
0.66,-0.68,0.41
0.64,-0.69,0.4
0.62,-0.7,0.37
0.59,-0.7,0.36
0.56,-0.7,0.35
0.53,-0.69,0.33
0.51,-0.69,0.32
0.51,-0.67,0.31
0.49,-0.66,0.29
0.46,-0.65,0.28
0.45,-0.65,0.28
0.45,-0.66,0.29
0.43,-0.67,0.29
0.41,-0.69,0.29
0.41,-0.69,0.29
0.4,-0.71,0.29
0.4,-0.71,0.28
0.38,-0.73,0.28
0.37,-0.75,0.28
0.37,-0.78,0.29
0.38,-0.78,0.33
0.37,-0.76,0.34
0.35,-0.8,0.29
0.36,-0.85,0.27
0.39,-0.84,0.26
0.42,-0.82,0.28
0.45,-0.82,0.32
0.49,-0.84,0.33
0.46,-0.86,0.35
0.39,-0.87,0.36
0.32,-0.89,0.36
0.29,-0.91,0.34
0.32,-0.91,0.3
0.33,-0.9,0.26
0.33,-0.88,0.24
0.33,-0.86,0.24
0.34,-0.85,0.26
0.34,-0.84,0.27
0.33,-0.85,0.29
0.32,-0.85,0.3
0.34,-0.85,0.31
0.33,-0.87,0.31
0.33,-0.87,0.32
0.33,-0.87,0.33
0.32,-0.86,0.34
0.31,-0.87,0.33
0.3,-0.87,0.31
0.31,-0.87,0.31
0.31,-0.86,0.3
0.31,-0.82,0.3
0.31,-0.83,0.3
0.3,-0.86,0.32
0.29,-0.86,0.32
0.26,-0.84,0.31
0.26,-0.82,0.31
0.25,-0.81,0.31
0.24,-0.79,0.31
0.24,-0.78,0.3
0.23,-0.78,0.3
0.21,-0.79,0.31
0.2,-0.8,0.3
0.2,-0.81,0.27
0.2,-0.82,0.26
0.19,-0.83,0.26
0.19,-0.88,0.26
0.22,-0.94,0.27
0.24,-1.01,0.28
0.26,-1.12,0.29
0.26,-1.13,0.28
0.26,-1.14,0.26
0.26,-1.14,0.24
0.28,-1.15,0.22
0.31,-1.18,0.21
0.35,-1.22,0.21
0.39,-1.27,0.24
0.41,-1.32,0.29
0.41,-1.35,0.32
0.4,-1.35,0.35
0.39,-1.33,0.35
0.39,-1.3,0.34
0.39,-1.27,0.34
0.4,-1.23,0.34
0.41,-1.19,0.35
0.43,-1.17,0.38
0.47,-1.15,0.44
0.51,-1.14,0.49
0.52,-1.13,0.53
0.51,-1.15,0.54
0.5,-1.18,0.54
0.51,-1.15,0.54
0.54,-1.13,0.54
0.52,-1.11,0.54
0.47,-1.06,0.58
0.54,-1.01,0.52
0.52,-0.97,0.54
0.52,-0.96,0.52
0.52,-0.94,0.51
0.5,-0.93,0.51
0.49,-0.93,0.5
0.5,-0.92,0.49
0.51,-0.92,0.48
0.51,-0.94,0.48
0.5,-0.96,0.46
0.51,-0.98,0.42
0.53,-0.99,0.38
0.52,-1.01,0.35
0.51,-1,0.33
0.51,-1,0.29
0.48,-1,0.25
0.45,-1.01,0.22
0.45,-1.02,0.18
0.45,-0.99,0.15
0.42,-0.98,0.15
0.42,-0.97,0.13
0.42,-0.93,0.11
0.38,-0.9,0.1
0.39,-0.88,0.06
0.41,-0.85,0.02
0.39,-0.83,0.02
0.38,-0.81,0
0.35,-0.75,0
0.33,-0.73,-0.02
0.32,-0.72,-0.02
0.33,-0.7,-0.02
0.27,-0.69,0
0.24,-0.68,-0.01
0.27,-0.65,-0.05
0.27,-0.64,-0.04
0.28,-0.63,-0.05
0.29,-0.61,-0.05
0.26,-0.6,-0.04
0.23,-0.61,-0.04
0.25,-0.64,-0.03
0.26,-0.66,-0.03
0.26,-0.69,-0.02
0.26,-0.72,0
0.27,-0.75,0.02
0.27,-0.78,0.04
0.27,-0.8,0.06
0.26,-0.8,0.07
0.26,-0.8,0.07
0.25,-0.81,0.07
0.26,-0.82,0.07
0.27,-0.85,0.05
0.27,-0.89,0.04
0.29,-1.04,0.02
0.29,-1.12,0.02
0.29,-1.2,0.03
0.3,-1.26,0.06
0.3,-1.29,0.11
0.31,-1.29,0.17
0.32,-1.27,0.2
0.33,-1.23,0.21
0.35,-1.17,0.24
0.37,-1.13,0.25
0.39,-1.11,0.28
0.41,-1.12,0.31
0.42,-1.14,0.34
0.47,-1.16,0.35
0.5,-1.19,0.36
0.49,-1.23,0.34
0.45,-1.31,0.29
0.38,-1.4,0.3
0.35,-1.47,0.32
0.33,-1.55,0.31
0.3,-1.61,0.32
0.26,-1.63,0.35
0.27,-1.64,0.36
0.3,-1.61,0.35
0.32,-1.52,0.35
0.33,-1.43,0.34
0.35,-1.27,0.3
0.39,-1.19,0.28
0.38,-1.12,0.23
0.4,-1.07,0.21
0.4,-1.02,0.21
0.4,-0.99,0.2
0.42,-0.96,0.2
0.42,-0.96,0.19
0.43,-0.95,0.18
0.43,-0.95,0.17
0.41,-0.95,0.16
0.42,-0.95,0.15
0.45,-0.93,0.15
0.47,-0.92,0.14
0.49,-0.89,0.13
0.49,-0.86,0.13
0.49,-0.84,0.14
0.5,-0.82,0.14
0.52,-0.8,0.14
0.54,-0.79,0.15
0.55,-0.78,0.14
0.56,-0.77,0.14
0.56,-0.75,0.13
0.56,-0.74,0.13
0.56,-0.73,0.12
0.55,-0.74,0.12
0.54,-0.77,0.1
0.51,-0.82,0.1
0.5,-0.85,0.1
0.5,-0.88,0.1
0.51,-0.92,0.11
0.51,-0.95,0.11
0.51,-0.99,0.12
0.51,-1.02,0.11
0.53,-1.06,0.1
0.54,-1.12,0.09
0.54,-1.19,0.09
0.54,-1.24,0.1
0.53,-1.25,0.12
0.53,-1.23,0.14
0.53,-1.2,0.16
0.53,-1.19,0.16
0.54,-1.21,0.16
0.54,-1.26,0.15
0.55,-1.32,0.13
0.58,-1.39,0.12
0.6,-1.46,0.11
0.59,-1.54,0.09
0.56,-1.61,0.09
0.54,-1.66,0.11
0.53,-1.69,0.14
0.55,-1.68,0.17
0.56,-1.65,0.25
0.58,-1.57,0.25
0.59,-1.54,0.23
0.61,-1.52,0.21
0.63,-1.52,0.18
0.64,-1.55,0.16
0.63,-1.57,0.13
0.61,-1.57,0.11
0.58,-1.55,0.09
0.54,-1.51,0.07
0.51,-1.45,0.06
0.48,-1.37,0.08
0.47,-1.3,0.11
0.48,-1.24,0.14
0.5,-1.18,0.13
0.51,-1.13,0.09
0.5,-1.08,0.06
0.48,-1.04,0.05
0.47,-0.98,0.05
0.48,-0.95,0.02
0.47,-0.93,-0.01
0.44,-0.9,-0.01
0.4,-0.88,-0.01
0.38,-0.85,-0.03
0.37,-0.83,-0.04
0.36,-0.82,-0.04
0.35,-0.8,-0.02
0.33,-0.76,-0.02
0.32,-0.74,-0.03
0.31,-0.72,-0.03
0.29,-0.69,-0.04
0.27,-0.67,-0.05
0.26,-0.65,-0.06
0.24,-0.61,-0.05
0.22,-0.58,-0.05
0.21,-0.56,-0.04
0.22,-0.54,-0.03
0.21,-0.53,-0.02
0.2,-0.51,-0.01
0.2,-0.5,0
0.19,-0.5,0.01
0.19,-0.49,0
0.18,-0.49,0
0.2,-0.53,0.03
0.21,-0.56,0.05
0.21,-0.56,0.05
0.21,-0.6,0.05
0.21,-0.65,0.04
0.34,-0.91,0.07
0.38,-0.99,0.09
0.42,-1.06,0.11
0.44,-1.13,0.13
0.45,-1.18,0.13
0.47,-0.97,0.14
0.44,-1.12,0.16
0.39,-1.51,0.16
0.39,-1.53,0.16
0.41,-1.54,0.16
0.42,-1.54,0.16
0.44,-1.56,0.18
0.42,-1.62,0.19
0.42,-1.64,0.19
0.41,-1.63,0.2
0.4,-1.62,0.21
0.42,-1.65,0.21
0.43,-1.74,0.18
0.46,-1.79,0.21
0.48,-1.8,0.24
0.47,-1.8,0.24
0.47,-1.79,0.24
0.47,-1.75,0.24
0.49,-1.66,0.23
0.49,-1.6,0.22
0.51,-1.52,0.22
0.51,-1.45,0.21
0.49,-1.39,0.21
0.48,-1.32,0.21
0.5,-1.25,0.2
0.49,-1.2,0.21
0.47,-1.15,0.21
0.46,-1.09,0.2
0.47,-1.04,0.18
0.49,-0.99,0.17
0.51,-0.96,0.18
0.5,-0.94,0.19
0.48,-0.93,0.18
0.5,-0.9,0.17
0.54,-0.88,0.15
0.57,-0.86,0.13
0.57,-0.85,0.13
0.57,-0.85,0.13
0.58,-0.85,0.13
0.61,-0.84,0.12
0.63,-0.84,0.12
0.64,-0.85,0.12
0.64,-0.86,0.12
0.65,-0.86,0.12
0.67,-0.86,0.12
0.68,-0.87,0.12
0.68,-0.89,0.12
0.68,-0.91,0.12
0.68,-0.95,0.11
0.67,-0.99,0.11
0.66,-1.05,0.12
0.65,-1.14,0.14
0.65,-1.22,0.15
0.63,-1.3,0.15
0.58,-1.34,0.14
0.54,-1.33,0.12
0.5,-1.31,0.11
0.46,-1.3,0.1
0.45,-1.3,0.1
0.45,-1.3,0.1
0.44,-1.31,0.1
0.43,-1.31,0.09
0.43,-1.3,0.09
0.46,-1.29,0.09
0.49,-1.28,0.09
0.51,-1.28,0.09
0.52,-1.31,0.09
0.52,-1.35,0.09
0.52,-1.39,0.07
0.52,-1.42,0.04
0.51,-1.47,0.02
0.51,-1.5,0.01
0.51,-1.52,0
0.51,-1.54,-0.02
0.5,-1.55,-0.04
0.48,-1.57,-0.04
0.47,-1.59,-0.04
0.48,-1.61,-0.03
0.48,-1.63,-0.03
0.45,-1.65,-0.04
0.44,-1.65,-0.03
0.46,-1.62,-0.01
0.47,-1.6,-0.02
0.44,-1.57,-0.03
0.41,-1.52,-0.03
0.41,-1.44,-0.04
0.4,-1.36,-0.04
0.39,-1.3,-0.04
0.38,-1.23,-0.03
0.37,-1.17,-0.02
0.36,-1.11,-0.01
0.37,-1.04,0
0.39,-0.98,0.01
0.37,-0.94,0.01
0.34,-0.92,-0.01
0.32,-0.9,-0.02
0.29,-0.82,-0.04
0.27,-0.78,-0.05
0.27,-0.75,-0.04
0.27,-0.72,-0.02
0.28,-0.69,0
0.28,-0.67,0.01
0.28,-0.65,0.01
0.28,-0.63,0.01
0.28,-0.62,0.01
0.27,-0.61,0
0.25,-0.61,-0.01
0.23,-0.6,0.01
0.22,-0.59,0.02
0.21,-0.59,0.03
0.22,-0.58,0.04
0.22,-0.59,0.04
0.22,-0.6,0.05
0.22,-0.61,0.06
0.22,-0.64,0.06
0.22,-0.67,0.06
0.21,-0.69,0.07
0.2,-0.7,0.07
0.2,-0.72,0.07
0.2,-0.75,0.09
0.22,-0.81,0.09
0.25,-1.02,0.07
0.28,-1,0.1
0.31,-1,0.11
0.35,-1,0.1
0.36,-0.98,0.09
0.35,-0.92,0.07
0.35,-0.92,0.06
0.36,-0.94,0.06
0.38,-0.96,0.07
0.41,-0.98,0.09
0.44,-1,0.13
0.45,-1.06,0.13
0.44,-1.17,0.12
0.46,-1.26,0.12
0.47,-1.31,0.12
0.46,-1.39,0.11
0.43,-1.5,0.11
0.41,-1.61,0.12
0.39,-1.71,0.13
0.38,-1.77,0.16
0.34,-1.82,0.2
0.34,-1.85,0.2
0.36,-1.81,0.19
0.38,-1.73,0.18
0.38,-1.58,0.19
0.4,-1.5,0.22
0.46,-1.4,0.24
0.45,-1.35,0.22
0.43,-1.33,0.2
0.46,-1.3,0.2
0.48,-1.27,0.19
0.42,-1.27,0.17
0.37,-1.26,0.17
0.4,-1.22,0.16
0.42,-1.2,0.12
0.4,-1.19,0.12
0.39,-1.16,0.13
0.4,-1.12,0.13
0.41,-1.08,0.13
0.42,-1.05,0.14
0.42,-1.02,0.15
0.42,-1,0.13
0.43,-0.97,0.11
0.45,-0.93,0.09
0.45,-0.92,0.08
0.46,-0.92,0.08
0.47,-0.9,0.09
0.49,-0.88,0.09
0.51,-0.86,0.09
0.53,-0.83,0.08
0.55,-0.82,0.08
0.56,-0.83,0.08
0.56,-0.85,0.1
0.56,-0.85,0.11
0.56,-0.86,0.12
0.54,-0.85,0.12
0.53,-0.83,0.11
0.51,-0.82,0.11
0.5,-0.81,0.12
0.5,-0.81,0.12
0.52,-0.83,0.11
0.54,-0.88,0.11
0.55,-0.95,0.12
0.56,-0.99,0.14
0.57,-1.02,0.16
0.56,-1.02,0.18
0.56,-1.03,0.19
0.57,-1.06,0.19
0.57,-1.1,0.19
0.58,-1.15,0.2
0.57,-1.18,0.21
0.55,-1.2,0.24
0.51,-1.22,0.29
0.46,-1.23,0.37
0.4,-1.24,0.42
0.38,-1.19,0.52
0.37,-1.09,0.54
0.37,-1.06,0.56
0.38,-1.07,0.6
0.38,-1.11,0.63
0.35,-1.18,0.63
0.32,-1.24,0.62
0.29,-1.29,0.61
0.22,-1.31,0.62
0.16,-1.32,0.64
0.1,-1.3,0.65
0.07,-1.26,0.68
0.06,-1.2,0.67
0.05,-1.16,0.62
0.08,-1.11,0.6
0.17,-1.08,0.59
0.25,-1.11,0.59
0.28,-1.18,0.62
0.28,-1.24,0.59
0.26,-1.28,0.51
0.24,-1.3,0.43
0.27,-1.31,0.39
0.31,-1.31,0.41
0.36,-1.34,0.49
0.41,-1.39,0.61
0.43,-1.45,0.67
0.39,-1.5,0.42
0.34,-1.52,0.41
0.34,-1.57,0.48
0.34,-1.6,0.53
0.34,-1.54,0.65
0.34,-1.49,0.66
0.32,-1.47,0.53
0.26,-1.42,0.45
0.26,-1.4,0.35
0.24,-1.44,0.29
0.24,-1.36,0.25
0.36,-1.32,0.17
0.34,-1.31,0.16
0.3,-1.25,0.19
0.35,-1.17,0.2
0.37,-1.01,0.22
0.4,-0.94,0.26
0.37,-0.87,0.32
0.3,-0.77,0.4
0.33,-0.65,0.45
0.27,-0.65,0.43
0.16,-0.68,0.46
0.2,-0.62,0.5
0.26,-0.52,0.47
0.24,-0.46,0.48
0.19,-0.47,0.5
0.15,-0.42,0.45
0.25,-0.43,0.48
0.25,-0.44,0.53
0.21,-0.39,0.58
0.14,-0.3,0.63
0.14,-0.22,0.64
0.2,-0.14,0.65
0.27,-0.09,0.67
0.33,-0.12,0.66
0.28,-0.22,0.63
0.17,-0.22,0.61
0.11,-0.24,0.6
0.08,-0.28,0.58
0.04,-0.21,0.58
0.07,-0.15,0.66
0.17,-0.11,0.79
0.27,-0.06,0.85
0.27,-0.07,0.93
0.23,0.01,0.97
0.26,0.19,0.96
0.21,0.23,0.86
0.02,0.2,0.65
-0.23,0.18,0.46
-0.4,0.18,0.31
-0.35,0.23,0.25
-0.07,0.37,0.39
0.33,0.56,0.72
0.68,0.71,1.08
0.46,0.76,1.27
0.24,0.69,1.22
0.19,0.67,0.89
0.15,0.69,0.52
0.1,0.65,0.41
0.05,0.6,0.56
0,0.6,0.71
0.06,0.61,0.74
0.23,0.63,0.76
0.3,0.68,0.87
0.33,0.75,0.91
0.43,0.81,0.75
0.61,0.83,0.49
0.73,0.76,0.27
0.79,0.69,0.12
0.79,0.63,0.14
0.65,0.59,0.33
0.51,0.63,0.64
0.38,0.72,0.98
0.32,0.74,1.05
0.38,0.68,0.74
0.49,0.57,0.34
0.59,0.56,0.26
0.64,0.63,0.64
0.58,0.67,1.27
0.5,0.6,1.96
0.59,0.54,1.91
0.64,0.37,1.81
0.59,0.13,1.66
0.56,-0.02,1.43
0.64,-0.02,1.24
0.77,0.06,1.18
0.61,0.14,1.29
1.09,1.74,2.69
2.35,1.69,2.12
0.76,-0.96,0.84
-1.66,-1.3,1.67
-1.18,-0.31,1.42
0.1,0.47,0.99
0.47,0.88,0.66
0.12,0.69,0.14
0.09,0.54,0.31
1.41,0.61,1.09
1.41,0.61,1.09
1.57,0.42,0.54
0.96,0.06,0.44
0.65,-0.06,0.57
0.49,0,0.94
0.34,-0.18,1.2
0.11,-0.09,1.19
-0.08,0.08,1.14
-0.11,-0.04,1.09
0.08,-0.09,1.05
0.2,-0.12,1
0.23,-0.12,0.94
0.2,-0.06,0.91
0.22,0,0.93
0.42,0.02,0.94
0.7,0.01,0.88
0.81,0.01,0.82
0.73,0,0.83
0.58,-0.04,0.9
0.41,-0.04,0.95
0.25,-0.01,0.97
0.16,0,0.95
0.13,0.02,0.97
0.22,0.02,1
0.5,-0.07,0.9
0.5,-0.07,0.9
0.44,-0.03,0.91
0.38,-0.02,0.9
0.33,0.02,0.9
0.3,0.05,0.94
0.31,0.03,0.98
0.35,0.01,0.99
0.41,0,0.91
0.46,-0.03,0.9
0.41,0,0.9
0.37,0.01,0.92
0.33,-0.03,0.93
0.31,-0.04,0.94
0.32,-0.03,0.96
0.35,-0.03,0.96
0.37,-0.02,0.95
0.39,-0.02,0.94
0.4,-0.02,0.93
0.38,-0.01,0.92
0.37,-0.01,0.92
0.37,-0.01,0.93
0.38,0,0.93
0.41,-0.01,0.92
0.44,-0.01,0.92
0.42,-0.02,0.93
0.38,-0.04,0.93
0.34,-0.05,0.94
0.32,-0.04,0.95
0.3,-0.03,0.95
0.32,-0.01,0.95
0.35,0,0.96
0.37,0.01,0.96
0.43,0.01,0.93
0.46,0.01,0.91
0.46,0.01,0.9
0.48,0,0.89
0.47,0,0.91
0.4,0,0.94
0.34,-0.03,0.95
0.32,-0.04,0.95
0.3,-0.03,0.96
0.26,-0.02,0.97
0.29,-0.06,0.95
0.34,-0.05,0.94
0.32,-0.01,0.94
0.32,-0.09,0.95
0.35,-0.09,0.93
0.33,-0.06,0.94
0.32,-0.09,0.97
0.36,-0.09,0.97
0.36,-0.08,0.95
0.41,-0.1,0.92
0.45,-0.11,0.91
0.41,-0.09,0.91
0.42,-0.06,0.9
0.47,-0.05,0.91
0.43,-0.03,0.92
0.4,0.02,0.92
0.45,0.01,0.93
0.43,0,0.9
0.4,0.03,0.92
0.41,0.07,0.93
0.41,0.05,0.94
0.46,0.02,0.91
0.54,-0.02,0.89
0.54,0,0.87
0.55,-0.03,0.85
0.53,-0.07,0.86
0.48,-0.05,0.86
0.47,-0.03,0.87
0.45,-0.01,0.91
0.44,-0.03,0.92
0.47,-0.04,0.91
0.48,-0.03,0.89
0.49,-0.04,0.89
0.49,-0.03,0.88
0.5,-0.02,0.88
0.5,0,0.87
0.49,0,0.88
0.47,0,0.89
0.47,0,0.89
0.47,0,0.9
0.48,0,0.9
0.48,0,0.89
0.46,0.01,0.89
0.46,0.01,0.89
0.48,0.02,0.89
0.48,0.02,0.89
0.49,0.01,0.89
0.49,0.01,0.89
0.48,0.01,0.89
0.47,0.01,0.9
0.46,0.02,0.9
0.45,0.02,0.9
0.44,0.02,0.91
0.44,0.02,0.91
0.44,0.02,0.91
0.46,0.03,0.9
0.48,0.02,0.89
0.5,0.02,0.88
0.5,0.02,0.88
0.49,0.01,0.88
0.47,0.02,0.89
0.44,0.02,0.91
0.43,0.01,0.92
0.42,0.02,0.91
0.42,0.02,0.91
0.4,0.03,0.91
0.4,0.03,0.92
0.41,0.03,0.92
0.41,0.02,0.92
0.41,0.01,0.92
0.44,0.01,0.91
0.44,0.01,0.9
0.45,0.01,0.9
0.45,0.01,0.9
0.44,0.02,0.91
0.44,0.02,0.91
0.43,0.02,0.92
0.42,0.02,0.92
0.42,0.01,0.92
0.42,0.02,0.91
0.43,0.02,0.91
0.44,0.02,0.91
0.44,0.02,0.91
0.44,0.02,0.91
0.43,0.02,0.91
0.42,0.02,0.92
0.4,0.02,0.92
0.41,0.02,0.92
0.42,0.02,0.92
0.43,0.02,0.91
0.44,0.02,0.91
0.44,0.02,0.9
0.45,0.02,0.9
0.44,0.02,0.91
0.43,0.02,0.91
0.43,0.02,0.91
0.43,0.02,0.91
0.44,0.02,0.91
0.45,0.02,0.9
0.45,0.02,0.9
0.45,0.02,0.9
0.46,0.03,0.9
0.46,0.03,0.9
0.45,0.03,0.91
0.46,0.02,0.9
0.46,0.03,0.9
0.47,0.03,0.89
0.46,0.03,0.89
0.46,0.02,0.89
0.46,0.02,0.9
0.46,0.02,0.9
0.45,0.02,0.9
0.45,0.02,0.9
0.46,0.02,0.9
0.46,0.02,0.9
0.46,0.02,0.9
0.46,0.03,0.89
0.46,0.02,0.9
0.46,0.03,0.9
0.46,0.03,0.9
0.46,0.03,0.9
0.46,0.03,0.9
0.44,0.04,0.91
0.44,0.04,0.91
0.44,0.04,0.91
0.43,0.04,0.91
0.43,0.04,0.91
0.44,0.06,0.91
0.44,0.05,0.9
0.45,0.05,0.9
0.45,0.04,0.9
0.45,0.04,0.9
0.45,0.04,0.91
0.44,0.04,0.91
0.43,0.04,0.91
0.43,0.04,0.91
0.43,0.03,0.91
0.43,0.03,0.91
0.44,0.03,0.91
0.43,0.04,0.9
0.43,0.05,0.91
0.44,0.05,0.9
0.44,0.05,0.9
0.45,0.05,0.9
0.45,0.05,0.9
0.46,0.06,0.9
0.46,0.06,0.9
0.45,0.07,0.89
0.45,0.07,0.89
0.46,0.06,0.89
0.46,0.06,0.89
0.47,0.05,0.89
0.47,0.04,0.9
0.46,0.04,0.9
0.45,0.04,0.9
0.45,0.03,0.9
0.44,0.03,0.91
0.44,0.03,0.91
0.44,0.04,0.9
0.45,0.04,0.9
0.45,0.04,0.9
0.46,0.05,0.9
0.46,0.05,0.89
0.46,0.04,0.89
0.46,0.04,0.9
0.45,0.05,0.9
0.45,0.05,0.9
0.44,0.05,0.9
0.44,0.05,0.9
0.45,0.05,0.9
0.45,0.05,0.9
0.45,0.04,0.9
0.45,0.04,0.9
0.45,0.04,0.9
0.45,0.04,0.9
0.45,0.04,0.9
0.45,0.04,0.9
0.45,0.04,0.9
0.46,0.04,0.9
0.46,0.04,0.9
0.46,0.04,0.89
0.45,0.05,0.89
0.45,0.05,0.9
0.45,0.05,0.9
0.44,0.05,0.9
0.44,0.05,0.9
0.44,0.05,0.91
0.45,0.04,0.9
0.45,0.04,0.9
0.45,0.04,0.9
0.45,0.04,0.9
0.45,0.04,0.9
0.45,0.05,0.9
0.45,0.05,0.9
0.45,0.05,0.9
0.45,0.05,0.9
0.45,0.05,0.9
0.45,0.05,0.9
0.45,0.05,0.9
0.45,0.04,0.9
0.45,0.04,0.9
0.45,0.04,0.91
0.45,0.04,0.9
0.45,0.04,0.9
0.45,0.04,0.91
0.45,0.05,0.9
0.45,0.05,0.9
0.45,0.05,0.9
0.45,0.04,0.9
0.45,0.04,0.9
0.45,0.04,0.9
0.45,0.04,0.9
0.45,0.04,0.9
0.45,0.04,0.9
0.45,0.04,0.91
0.45,0.05,0.9
0.45,0.05,0.9
0.45,0.05,0.9
0.45,0.04,0.89
0.46,0.05,0.89
0.46,0.05,0.89
0.46,0.05,0.9
0.46,0.05,0.9
0.46,0.05,0.9
0.46,0.05,0.9
0.46,0.05,0.9
0.46,0.04,0.9
0.46,0.04,0.9
0.46,0.05,0.89
0.46,0.05,0.89
0.46,0.05,0.89
0.46,0.05,0.89
0.46,0.05,0.89
0.46,0.05,0.9
0.46,0.05,0.89
0.46,0.05,0.89
0.46,0.05,0.89
0.46,0.05,0.89
0.46,0.05,0.9
0.46,0.05,0.9
0.46,0.05,0.9
0.46,0.05,0.9
0.46,0.05,0.9
0.46,0.05,0.9
0.46,0.05,0.89
0.46,0.05,0.89
0.46,0.05,0.9
0.46,0.05,0.9
0.47,0.05,0.9
0.46,0.05,0.9
0.45,0.05,0.91
0.44,0.05,0.91
0.45,0.05,0.9
0.45,0.05,0.9
0.46,0.05,0.9
0.46,0.04,0.9
0.46,0.04,0.9
0.46,0.05,0.9
0.46,0.05,0.9
0.46,0.05,0.9
0.46,0.05,0.89
0.46,0.05,0.89
0.46,0.05,0.89
0.45,0.05,0.9
0.45,0.05,0.9
0.44,0.05,0.91
0.44,0.05,0.91
0.45,0.05,0.9
0.45,0.05,0.89
0.46,0.05,0.89
0.47,0.05,0.89
0.47,0.05,0.89
0.47,0.05,0.89
0.47,0.05,0.89
0.46,0.05,0.9
0.46,0.05,0.89
0.46,0.05,0.89
0.46,0.05,0.89
0.46,0.05,0.9
0.46,0.05,0.9
0.45,0.05,0.9
0.46,0.05,0.9
0.46,0.05,0.89
0.46,0.05,0.89
0.46,0.05,0.89
0.47,0.05,0.89
0.47,0.05,0.89
0.47,0.05,0.89
0.47,0.05,0.89
0.47,0.05,0.89
0.46,0.05,0.89
0.46,0.05,0.9
0.46,0.05,0.9
0.46,0.05,0.9
0.46,0.05,0.9
0.46,0.05,0.89
0.46,0.05,0.9
0.46,0.05,0.9
0.46,0.05,0.9
0.46,0.05,0.9
0.46,0.05,0.9
0.46,0.05,0.89
0.46,0.05,0.89
0.46,0.05,0.89
0.46,0.05,0.9
0.46,0.05,0.9
0.46,0.05,0.89
0.46,0.05,0.89
0.47,0.05,0.89
0.47,0.05,0.9
0.46,0.05,0.9
0.46,0.05,0.9
0.46,0.05,0.9
0.46,0.05,0.89
0.46,0.05,0.89
0.46,0.05,0.89
0.46,0.05,0.89
0.46,0.05,0.89
0.47,0.05,0.89
0.47,0.05,0.89
0.47,0.05,0.9
0.47,0.05,0.9
0.46,0.05,0.89
0.46,0.05,0.89
0.46,0.05,0.89
0.47,0.05,0.89
0.47,0.05,0.89
0.47,0.05,0.89
0.46,0.05,0.89
0.46,0.05,0.89
0.46,0.05,0.89
0.46,0.05,0.9
0.46,0.05,0.89
0.46,0.05,0.89
0.46,0.05,0.89
0.47,0.05,0.89
0.47,0.05,0.89
0.47,0.05,0.89
0.47,0.05,0.89
0.46,0.05,0.89
0.46,0.05,0.9
0.46,0.05,0.9
0.46,0.05,0.89
0.46,0.04,0.9
0.46,0.05,0.9
0.47,0.05,0.89
0.47,0.04,0.89
0.47,0.04,0.9
0.47,0.05,0.89
0.47,0.05,0.89
0.47,0.05,0.89
0.47,0.05,0.89
0.47,0.05,0.89
0.47,0.05,0.89
0.47,0.05,0.89
0.47,0.05,0.89
0.47,0.05,0.89
0.47,0.04,0.89
0.47,0.05,0.89
0.47,0.05,0.9
0.47,0.05,0.9
0.47,0.04,0.9
0.46,0.05,0.89
0.47,0.05,0.89
0.47,0.05,0.89
0.47,0.05,0.89
0.47,0.05,0.89
0.47,0.05,0.89
0.46,0.05,0.9
0.46,0.05,0.9
0.46,0.05,0.9
0.46,0.05,0.9
0.46,0.04,0.89
0.46,0.05,0.9
0.46,0.05,0.9
0.46,0.05,0.89
0.47,0.05,0.89
0.47,0.05,0.89
0.47,0.05,0.89
0.47,0.05,0.89
0.47,0.05,0.89
0.47,0.05,0.89
0.47,0.05,0.89
0.47,0.05,0.89
0.47,0.04,0.89
0.47,0.04,0.89
0.46,0.05,0.89
0.47,0.05,0.89
0.47,0.05,0.89
0.47,0.05,0.89
0.47,0.05,0.89
0.47,0.05,0.89
0.47,0.05,0.89
0.47,0.05,0.89
0.47,0.05,0.89
0.47,0.04,0.89
0.47,0.05,0.89
0.47,0.05,0.89
0.47,0.05,0.89
0.47,0.05,0.89
0.46,0.05,0.89
0.46,0.05,0.89
0.46,0.05,0.89
0.47,0.05,0.89
0.48,0.04,0.89
0.48,0.05,0.89
0.48,0.05,0.89
0.48,0.05,0.89
0.48,0.05,0.89
0.48,0.05,0.89
0.48,0.05,0.89
0.48,0.04,0.89
0.48,0.04,0.89
0.48,0.05,0.89
0.48,0.04,0.89
0.48,0.04,0.89
0.48,0.05,0.89
0.48,0.04,0.89
0.47,0.05,0.89
0.48,0.05,0.89
0.48,0.05,0.88
0.48,0.05,0.89
0.47,0.05,0.89
0.48,0.05,0.89
0.47,0.05,0.89
0.47,0.04,0.89
0.47,0.04,0.89
0.48,0.04,0.89
0.48,0.04,0.88
0.48,0.05,0.88
0.48,0.04,0.88
0.48,0.05,0.89
0.48,0.05,0.89
0.48,0.05,0.89
0.48,0.04,0.89
0.48,0.04,0.89
0.48,0.05,0.89
0.48,0.04,0.89
0.48,0.04,0.89
0.48,0.05,0.89
0.48,0.05,0.88
0.48,0.05,0.88
0.48,0.04,0.89
0.48,0.04,0.88
0.48,0.05,0.88
0.48,0.05,0.89
0.48,0.05,0.89
0.48,0.05,0.89
0.48,0.05,0.89
0.48,0.05,0.89
0.48,0.05,0.89
0.48,0.04,0.89
0.48,0.05,0.89
0.48,0.05,0.88
0.48,0.05,0.89
0.48,0.05,0.89
0.48,0.05,0.89
0.48,0.04,0.89
0.48,0.05,0.89
0.48,0.04,0.88
0.48,0.05,0.89
0.48,0.05,0.89
0.48,0.05,0.88
0.48,0.05,0.88
0.48,0.05,0.88
0.48,0.05,0.89
0.48,0.05,0.89
0.48,0.04,0.89
0.48,0.04,0.89
0.48,0.05,0.89
0.48,0.05,0.89
0.48,0.05,0.89
0.48,0.05,0.89
0.48,0.05,0.89
0.48,0.05,0.89
0.48,0.05,0.89
0.48,0.05,0.88
0.48,0.05,0.88
0.49,0.05,0.88
0.49,0.05,0.88
0.49,0.04,0.88
0.48,0.04,0.88
0.49,0.05,0.88
0.48,0.05,0.88
0.48,0.05,0.89
0.48,0.05,0.89
0.48,0.04,0.89
0.48,0.04,0.89
0.48,0.04,0.89
0.49,0.04,0.88
0.48,0.04,0.88
0.48,0.05,0.88
0.48,0.05,0.89
0.48,0.05,0.89
0.48,0.05,0.89
0.48,0.05,0.89
0.48,0.05,0.89
0.47,0.05,0.89
0.47,0.05,0.89
0.47,0.05,0.89
0.47,0.05,0.89
0.47,0.05,0.89
0.48,0.05,0.89
0.48,0.05,0.89
0.48,0.05,0.88
0.48,0.05,0.88
0.48,0.04,0.89
0.48,0.05,0.89
0.48,0.05,0.88
0.48,0.04,0.89
0.48,0.04,0.89
0.48,0.04,0.89
0.48,0.04,0.89
0.48,0.04,0.89
0.48,0.04,0.88
0.48,0.04,0.88
0.48,0.05,0.88
0.49,0.05,0.89
0.48,0.05,0.89
0.48,0.05,0.89
0.48,0.05,0.89
0.48,0.05,0.89
0.48,0.05,0.89
0.48,0.04,0.89
0.48,0.04,0.89
0.48,0.05,0.89
0.48,0.05,0.88
0.48,0.04,0.89
0.48,0.04,0.89
0.48,0.04,0.89
0.48,0.04,0.88
0.48,0.05,0.89
0.48,0.05,0.89
0.48,0.05,0.89
0.48,0.05,0.89
0.47,0.05,0.89
0.47,0.05,0.89
0.48,0.04,0.89
0.48,0.05,0.89
0.48,0.04,0.88
0.48,0.05,0.88
0.48,0.04,0.89
0.48,0.04,0.89
0.48,0.05,0.89
0.47,0.05,0.89
0.48,0.05,0.89
0.48,0.05,0.89
0.48,0.05,0.89
0.48,0.05,0.89
0.48,0.04,0.88
0.48,0.05,0.89
0.48,0.05,0.89
0.48,0.05,0.89
0.48,0.05,0.89
0.48,0.04,0.89
0.48,0.05,0.89
0.48,0.05,0.89
0.48,0.05,0.89
0.48,0.04,0.89
0.48,0.04,0.89
0.48,0.04,0.89
0.48,0.04,0.89
0.48,0.05,0.89
0.48,0.05,0.89
0.48,0.05,0.89
0.48,0.05,0.88
0.48,0.05,0.89
0.48,0.05,0.89
0.48,0.04,0.88
0.48,0.04,0.89
0.48,0.04,0.89
0.48,0.05,0.89
0.48,0.05,0.89
0.48,0.04,0.89
0.48,0.05,0.89
0.48,0.05,0.89
0.48,0.04,0.89
0.48,0.04,0.89
0.48,0.05,0.89
0.48,0.05,0.89
0.48,0.04,0.89
0.48,0.05,0.89
0.48,0.05,0.89
0.48,0.05,0.89
0.48,0.05,0.89
0.49,0.05,0.88
0.49,0.05,0.88
0.49,0.05,0.89
0.48,0.05,0.89
0.48,0.04,0.89
0.48,0.04,0.89
0.48,0.04,0.89
0.48,0.05,0.88
0.48,0.05,0.88
0.48,0.05,0.88
0.48,0.05,0.88
0.48,0.05,0.89
0.48,0.05,0.89
0.47,0.05,0.89
0.47,0.04,0.89
0.48,0.04,0.89
0.48,0.05,0.89
0.48,0.05,0.89
0.48,0.05,0.89
0.48,0.05,0.89
0.48,0.05,0.89
0.48,0.05,0.89
0.48,0.05,0.89
0.48,0.05,0.89
0.48,0.05,0.89
0.48,0.05,0.89
0.48,0.05,0.89
0.48,0.05,0.89
0.48,0.05,0.89
0.48,0.05,0.89
0.48,0.05,0.89
0.48,0.05,0.88
0.48,0.05,0.88
0.48,0.05,0.88
0.48,0.05,0.89
0.48,0.05,0.89
0.48,0.05,0.88
0.48,0.05,0.89
0.48,0.05,0.89
0.48,0.05,0.89
0.48,0.04,0.89
0.48,0.05,0.89
0.48,0.05,0.89
0.48,0.05,0.88
0.48,0.05,0.89
0.48,0.05,0.89
0.48,0.05,0.89
0.48,0.05,0.89
0.48,0.05,0.89
0.48,0.05,0.89
0.48,0.05,0.89
0.48,0.05,0.89
0.48,0.05,0.89
0.48,0.05,0.88
0.48,0.04,0.88
0.47,0.05,0.89
0.47,0.05,0.89
0.47,0.05,0.89
0.47,0.05,0.89
0.47,0.05,0.89
0.48,0.05,0.89
0.48,0.05,0.88
0.49,0.05,0.88
0.49,0.05,0.88
0.49,0.05,0.88
0.48,0.05,0.88
0.48,0.05,0.89
0.48,0.05,0.89
0.48,0.05,0.89
0.48,0.05,0.89
0.47,0.05,0.89
0.47,0.05,0.89
0.48,0.05,0.89
0.48,0.05,0.89
0.48,0.05,0.89
0.48,0.05,0.89
0.48,0.05,0.88
0.48,0.05,0.88
0.48,0.05,0.89
0.48,0.05,0.88
0.48,0.05,0.89
0.48,0.05,0.89
0.48,0.05,0.89
0.48,0.05,0.89
0.48,0.05,0.89
0.48,0.05,0.89
0.48,0.05,0.88
0.48,0.05,0.88
0.48,0.05,0.88
0.48,0.05,0.88
0.48,0.05,0.88
0.48,0.05,0.88
0.48,0.05,0.89
0.48,0.05,0.89
0.47,0.05,0.89
0.47,0.05,0.89
0.48,0.05,0.89
0.48,0.05,0.89
0.48,0.04,0.89
0.48,0.05,0.89
0.48,0.05,0.89
0.48,0.05,0.88
0.48,0.05,0.88
0.48,0.05,0.88
0.48,0.05,0.89
0.48,0.05,0.89
0.48,0.05,0.89
0.48,0.05,0.89
0.48,0.05,0.89
0.48,0.05,0.89
0.48,0.05,0.88
0.48,0.05,0.88
0.48,0.05,0.89
0.48,0.05,0.89
0.48,0.05,0.89
0.48,0.05,0.89
0.48,0.05,0.89
0.48,0.05,0.89
0.48,0.05,0.89
0.48,0.05,0.89
0.48,0.05,0.89
0.48,0.04,0.88
0.48,0.05,0.89
0.48,0.05,0.89
0.48,0.04,0.89
0.48,0.05,0.89
0.48,0.05,0.89
0.48,0.05,0.88
0.48,0.05,0.88
0.48,0.05,0.88
0.48,0.05,0.89
0.47,0.05,0.89
0.47,0.04,0.89
0.47,0.04,0.89
0.48,0.05,0.89
0.48,0.05,0.88
0.48,0.05,0.88
0.48,0.05,0.88
0.49,0.05,0.88
0.49,0.05,0.88
0.48,0.05,0.89
0.48,0.05,0.89
0.47,0.05,0.89
0.48,0.05,0.89
0.48,0.05,0.89
0.48,0.04,0.89
0.48,0.05,0.88
0.48,0.05,0.88
0.48,0.05,0.88
0.47,0.05,0.89
0.47,0.05,0.89
0.48,0.05,0.89
0.48,0.05,0.89
0.48,0.05,0.89
0.47,0.05,0.89
0.47,0.05,0.89
0.48,0.05,0.89
0.48,0.05,0.89
0.48,0.05,0.89
0.48,0.05,0.89
0.48,0.05,0.89
0.48,0.05,0.89
0.48,0.04,0.89
0.48,0.05,0.89
0.47,0.05,0.89
0.48,0.05,0.89
0.48,0.05,0.89
0.48,0.05,0.89
0.47,0.05,0.89
0.48,0.05,0.89
0.48,0.05,0.89
0.48,0.05,0.89
0.48,0.05,0.89
0.48,0.05,0.89
0.48,0.05,0.89
0.47,0.05,0.89
0.48,0.05,0.89
0.48,0.05,0.89
0.48,0.05,0.89
0.48,0.05,0.89
0.48,0.04,0.89
0.48,0.05,0.89
0.47,0.05,0.89
0.48,0.05,0.89
0.48,0.05,0.89
0.48,0.05,0.89
0.48,0.05,0.89
0.48,0.05,0.89
0.48,0.05,0.88
0.48,0.05,0.88
0.48,0.05,0.89
0.48,0.05,0.89
0.48,0.05,0.89
0.48,0.05,0.89
0.48,0.05,0.89
0.48,0.05,0.89
0.48,0.05,0.89
0.48,0.05,0.89
0.48,0.05,0.89
0.48,0.05,0.89
0.48,0.05,0.89
0.48,0.05,0.89
0.48,0.05,0.89
0.48,0.05,0.89
0.48,0.05,0.89
0.48,0.05,0.88
0.48,0.05,0.89
0.48,0.05,0.89
0.48,0.05,0.89
0.48,0.05,0.89
0.48,0.05,0.89
0.48,0.05,0.88
0.48,0.05,0.88
0.48,0.05,0.88
0.48,0.05,0.88
0.48,0.05,0.89
0.48,0.05,0.89
0.48,0.05,0.89
0.48,0.05,0.89
0.48,0.05,0.89
0.48,0.05,0.89
0.48,0.05,0.89
0.48,0.05,0.89
0.48,0.05,0.89
0.48,0.05,0.88
0.48,0.05,0.88
0.48,0.05,0.88
0.48,0.05,0.88
0.48,0.05,0.89
0.48,0.05,0.89
0.48,0.05,0.89
0.48,0.05,0.89
0.48,0.05,0.89
0.48,0.05,0.89
0.48,0.05,0.89
0.48,0.05,0.89
0.48,0.05,0.89
0.48,0.05,0.89
0.48,0.05,0.89
0.48,0.05,0.88
0.48,0.05,0.89
0.48,0.05,0.89
0.48,0.05,0.89
0.47,0.05,0.89
0.47,0.05,0.89
0.47,0.05,0.89
0.48,0.05,0.89
0.48,0.05,0.88
0.48,0.05,0.88
0.49,0.05,0.88
0.49,0.05,0.89
0.48,0.05,0.88
0.48,0.05,0.89
0.48,0.05,0.89
0.48,0.05,0.89
0.48,0.05,0.89
0.48,0.05,0.89
0.48,0.05,0.89
0.48,0.05,0.89
0.48,0.05,0.89
0.48,0.05,0.89
0.48,0.05,0.89
0.48,0.05,0.89
0.48,0.05,0.88
0.48,0.05,0.88
0.48,0.05,0.88
0.48,0.05,0.88
0.48,0.05,0.87
0.49,0.06,0.88
0.49,0.05,0.89
0.48,0.05,0.88
0.49,0.05,0.88
0.48,0.04,0.88
0.49,0.05,0.89
0.48,0.05,0.89
0.48,0.05,0.89
0.49,0.05,0.88
0.49,0.05,0.88
0.48,0.06,0.88
0.48,0.06,0.89
0.48,0.06,0.89
0.47,0.06,0.89
0.46,0.06,0.89
0.47,0.06,0.89
0.47,0.05,0.9
0.47,0.05,0.9
0.48,0.06,0.89
0.48,0.06,0.89
0.48,0.05,0.89
0.48,0.05,0.88
0.49,0.04,0.88
0.5,0.05,0.88
0.5,0.05,0.87
0.5,0.05,0.86
0.5,0.05,0.86
0.51,0.05,0.87
0.51,0.05,0.88
0.5,0.05,0.88
0.49,0.05,0.88
0.48,0.04,0.87
0.48,0.04,0.87
0.48,0.05,0.88
0.5,0.04,0.88
0.5,0.05,0.87
0.5,0.05,0.87
0.51,0.05,0.87
0.51,0.04,0.87
0.51,0.05,0.86
0.51,0.05,0.86
0.5,0.04,0.88
0.5,0.04,0.88
0.49,0.04,0.89
0.48,0.03,0.9
0.47,0.04,0.9
0.48,0.04,0.89
0.5,0.05,0.88
0.52,0.05,0.87
0.54,0.05,0.86
0.55,0.05,0.84
0.56,0.05,0.83
0.57,0.05,0.83
0.57,0.06,0.82
0.58,0.06,0.82
0.57,0.06,0.83
0.56,0.06,0.84
0.55,0.06,0.85
0.55,0.06,0.86
0.55,0.05,0.86
0.55,0.03,0.86
0.55,0.02,0.86
0.56,0.03,0.84
0.58,0.03,0.83
0.61,0.02,0.82
0.62,0.03,0.8
0.62,0.04,0.8
0.59,0.05,0.83
0.58,0.05,0.83
0.59,0.05,0.81
0.61,0.04,0.8
0.61,0.03,0.79
0.63,0.03,0.79
0.63,0.03,0.79
0.63,0.03,0.79
0.62,0.03,0.8
0.6,0.03,0.81
0.58,0.03,0.83
0.56,0.02,0.84
0.54,0.02,0.85
0.5,0.03,0.86
0.52,0.04,0.85
0.53,0.05,0.85
0.53,0.06,0.85
0.53,0.08,0.84
0.54,0.09,0.84
0.54,0.1,0.84
0.55,0.1,0.84
0.56,0.11,0.84
0.57,0.11,0.84
0.57,0.07,0.84
0.58,0.04,0.84
0.58,0.01,0.84
0.58,-0.01,0.84
0.6,0.01,0.83
0.63,0.08,0.84
0.65,0.11,0.84
0.7,0.12,0.84
0.68,0.1,0.86
0.58,0.05,0.9
0.5,0.02,0.94
0.44,-0.03,0.97
0.41,-0.03,1.01
0.44,0.03,1.05
0.52,0.08,1.04
0.52,-0.01,1.02
0.4,-0.07,0.96
0.46,-0.09,0.9
0.45,-0.12,0.89
0.45,-0.15,0.9
0.47,-0.19,0.88
0.47,-0.21,0.87
0.48,-0.23,0.86
0.49,-0.23,0.85
0.49,-0.24,0.84
0.48,-0.27,0.83
0.49,-0.29,0.85
0.49,-0.29,0.91
0.48,-0.29,0.97
0.45,-0.28,0.99
0.42,-0.27,0.99
0.43,-0.25,0.98
0.47,-0.24,0.95
0.5,-0.25,0.94
0.55,-0.24,0.97
0.57,-0.24,1.02
0.51,-0.21,1.04
0.48,-0.19,1.05
0.49,-0.19,1.05
0.5,-0.18,1.05
0.5,-0.18,1.07
0.5,-0.18,1.08
0.5,-0.18,1.07
0.48,-0.17,1.05
0.46,-0.17,1.03
0.43,-0.16,1.01
0.4,-0.15,0.99
0.38,-0.15,0.98
0.37,-0.15,0.95
0.38,-0.15,0.92
0.39,-0.16,0.9
0.41,-0.18,0.9
0.42,-0.2,0.89
0.43,-0.22,0.89
0.42,-0.24,0.9
0.42,-0.27,0.9
0.42,-0.29,0.89
0.41,-0.31,0.88
0.41,-0.34,0.88
0.43,-0.36,0.89
0.45,-0.38,0.91
0.47,-0.4,0.93
0.48,-0.41,0.94
0.48,-0.42,0.97
0.47,-0.44,0.99
0.46,-0.47,0.99
0.46,-0.49,0.97
0.45,-0.51,0.94
0.41,-0.57,0.93
0.38,-0.59,0.92
0.37,-0.61,0.92
0.37,-0.64,0.91
0.38,-0.66,0.89
0.39,-0.67,0.86
0.39,-0.69,0.87
0.36,-0.72,0.88
0.33,-0.75,0.89
0.3,-0.74,0.88
0.28,-0.73,0.85
0.27,-0.73,0.83
0.26,-0.74,0.82
0.24,-0.74,0.81
0.21,-0.74,0.8
0.2,-0.74,0.79
0.18,-0.74,0.76
0.17,-0.72,0.71
0.17,-0.7,0.68
0.15,-0.69,0.68
0.15,-0.68,0.69
0.15,-0.67,0.71
0.14,-0.66,0.72
0.12,-0.63,0.71
0.11,-0.59,0.69
0.11,-0.55,0.68
0.08,-0.52,0.7
0.07,-0.54,0.73
0.06,-0.55,0.78
0.07,-0.54,0.84
0.07,-0.52,0.9
0.04,-0.6,0.91
0.02,-0.67,0.86
-0.02,-0.71,0.78
-0.07,-0.71,0.71
-0.09,-0.68,0.68
-0.08,-0.62,0.67
-0.01,-0.21,0.49
-0.01,-0.24,0.5
-0.01,-0.24,0.5
-0.04,-0.29,0.5
-0.06,-0.34,0.56
-0.05,-0.44,0.58
-0.03,-0.48,0.55
-0.02,-0.51,0.52
-0.02,-0.55,0.51
-0.04,-0.61,0.53
-0.07,-0.66,0.56
-0.08,-0.7,0.58
-0.02,-0.8,0.62
-0.03,-0.82,0.59
-0.04,-0.85,0.58
-0.04,-0.87,0.6
-0.04,-0.9,0.62
-0.04,-0.94,0.67
-0.13,-0.92,0.73
-0.13,-0.91,0.71
-0.13,-0.91,0.71
-0.12,-0.87,0.7
-0.1,-0.86,0.72
-0.09,-0.86,0.77
-0.1,-0.87,0.83
-0.11,-0.91,0.85
-0.1,-0.91,0.86
-0.11,-0.91,0.87
-0.1,-0.9,0.87
-0.07,-0.91,0.87
-0.03,-0.95,0.89
0,-1,0.95
0,-1.07,1.04
0,-1.15,1.14
0,-1.23,1.21
-0.03,-1.3,1.24
-0.07,-1.34,1.24
-0.08,-1.37,1.22
-0.09,-1.36,1.19
-0.09,-1.33,1.15
-0.06,-1.28,1.1
-0.02,-1.21,1.06
0.01,-1.12,1.01
0.02,-1.05,0.92
0.03,-0.99,0.82
0.06,-0.96,0.7
0.12,-0.93,0.59
0.18,-0.89,0.52
0.27,-0.87,0.55
0.29,-0.92,0.59
0.29,-0.92,0.59
0.26,-0.99,0.72
0.27,-0.97,0.73
0.33,-0.92,0.65
0.38,-0.84,0.38
0.38,-0.84,0.38
0.34,-0.8,0.31
0.28,-0.79,0.32
0.26,-0.79,0.38
0.27,-0.79,0.42
0.27,-0.8,0.46
0.26,-0.8,0.49
0.25,-0.78,0.49
0.25,-0.76,0.46
0.24,-0.74,0.41
0.24,-0.73,0.37
0.25,-0.73,0.33
0.27,-0.75,0.29
0.28,-0.74,0.29
0.27,-0.74,0.31
0.25,-0.74,0.33
0.22,-0.71,0.34
0.22,-0.65,0.3
0.23,-0.65,0.29
0.23,-0.65,0.29
0.22,-0.67,0.29
0.2,-0.69,0.32
0.2,-0.7,0.32
0.18,-0.73,0.31
0.18,-0.76,0.28
0.18,-0.76,0.26
0.17,-0.75,0.25
0.15,-0.76,0.26
0.15,-0.79,0.27
0.15,-0.81,0.28
0.14,-0.83,0.29
0.14,-0.87,0.31
0.13,-0.92,0.33
0.11,-0.9,0.33
0.1,-0.85,0.3
0.11,-0.85,0.25
0.12,-0.85,0.2
0.13,-0.83,0.17
0.13,-0.84,0.16
0.14,-0.86,0.16
0.15,-0.87,0.17
0.16,-0.88,0.18
0.16,-0.9,0.2
0.17,-0.93,0.21
0.18,-0.94,0.22
0.18,-0.94,0.21
0.2,-0.92,0.2
0.21,-0.91,0.18
0.22,-0.91,0.18
0.22,-0.93,0.19
0.22,-0.96,0.21
0.22,-0.97,0.23
0.22,-0.99,0.25
0.24,-0.99,0.25
0.26,-0.98,0.24
0.27,-0.96,0.22
0.27,-0.95,0.21
0.27,-0.93,0.18
0.28,-0.91,0.16
0.29,-0.9,0.15
0.3,-0.9,0.16
0.31,-0.91,0.16
0.32,-0.93,0.16
0.31,-0.94,0.17
0.3,-0.94,0.18
0.3,-0.93,0.18
0.32,-0.93,0.18
0.31,-0.94,0.18
0.3,-0.94,0.17
0.3,-0.93,0.16
0.3,-0.93,0.16
0.29,-0.92,0.16
0.29,-0.93,0.15
0.29,-0.94,0.15
0.29,-0.97,0.15
0.29,-0.98,0.15
0.29,-0.99,0.14
0.29,-1,0.13
0.28,-1,0.13
0.27,-1,0.11
0.27,-0.99,0.08
0.27,-0.97,0.06
0.26,-0.95,0.04
0.26,-0.95,0.02
0.26,-0.96,0
0.26,-0.96,0
0.24,-0.96,0.02
0.21,-0.96,0.02
0.2,-0.92,0.03
0.2,-0.9,0.04
0.19,-0.91,0.06
0.17,-0.92,0.05
0.18,-0.87,0.03
0.16,-0.87,0.07
0.15,-0.87,0.13
0.23,-0.88,0.14
0.24,-0.97,0.18
0.2,-1.03,0.24
0.2,-1.04,0.29
0.23,-1.06,0.32
0.23,-1.11,0.28
0.15,-1.18,0.25
0.11,-1.18,0.21
0.1,-1.17,0.19
0.11,-1.17,0.16
0.13,-1.17,0.16
0.13,-1.15,0.18
0.1,-1.12,0.22
0.05,-1.1,0.27
0.02,-1.06,0.29
0,-1.01,0.32
-0.04,-0.96,0.34
-0.04,-0.9,0.33
-0.06,-0.84,0.31
-0.11,-0.79,0.32
-0.11,-0.75,0.32
-0.08,-0.74,0.3
-0.06,-0.74,0.28
-0.06,-0.74,0.28
-0.06,-0.73,0.28
-0.05,-0.72,0.27
-0.05,-0.72,0.27
-0.05,-0.71,0.27
-0.03,-0.71,0.26
-0.01,-0.71,0.26
0.01,-0.71,0.26
0.04,-0.72,0.26
0.09,-0.76,0.27
0.1,-0.79,0.28
0.11,-0.83,0.28
0.12,-0.85,0.28
0.14,-0.87,0.26
0.16,-0.88,0.25
0.18,-0.88,0.25
0.2,-0.88,0.26
0.22,-0.88,0.26
0.24,-0.87,0.26
0.26,-0.87,0.25
0.28,-0.86,0.25
0.31,-0.86,0.25
0.33,-0.86,0.26
0.35,-0.87,0.26
0.36,-0.89,0.26
0.38,-0.9,0.26
0.39,-0.93,0.24
0.4,-0.95,0.23
0.4,-0.97,0.22
0.42,-0.99,0.21
0.44,-1.02,0.2
0.46,-1.04,0.21
0.49,-1.05,0.21
0.48,-1.07,0.23
0.49,-1.09,0.22
0.55,-1.23,0.21
0.58,-1.34,0.21
0.58,-1.46,0.24
0.6,-1.54,0.23
0.61,-1.56,0.21
0.57,-1.5,0.2
0.54,-1.4,0.17
0.54,-1.32,0.14
0.54,-1.26,0.11
0.54,-1.24,0.1
0.52,-1.23,0.09
0.51,-1.25,0.08
0.52,-1.31,0.09
0.52,-1.37,0.09
0.51,-1.4,0.09
0.49,-1.42,0.1
0.48,-1.41,0.09
0.45,-1.39,0.09
0.4,-1.34,0.1
0.39,-1.29,0.09
0.37,-1.25,0.08
0.34,-1.2,0.07
0.31,-1.16,0.07
0.3,-1.12,0.08
0.29,-1.09,0.09
0.28,-1.05,0.08
0.28,-1.01,0.08
0.28,-0.99,0.08
0.28,-0.97,0.08
0.27,-0.96,0.07
0.26,-0.95,0.07
0.26,-0.95,0.07
0.25,-0.94,0.07
0.24,-0.94,0.08
0.25,-0.93,0.08
0.25,-0.92,0.09
0.24,-0.91,0.09
0.23,-0.89,0.09
0.22,-0.88,0.1
0.21,-0.85,0.1
0.19,-0.82,0.1
0.18,-0.79,0.09
0.17,-0.77,0.08
0.16,-0.75,0.09
0.15,-0.72,0.09
0.15,-0.7,0.1
0.16,-0.67,0.11
0.16,-0.66,0.1
0.17,-0.66,0.1
0.17,-0.66,0.11
0.17,-0.67,0.11
0.17,-0.69,0.12
0.18,-0.77,0.11
0.17,-0.8,0.11
0.17,-0.82,0.11
0.18,-0.84,0.13
0.2,-0.87,0.16
0.21,-0.92,0.18
0.24,-0.91,0.19
0.3,-0.96,0.16
0.26,-1.2,0.11
0.23,-1.38,0.11
0.25,-1.37,0.11
0.28,-1.32,0.09
0.29,-1.35,0.09
0.24,-1.39,0.12
0.23,-1.3,0.14
0.29,-1.18,0.17
0.35,-1.14,0.19
0.32,-1.15,0.21
0.36,-1.15,0.21
0.4,-1.16,0.22
0.36,-1.23,0.26
0.38,-1.3,0.25
0.38,-1.34,0.24
0.36,-1.36,0.23
0.35,-1.41,0.19
0.32,-1.45,0.17
0.31,-1.44,0.13
0.3,-1.41,0.15
0.28,-1.34,0.16
0.27,-1.25,0.16
0.28,-1.15,0.16
0.3,-1.07,0.15
0.32,-1,0.15
0.34,-0.96,0.14
0.36,-0.94,0.13
0.37,-0.94,0.13
0.37,-0.92,0.11
0.38,-0.89,0.1
0.39,-0.86,0.08
0.39,-0.84,0.07
0.38,-0.83,0.06
0.38,-0.83,0.06
0.39,-0.83,0.06
0.4,-0.83,0.06
0.4,-0.82,0.07
0.39,-0.82,0.08
0.4,-0.82,0.1
0.4,-0.82,0.12
0.41,-0.82,0.12
0.41,-0.84,0.12
0.41,-0.85,0.12
0.43,-0.87,0.12
0.44,-0.9,0.14
0.46,-0.93,0.15
0.48,-0.95,0.16
0.49,-0.98,0.16
0.5,-1,0.16
0.5,-1.02,0.15
0.51,-1.05,0.14
0.51,-1.07,0.15
0.51,-1.08,0.16
0.51,-1.08,0.17
0.51,-1.08,0.18
0.51,-1.12,0.18
0.51,-1.2,0.19
0.52,-1.28,0.19
0.52,-1.34,0.19
0.54,-1.36,0.21
0.51,-1.34,0.23
0.47,-1.3,0.24
0.43,-1.25,0.23
0.37,-1.18,0.22
0.34,-1.11,0.21
0.32,-1.09,0.2
0.3,-1.1,0.2
0.28,-1.12,0.22
0.25,-1.16,0.22
0.21,-1.22,0.21
0.17,-1.39,0.25
0.14,-1.48,0.25
0.11,-1.53,0.25
0.11,-1.54,0.25
0.09,-1.5,0.27
0.09,-1.4,0.28
0.11,-1.32,0.26
0.11,-1.28,0.26
0.12,-1.21,0.25
0.13,-1.16,0.23
0.13,-1.11,0.19
0.15,-1.08,0.17
0.18,-1.05,0.14
0.23,-1.01,0.13
0.26,-0.99,0.14
0.28,-0.96,0.15
0.26,-0.92,0.15
0.26,-0.86,0.15
0.27,-0.8,0.14
0.27,-0.78,0.13
0.27,-0.74,0.12
0.3,-0.73,0.12
0.35,-0.72,0.14
0.4,-0.7,0.14
0.44,-0.69,0.12
0.47,-0.68,0.12
0.48,-0.68,0.14
0.55,-0.66,0.14
0.61,-0.65,0.15
0.65,-0.63,0.16
0.64,-0.61,0.16
0.64,-0.57,0.16
0.68,-0.55,0.15
0.71,-0.53,0.15
0.73,-0.5,0.15
0.74,-0.48,0.16
0.75,-0.48,0.17
0.77,-0.46,0.18
0.8,-0.43,0.19
0.82,-0.42,0.21
0.83,-0.4,0.22
0.84,-0.39,0.23
0.85,-0.37,0.26
0.88,-0.34,0.27
0.87,-0.33,0.29
0.81,-0.33,0.31
0.79,-0.31,0.34
0.8,-0.29,0.36
0.78,-0.27,0.36
0.78,-0.24,0.38
0.78,-0.2,0.39
0.79,-0.18,0.4
0.8,-0.18,0.41
0.81,-0.16,0.43
0.81,-0.14,0.45
0.81,-0.12,0.45
0.82,-0.11,0.46
0.84,-0.11,0.48
0.84,-0.12,0.5
0.83,-0.13,0.51
0.82,-0.14,0.51
0.82,-0.1,0.51
0.77,-0.09,0.53
0.69,-0.14,0.57
0.67,-0.13,0.6
0.67,-0.09,0.61
0.67,-0.06,0.62
0.67,-0.05,0.67
0.71,-0.02,0.7
0.73,0,0.71
0.74,-0.01,0.72
0.77,0,0.74
0.79,-0.02,0.77
0.78,-0.04,0.79
0.77,-0.05,0.83
0.78,-0.04,0.85
0.78,-0.03,0.85
0.78,-0.02,0.86
0.76,-0.02,0.83
0.72,-0.01,0.81
0.71,-0.01,0.81
0.7,0,0.83
0.66,0,0.85
0.62,0,0.89
0.6,0.03,0.92
0.57,0.06,0.92
0.56,0.08,0.91
0.57,0.09,0.89
0.58,0.1,0.85
0.57,0.12,0.82
0.55,0.14,0.84
0.47,0.13,0.87
0.38,0.12,0.9
0.33,0.15,0.9
0.32,0.18,0.87
0.32,0.19,0.85
0.33,0.19,0.85
0.33,0.21,0.87
0.32,0.19,0.89
0.33,0.17,0.91
0.33,0.18,0.93
0.33,0.19,0.94
0.3,0.18,0.94
0.26,0.18,0.93
0.23,0.19,0.89
0.15,0.22,0.89
0.1,0.23,0.89
0.06,0.24,0.92
0.03,0.24,0.95
0.02,0.25,0.98
0.02,0.25,1.01
0.04,0.23,1.05
0.03,0.22,1.06
