Acc_x,Acc_y,Acc_z
0,0,0
0,0,0
0,0,0
0,0,0
0,0,0
0,0,0
0,0,0
0,0,0
0,0,0
0,0,0
0,0,0
0,0,0
0,0,0
0,0,0
0,0,0
0,0,0
0,0,0
0,0,0
0,0,0
0,0,0
0,0,0
0,0,0
0,0,0
0,0,0
0,0,0
0,0,0
0,0,0
0,0,0
0,0,0
0,0,0
0,0,0
0,0,0
0,0,0
0,0,0
0,0,0
0,0,0
0,0,0
0,0,0
0,0,0
0,0,0
0,0,0
0,0,0
0,0,0
0,0,0
0,0,0
0,0,0
0,0,0
0,0,0
0,0,0
0,0,0
0,0,0
0,0,0
0,0,0
0,0,0
0,0,0
0,0,0
0,0,0
0,0,0
0,0,0
0,0,0
0,0,0
0,0,0
0,0,0
0,0,0
0,0,0
0,0,0
0,0,0
0,0,0
0,0,0
0,0,0
0,0,0
0,0,0
0,0,0
0,0,0
0,0,0
0,0,0
0,0,0
0,0,0
0,0,0
0,0,0
0,0,0
0,0,0
0,0,0
0,0,0
0,0,0
0,0,0
0,0,0
0,0,0
0,0,0
0,0,0
0,0,0
0,0,0
0,0,0
0,0,0
0,0,0
0,0,0
0,0,0
0,0,0
0,0,0
0,0,0
0,0,0
0,0,0
0,0,0
0,0,0
0,0,0
0,0,0
0,0,0
0,0,0
0,0,0
0,0,0
0,0,0
0,0,0
0,0,0
0,0,0
0,0,0
0,0,0
0,0,0
0,0,0
0,0,0
0,0,0
0,0,0
0,0,0
0,0,0
0,0,0
0,0,0
0,0,0
0,0,0
0,0,0
0,0,0
0,0,0
0,0,0
0,0,0
0,0,0
0,0,0
0,0,0
0,0,0
0,0,0
0,0,0
0,0,0
0,0,0
0,0,0
0,0,0
0,0,0
0,0,0
0,0,0
0,0,0
0,0,0
0,0,0
0,0,0
0,0,0
0,0,0
0,0,0
0,0,0
0,0,0
0,0,0
0,0,0
0,0,0
0,0,0
0,0,0
0,0,0
0,0,0
0,0,0
0,0,0
0,0,0
0,0,0
0,0,0
0,0,0
0,0,0
0,0,0
0,0,0
0,0,0
0,0,0
0,0,0
0,0,0
0,0,0
0,0,0
0,0,0
0,0,0
0,0,0
0,0,0
0,0,0
0,0,0
0,0,0
0,0,0
0,0,0
0,0,0
0,0,0
0,0,0
0,0,0
0,0,0
0,0,0
0,0,0
0,0,0
0,0,0
0,0,0
0,0,0
0,0,0
0,0,0
0,0,0
0,0,0
0,0,0
0,0,0
0,0,0
0,0,0
0,0,0
0,0,0
0,0,0
0,0,0
0.37,0.15,0.93
0.37,0.15,0.93
0.37,0.15,0.93
0.37,0.15,0.93
0.37,0.15,0.93
0.37,0.15,0.92
0.37,0.15,0.92
0.38,0.15,0.92
0.37,0.15,0.92
0.37,0.15,0.92
0.37,0.15,0.93
0.37,0.15,0.93
0.37,0.15,0.92
0.37,0.15,0.92
0.37,0.15,0.92
0.37,0.15,0.92
0.37,0.15,0.92
0.37,0.15,0.93
0.37,0.15,0.93
0.37,0.15,0.93
0.37,0.15,0.92
0.37,0.15,0.92
0.37,0.15,0.92
0.37,0.15,0.92
0.37,0.15,0.92
0.37,0.15,0.93
0.37,0.15,0.93
0.37,0.14,0.93
0.37,0.15,0.93
0.37,0.15,0.92
0.37,0.15,0.92
0.37,0.14,0.92
0.37,0.14,0.92
0.37,0.15,0.93
0.36,0.15,0.93
0.36,0.15,0.93
0.37,0.15,0.92
0.37,0.15,0.92
0.37,0.15,0.92
0.37,0.15,0.92
0.38,0.15,0.92
0.38,0.15,0.92
0.38,0.15,0.92
0.38,0.15,0.92
0.38,0.15,0.92
0.38,0.15,0.92
0.37,0.14,0.92
0.37,0.14,0.93
0.37,0.14,0.93
0.37,0.14,0.93
0.36,0.15,0.93
0.36,0.15,0.92
0.36,0.15,0.92
0.36,0.15,0.92
0.36,0.15,0.93
0.36,0.15,0.93
0.36,0.14,0.93
0.36,0.13,0.93
0.35,-0.56,0.56
0.39,-0.64,0.57
0.38,-0.58,0.64
0.37,-0.62,0.65
0.33,-0.77,0.64
0.31,-0.82,0.72
0.32,-0.83,0.73
0.3,-0.84,0.7
0.27,-0.85,0.7
0.24,-0.85,0.7
0.25,-0.88,0.69
0.25,-0.92,0.69
0.24,-0.96,0.71
0.25,-0.97,0.73
0.27,-0.99,0.73
0.31,-1.01,0.7
0.32,-1.02,0.7
0.32,-1.03,0.7
0.32,-0.97,0.69
0.32,-0.96,0.69
0.31,-0.97,0.7
0.31,-0.97,0.72
0.31,-0.96,0.71
0.31,-0.96,0.7
0.32,-0.95,0.68
0.31,-0.93,0.66
0.3,-0.92,0.65
0.29,-0.9,0.63
0.28,-0.89,0.61
0.27,-0.87,0.6
0.28,-0.86,0.6
0.27,-0.85,0.6
0.27,-0.84,0.6
0.27,-0.82,0.6
0.27,-0.82,0.58
0.27,-0.81,0.57
0.26,-0.82,0.56
0.26,-0.82,0.57
0.26,-0.82,0.59
0.25,-0.82,0.6
0.24,-0.84,0.61
0.25,-0.86,0.62
0.25,-0.87,0.64
0.23,-0.91,0.69
0.24,-0.92,0.68
0.24,-0.93,0.7
0.29,-0.93,0.62
0.28,-0.91,0.54
0.27,-0.93,0.57
0.28,-0.95,0.69
0.27,-0.96,0.77
0.29,-0.97,0.79
0.3,-0.95,0.73
0.37,-0.89,0.71
0.44,-0.86,0.67
0.46,-0.89,0.63
0.49,-0.87,0.61
0.48,-0.87,0.54
0.52,-0.86,0.46
0.57,-0.84,0.42
0.59,-0.86,0.42
0.67,-0.86,0.39
0.74,-0.85,0.35
0.74,-0.88,0.34
0.75,-0.88,0.31
0.76,-0.85,0.24
0.78,-0.82,0.13
0.84,-0.78,0.03
0.85,-0.76,-0.04
0.9,-0.73,-0.09
0.96,-0.64,-0.16
0.97,-0.63,-0.19
0.97,-0.6,-0.19
0.97,-0.56,-0.2
0.95,-0.53,-0.2
0.92,-0.5,-0.2
0.91,-0.47,-0.21
0.89,-0.43,-0.21
0.88,-0.39,-0.21
0.86,-0.36,-0.22
0.86,-0.34,-0.21
0.83,-0.31,-0.22
0.8,-0.28,-0.23
0.78,-0.24,-0.24
0.79,-0.21,-0.24
0.84,-0.19,-0.22
0.88,-0.18,-0.21
0.88,-0.19,-0.2
0.87,-0.19,-0.19
0.87,-0.18,-0.18
0.85,-0.19,-0.17
0.81,-0.17,-0.18
0.77,-0.15,-0.17
0.75,-0.13,-0.16
0.75,-0.11,-0.17
0.77,-0.09,-0.19
0.81,-0.09,-0.22
0.86,-0.08,-0.27
0.89,-0.07,-0.31
0.91,-0.05,-0.36
0.92,-0.03,-0.39
0.92,-0.01,-0.4
0.9,0,-0.38
0.89,0,-0.35
0.88,0,-0.32
0.89,0,-0.29
0.88,0.01,-0.27
0.88,0.01,-0.26
0.89,0.01,-0.26
0.9,0.01,-0.26
0.91,0.01,-0.26
0.92,0.01,-0.27
0.92,0.01,-0.28
0.93,0.01,-0.28
0.93,0.02,-0.29
0.94,0.02,-0.29
0.94,0.03,-0.29
0.94,0.03,-0.29
0.94,0.03,-0.29
0.94,0.04,-0.28
0.93,0.05,-0.27
0.94,0.06,-0.27
0.95,0.06,-0.26
0.96,0.06,-0.26
0.97,0.07,-0.26
0.98,0.07,-0.27
0.98,0.08,-0.27
0.98,0.09,-0.28
0.99,0.1,-0.28
0.99,0.1,-0.29
0.99,0.11,-0.28
0.99,0.11,-0.27
0.98,0.11,-0.26
0.98,0.11,-0.26
0.99,0.1,-0.25
1,0.1,-0.23
1,0.1,-0.23
1,0.11,-0.22
1,0.12,-0.22
1.01,0.13,-0.21
1.01,0.13,-0.21
1.01,0.13,-0.21
1.01,0.13,-0.22
1.01,0.13,-0.23
1,0.12,-0.24
0.99,0.12,-0.25
0.98,0.12,-0.25
0.98,0.11,-0.26
0.98,0.11,-0.25
0.99,0.1,-0.24
0.99,0.1,-0.23
1,0.1,-0.22
1.01,0.1,-0.22
1.02,0.1,-0.22
1.02,0.09,-0.22
1.02,0.09,-0.23
1.01,0.09,-0.24
1.01,0.08,-0.25
1,0.08,-0.26
1.01,0.08,-0.25
1.02,0.09,-0.25
1.03,0.09,-0.24
1.03,0.1,-0.24
1.02,0.1,-0.23
1.02,0.11,-0.24
1.01,0.11,-0.24
1.01,0.11,-0.24
1.01,0.11,-0.25
1.02,0.11,-0.25
1.02,0.11,-0.25
1.03,0.11,-0.25
1.03,0.1,-0.24
1.02,0.1,-0.24
1.02,0.1,-0.24
1.02,0.1,-0.23
1.02,0.1,-0.24
1.02,0.09,-0.24
1.02,0.09,-0.23
1.02,0.09,-0.22
1.02,0.09,-0.22
1.02,0.09,-0.21
1.01,0.09,-0.21
1.01,0.09,-0.21
1.02,0.09,-0.21
1.02,0.09,-0.21
1.03,0.08,-0.21
1.03,0.08,-0.21
1.03,0.07,-0.2
1.03,0.08,-0.19
1.03,0.08,-0.18
1.02,0.08,-0.17
1.02,0.09,-0.17
1.01,0.09,-0.16
1,0.11,-0.14
1,0.12,-0.14
0.98,0.13,-0.14
0.98,0.13,-0.14
0.98,0.14,-0.14
0.98,0.15,-0.13
0.98,0.17,-0.12
0.98,0.19,-0.09
0.98,0.2,-0.08
0.99,0.2,-0.07
0.99,0.19,-0.06
0.98,0.17,-0.07
0.98,0.17,-0.07
0.99,0.17,-0.07
0.99,0.18,-0.08
0.99,0.18,-0.07
0.99,0.18,-0.06
0.98,0.18,-0.05
0.98,0.18,-0.04
0.98,0.18,-0.03
0.97,0.18,-0.03
0.97,0.17,-0.03
0.97,0.16,-0.03
0.97,0.16,-0.04
0.96,0.16,-0.05
0.97,0.16,-0.06
0.97,0.17,-0.06
0.97,0.17,-0.07
0.98,0.17,-0.07
1,0.17,-0.07
1.01,0.16,-0.06
1.01,0.15,-0.06
1.01,0.15,-0.05
1.01,0.14,-0.05
1.01,0.13,-0.04
1,0.13,-0.04
0.99,0.12,-0.04
0.98,0.12,-0.03
0.98,0.12,-0.03
0.98,0.11,-0.03
0.98,0.11,-0.02
0.99,0.12,-0.01
0.99,0.12,-0.01
0.99,0.12,0
0.99,0.1,0
0.99,0.09,0
0.99,0.08,0
0.98,0.07,0
0.97,0.06,-0.01
0.97,0.06,-0.02
0.97,0.05,-0.03
0.97,0.04,-0.03
0.98,0.03,-0.03
0.99,0.01,-0.03
1,0,-0.03
1.01,-0.02,-0.05
1.03,-0.03,-0.06
1.05,-0.03,-0.06
1.06,-0.03,-0.07
1.08,-0.02,-0.06
1.1,-0.01,-0.02
1.11,-0.02,0
1.1,-0.01,0
1.09,-0.01,0
1.07,-0.01,-0.01
1.06,0,-0.02
1.05,0.02,-0.04
1.05,0.03,-0.05
1.07,0.03,-0.04
1.08,0.03,-0.03
1.08,0.04,-0.02
1.06,0.05,-0.01
1.05,0.07,-0.01
1.03,0.08,-0.01
1.01,0.1,-0.02
0.98,0.11,-0.04
0.96,0.12,-0.05
0.95,0.13,-0.06
0.94,0.12,-0.07
0.94,0.12,-0.07
0.95,0.12,-0.06
0.95,0.11,-0.05
0.95,0.11,-0.06
0.95,0.1,-0.07
0.96,0.09,-0.09
0.98,0.07,-0.11
1,0,-0.13
1,-0.03,-0.14
0.99,-0.06,-0.13
0.99,-0.08,-0.11
0.98,-0.08,-0.1
0.98,-0.07,-0.1
0.98,-0.06,-0.09
0.98,-0.05,-0.09
0.96,-0.05,-0.1
0.95,-0.03,-0.1
0.94,0,-0.1
0.93,0.04,-0.1
0.92,0.07,-0.09
0.9,0.09,-0.1
0.88,0.11,-0.1
0.88,0.11,-0.1
0.87,0.09,-0.1
0.87,0.07,-0.09
0.87,0.03,-0.07
0.89,-0.01,-0.06
0.91,-0.05,-0.04
0.95,-0.08,-0.02
1,-0.11,0.01
1.06,-0.15,0.04
1.09,-0.19,0.08
1.09,-0.23,0.11
1.08,-0.3,0.13
1.04,-0.34,0.14
1.03,-0.37,0.15
1.03,-0.39,0.15
1.04,-0.41,0.13
1.06,-0.41,0.13
1.07,-0.4,0.17
1.08,-0.38,0.21
1.1,-0.36,0.25
1.14,-0.34,0.3
1.16,-0.33,0.37
1.16,-0.32,0.43
1.15,-0.31,0.51
1.13,-0.3,0.54
1.1,-0.26,0.54
1.08,-0.21,0.54
1.05,-0.16,0.53
1.02,-0.12,0.54
1,-0.09,0.56
0.97,-0.06,0.57
0.93,-0.03,0.59
0.91,-0.01,0.62
0.9,0.03,0.66
0.87,0.08,0.67
0.83,0.11,0.67
0.81,0.14,0.66
0.8,0.2,0.65
0.74,0.2,0.68
0.68,0.19,0.73
0.63,0.19,0.75
0.61,0.19,0.74
0.58,0.19,0.72
0.59,0.2,0.68
0.63,0.21,0.62
0.65,0.22,0.57
0.63,0.21,0.55
0.62,0.19,0.54
0.61,0.19,0.56
0.6,0.19,0.61
0.58,0.17,0.66
0.57,0.16,0.71
0.6,0.16,0.74
0.62,0.16,0.75
0.65,0.16,0.74
0.69,0.16,0.72
0.72,0.17,0.7
0.73,0.19,0.68
0.69,0.19,0.7
0.66,0.19,0.73
0.66,0.2,0.73
0.65,0.21,0.72
0.67,0.24,0.71
0.68,0.25,0.75
0.59,0.25,0.79
0.59,0.25,0.81
0.62,0.27,0.82
0.62,0.28,0.8
0.61,0.28,0.77
0.59,0.28,0.74
0.58,0.29,0.7
0.58,0.29,0.71
0.57,0.29,0.71
0.57,0.29,0.69
0.57,0.28,0.71
0.56,0.26,0.74
0.55,0.24,0.8
0.52,0.25,0.87
0.49,0.27,0.9
0.47,0.29,0.89
0.47,0.31,0.85
0.5,0.33,0.79
0.53,0.36,0.72
0.57,0.39,0.66
0.55,0.39,0.67
0.41,0.36,0.79
0.31,0.36,0.89
0.3,0.37,0.92
0.33,0.38,0.9
0.35,0.4,0.82
0.35,0.41,0.79
0.34,0.42,0.77
0.35,0.44,0.79
0.36,0.46,0.84
0.35,0.47,0.88
0.32,0.48,0.9
0.31,0.47,0.9
0.35,0.48,0.85
0.32,0.51,0.83
0.27,0.51,0.83
0.22,0.49,0.82
0.23,0.49,0.83
0.3,0.49,0.89
0.33,0.49,1
0.3,0.48,1.09
0.29,0.47,1.12
0.28,0.45,1.1
0.28,0.43,1.05
0.29,0.43,0.96
0.31,0.43,0.87
0.36,0.44,0.81
0.46,0.45,0.75
0.58,0.47,0.7
0.66,0.48,0.69
0.7,0.47,0.69
0.69,0.46,0.76
0.66,0.47,0.75
0.63,0.47,0.71
0.6,0.47,0.68
0.58,0.48,0.66
0.57,0.48,0.65
0.57,0.47,0.67
0.57,0.46,0.71
0.59,0.46,0.74
0.58,0.45,0.74
0.54,0.45,0.73
0.49,0.46,0.7
0.45,0.46,0.68
0.42,0.46,0.68
0.41,0.46,0.7
0.39,0.46,0.73
0.38,0.46,0.77
0.36,0.46,0.82
0.35,0.43,0.88
0.39,0.4,0.93
0.44,0.39,0.95
0.48,0.39,0.95
0.51,0.4,0.92
0.51,0.41,0.88
0.49,0.42,0.84
0.47,0.43,0.81
0.48,0.43,0.76
0.51,0.41,0.74
0.52,0.4,0.74
0.5,0.39,0.75
0.48,0.38,0.76
0.49,0.37,0.76
0.52,0.36,0.77
0.55,0.35,0.78
0.56,0.35,0.77
0.56,0.36,0.76
0.56,0.36,0.74
0.54,0.36,0.73
0.53,0.37,0.72
0.53,0.38,0.72
0.52,0.36,0.74
0.52,0.34,0.77
0.53,0.35,0.78
0.54,0.33,0.78
0.56,0.34,0.8
0.57,0.35,0.83
0.59,0.34,0.82
0.61,0.34,0.81
0.6,0.34,0.79
0.59,0.35,0.78
0.58,0.37,0.77
0.56,0.37,0.75
0.55,0.37,0.77
0.53,0.39,0.75
0.53,0.4,0.74
0.53,0.42,0.74
0.51,0.42,0.75
0.53,0.42,0.73
0.52,0.42,0.74
0.49,0.39,0.76
0.49,0.39,0.75
0.49,0.42,0.77
0.5,0.43,0.79
0.51,0.41,0.81
0.5,0.41,0.84
0.49,0.42,0.84
0.49,0.43,0.8
0.48,0.41,0.78
0.47,0.38,0.78
0.47,0.39,0.77
0.46,0.39,0.77
0.47,0.37,0.81
0.47,0.39,0.83
0.46,0.39,0.81
0.47,0.38,0.79
0.47,0.39,0.8
0.45,0.38,0.82
0.45,0.35,0.8
0.47,0.37,0.81
0.45,0.35,0.79
0.43,0.34,0.83
0.43,0.35,0.83
0.42,0.35,0.84
0.4,0.36,0.85
0.39,0.36,0.87
0.42,0.36,0.85
0.41,0.34,0.83
0.4,0.32,0.84
0.42,0.34,0.83
0.43,0.38,0.81
0.41,0.37,0.79
0.39,0.35,0.78
0.4,0.38,0.77
0.4,0.42,0.78
0.38,0.43,0.78
0.36,0.42,0.8
0.35,0.43,0.82
0.35,0.43,0.82
0.35,0.42,0.83
0.36,0.42,0.84
0.36,0.42,0.84
0.37,0.41,0.85
0.38,0.4,0.86
0.4,0.39,0.86
0.41,0.38,0.87
0.43,0.37,0.87
0.43,0.36,0.87
0.43,0.35,0.87
0.43,0.34,0.86
0.43,0.34,0.85
0.42,0.34,0.85
0.41,0.35,0.84
0.4,0.35,0.84
0.39,0.35,0.83
0.38,0.35,0.82
0.38,0.36,0.82
0.37,0.36,0.81
0.39,0.35,0.8
0.41,0.36,0.81
0.43,0.37,0.81
0.44,0.38,0.82
0.45,0.38,0.82
0.45,0.38,0.83
0.46,0.38,0.83
0.46,0.38,0.83
0.46,0.39,0.83
0.46,0.38,0.84
0.46,0.39,0.84
0.46,0.38,0.84
0.46,0.38,0.84
0.46,0.38,0.84
0.45,0.37,0.84
0.44,0.37,0.83
0.43,0.37,0.83
0.43,0.38,0.83
0.43,0.38,0.82
0.43,0.37,0.82
0.43,0.37,0.82
0.43,0.37,0.81
0.43,0.37,0.81
0.43,0.36,0.81
0.44,0.36,0.81
0.44,0.36,0.81
0.44,0.36,0.81
0.44,0.36,0.81
0.44,0.36,0.82
0.44,0.36,0.82
0.44,0.37,0.82
0.45,0.37,0.82
0.46,0.37,0.82
0.47,0.37,0.82
0.47,0.37,0.81
0.48,0.38,0.81
0.48,0.38,0.81
0.48,0.38,0.81
0.48,0.38,0.81
0.48,0.38,0.81
0.48,0.38,0.81
0.46,0.38,0.81
0.46,0.39,0.81
0.46,0.39,0.81
0.46,0.38,0.82
0.46,0.37,0.82
0.46,0.37,0.81
0.47,0.37,0.81
0.47,0.37,0.81
0.46,0.37,0.8
0.46,0.37,0.8
0.47,0.37,0.8
0.46,0.37,0.8
0.46,0.38,0.8
0.46,0.37,0.8
0.46,0.38,0.8
0.46,0.38,0.8
0.46,0.38,0.81
0.46,0.38,0.81
0.46,0.38,0.81
0.46,0.37,0.81
0.46,0.37,0.81
0.46,0.37,0.81
0.46,0.37,0.81
0.47,0.38,0.81
0.47,0.38,0.81
0.47,0.37,0.81
0.47,0.37,0.81
0.47,0.37,0.81
0.47,0.37,0.8
0.46,0.37,0.8
0.46,0.37,0.8
0.46,0.37,0.8
0.47,0.38,0.8
0.47,0.38,0.8
0.47,0.37,0.8
0.47,0.37,0.8
0.48,0.38,0.8
0.48,0.38,0.8
0.48,0.38,0.8
0.48,0.38,0.8
0.49,0.38,0.8
0.49,0.38,0.8
0.49,0.38,0.8
0.5,0.38,0.8
0.5,0.38,0.8
0.49,0.38,0.8
0.48,0.38,0.8
0.47,0.38,0.8
0.47,0.38,0.8
0.47,0.38,0.8
0.48,0.38,0.8
0.48,0.38,0.8
0.48,0.37,0.8
0.48,0.37,0.8
0.48,0.37,0.8
0.47,0.38,0.8
0.47,0.38,0.8
0.47,0.38,0.8
0.47,0.37,0.8
0.47,0.37,0.8
0.47,0.37,0.8
0.47,0.37,0.8
0.47,0.37,0.8
0.47,0.37,0.8
0.47,0.37,0.8
0.48,0.37,0.8
0.48,0.38,0.8
0.48,0.38,0.8
0.48,0.38,0.8
0.48,0.37,0.79
0.49,0.38,0.79
0.48,0.38,0.79
0.48,0.38,0.79
0.48,0.38,0.79
0.48,0.38,0.79
0.48,0.39,0.79
0.49,0.39,0.79
0.49,0.39,0.79
0.49,0.38,0.79
0.5,0.38,0.79
0.5,0.38,0.79
0.5,0.38,0.79
0.5,0.38,0.79
0.51,0.38,0.79
0.5,0.38,0.79
0.5,0.38,0.79
0.51,0.38,0.78
0.51,0.38,0.78
0.52,0.38,0.79
0.52,0.38,0.78
0.52,0.38,0.78
0.52,0.38,0.78
0.52,0.38,0.78
0.51,0.38,0.78
0.5,0.38,0.79
0.48,0.38,0.79
0.47,0.38,0.79
0.47,0.38,0.79
0.47,0.38,0.79
0.48,0.38,0.79
0.48,0.38,0.79
0.49,0.38,0.79
0.49,0.38,0.79
0.49,0.38,0.79
0.49,0.37,0.79
0.49,0.37,0.79
0.48,0.38,0.79
0.48,0.38,0.79
0.49,0.38,0.79
0.49,0.38,0.79
0.49,0.38,0.79
0.49,0.38,0.79
0.49,0.38,0.79
0.49,0.37,0.79
0.49,0.38,0.79
0.49,0.38,0.79
0.49,0.38,0.79
0.49,0.38,0.78
0.5,0.39,0.78
0.5,0.38,0.78
0.51,0.38,0.79
0.51,0.38,0.78
0.5,0.38,0.79
0.5,0.38,0.79
0.5,0.39,0.79
0.5,0.39,0.79
0.5,0.39,0.79
0.5,0.39,0.78
0.51,0.38,0.78
0.51,0.38,0.78
0.5,0.38,0.78
0.5,0.38,0.78
0.5,0.39,0.78
0.51,0.39,0.78
0.5,0.39,0.78
0.5,0.39,0.78
0.5,0.39,0.78
0.5,0.38,0.78
0.49,0.38,0.78
0.49,0.38,0.78
0.49,0.39,0.78
0.5,0.39,0.78
0.5,0.39,0.78
0.51,0.38,0.78
0.51,0.38,0.78
0.51,0.38,0.78
0.51,0.38,0.78
0.51,0.38,0.78
0.51,0.38,0.78
0.5,0.38,0.78
0.5,0.38,0.78
0.5,0.38,0.78
0.49,0.38,0.78
0.49,0.38,0.79
0.49,0.38,0.79
0.49,0.38,0.79
0.49,0.38,0.78
0.5,0.39,0.79
0.5,0.39,0.78
0.5,0.38,0.78
0.5,0.38,0.78
0.5,0.38,0.78
0.5,0.38,0.78
0.5,0.38,0.78
0.5,0.38,0.78
0.5,0.38,0.78
0.5,0.38,0.78
0.51,0.38,0.78
0.5,0.38,0.78
0.5,0.38,0.78
0.5,0.38,0.78
0.5,0.38,0.78
0.5,0.38,0.78
0.5,0.38,0.78
0.5,0.38,0.78
0.51,0.38,0.78
0.51,0.38,0.78
0.51,0.38,0.78
0.5,0.38,0.77
0.5,0.38,0.78
0.5,0.38,0.78
0.5,0.39,0.78
0.5,0.38,0.78
0.5,0.38,0.78
0.51,0.39,0.79
0.51,0.38,0.79
0.51,0.38,0.78
0.51,0.38,0.78
0.51,0.38,0.78
0.5,0.38,0.78
0.51,0.38,0.78
0.51,0.38,0.78
0.51,0.38,0.78
0.51,0.38,0.78
0.51,0.38,0.78
0.5,0.38,0.78
0.5,0.39,0.78
0.5,0.39,0.78
0.5,0.39,0.78
0.5,0.39,0.78
0.5,0.39,0.77
0.51,0.39,0.77
0.51,0.38,0.78
0.52,0.38,0.78
0.52,0.39,0.78
0.51,0.39,0.78
0.51,0.39,0.77
0.52,0.4,0.77
0.52,0.39,0.77
0.52,0.39,0.77
0.51,0.39,0.77
0.5,0.39,0.77
0.49,0.39,0.77
0.49,0.38,0.77
0.48,0.38,0.78
0.47,0.38,0.78
0.47,0.38,0.79
0.47,0.37,0.79
0.46,0.37,0.79
0.47,0.37,0.79
0.48,0.37,0.79
0.48,0.37,0.79
0.49,0.37,0.79
0.49,0.37,0.78
0.5,0.38,0.78
0.51,0.37,0.78
0.52,0.38,0.78
0.52,0.38,0.77
0.54,0.38,0.77
0.54,0.38,0.76
0.54,0.39,0.76
0.54,0.39,0.76
0.54,0.39,0.76
0.54,0.39,0.76
0.53,0.39,0.76
0.53,0.4,0.76
0.53,0.39,0.76
0.53,0.39,0.76
0.54,0.39,0.76
0.54,0.39,0.76
0.54,0.39,0.76
0.54,0.39,0.76
0.54,0.39,0.76
0.54,0.39,0.75
0.54,0.39,0.75
0.54,0.39,0.75
0.55,0.39,0.74
0.55,0.39,0.74
0.55,0.39,0.75
0.55,0.39,0.75
0.55,0.39,0.75
0.56,0.39,0.76
0.56,0.39,0.76
0.56,0.39,0.75
0.56,0.39,0.75
0.57,0.39,0.75
0.57,0.39,0.75
0.56,0.38,0.75
0.55,0.38,0.75
0.55,0.38,0.75
0.54,0.38,0.75
0.53,0.39,0.75
0.53,0.39,0.75
0.53,0.39,0.75
0.53,0.39,0.75
0.53,0.39,0.75
0.54,0.39,0.75
0.54,0.39,0.75
0.54,0.39,0.75
0.54,0.38,0.75
0.54,0.38,0.75
0.54,0.38,0.75
0.54,0.38,0.75
0.54,0.38,0.75
0.55,0.39,0.75
0.55,0.39,0.75
0.55,0.38,0.75
0.56,0.39,0.75
0.56,0.39,0.76
0.56,0.39,0.76
0.56,0.38,0.75
0.56,0.39,0.75
0.56,0.39,0.75
0.56,0.4,0.75
0.57,0.41,0.76
0.57,0.41,0.77
0.57,0.41,0.76
0.56,0.43,0.76
0.57,0.43,0.76
0.59,0.43,0.76
0.6,0.42,0.76
0.61,0.41,0.75
0.61,0.41,0.74
0.61,0.41,0.73
0.62,0.41,0.73
0.62,0.41,0.73
0.61,0.4,0.72
0.6,0.4,0.72
0.59,0.4,0.72
0.57,0.4,0.71
0.56,0.41,0.71
0.56,0.4,0.72
0.56,0.4,0.71
0.56,0.4,0.71
0.55,0.39,0.72
0.54,0.39,0.72
0.55,0.4,0.71
0.55,0.4,0.7
0.57,0.4,0.7
0.57,0.4,0.7
0.57,0.4,0.7
0.57,0.41,0.7
0.59,0.41,0.7
0.59,0.42,0.69
0.59,0.42,0.69
0.6,0.42,0.69
0.6,0.43,0.7
0.6,0.45,0.69
0.6,0.45,0.68
0.61,0.45,0.67
0.63,0.45,0.67
0.64,0.45,0.68
0.66,0.45,0.67
0.67,0.45,0.66
0.67,0.45,0.63
0.68,0.46,0.6
0.68,0.44,0.59
0.68,0.44,0.6
0.66,0.43,0.61
0.64,0.41,0.62
0.62,0.41,0.62
0.58,0.4,0.63
0.55,0.39,0.63
0.52,0.39,0.63
0.49,0.38,0.62
0.46,0.38,0.62
0.44,0.38,0.6
0.43,0.38,0.58
0.43,0.4,0.58
0.48,0.41,0.59
0.52,0.44,0.61
0.56,0.45,0.62
0.6,0.45,0.63
0.64,0.45,0.65
0.68,0.44,0.67
0.7,0.43,0.68
0.69,0.41,0.69
0.66,0.4,0.7
0.63,0.39,0.7
0.6,0.39,0.7
0.58,0.38,0.7
0.57,0.38,0.7
0.55,0.37,0.7
0.54,0.36,0.7
0.54,0.36,0.72
0.53,0.35,0.74
0.52,0.34,0.75
0.51,0.33,0.77
0.51,0.32,0.79
0.52,0.32,0.81
0.53,0.32,0.82
0.55,0.31,0.83
0.57,0.31,0.83
0.59,0.34,0.83
0.61,0.37,0.79
0.64,0.39,0.77
0.67,0.41,0.75
0.72,0.43,0.72
0.75,0.44,0.69
0.77,0.44,0.66
0.8,0.46,0.63
0.81,0.47,0.61
0.81,0.48,0.58
0.8,0.48,0.56
0.8,0.47,0.55
0.78,0.47,0.55
0.77,0.46,0.55
0.74,0.45,0.55
0.72,0.44,0.55
0.69,0.42,0.56
0.67,0.41,0.57
0.65,0.4,0.57
0.65,0.39,0.58
0.65,0.38,0.59
0.66,0.37,0.59
0.67,0.37,0.6
0.68,0.37,0.6
0.69,0.37,0.6
0.7,0.37,0.6
0.71,0.38,0.61
0.71,0.39,0.6
0.72,0.4,0.61
0.75,0.41,0.61
0.76,0.41,0.6
0.76,0.41,0.59
0.76,0.42,0.58
0.76,0.42,0.57
0.76,0.42,0.57
0.76,0.42,0.56
0.75,0.41,0.56
0.74,0.41,0.56
0.73,0.4,0.56
0.72,0.4,0.55
0.7,0.39,0.56
0.69,0.38,0.56
0.67,0.37,0.55
0.65,0.37,0.55
0.63,0.35,0.55
0.61,0.33,0.56
0.6,0.32,0.56
0.58,0.3,0.54
0.57,0.28,0.52
0.57,0.26,0.49
0.58,0.27,0.44
0.58,0.32,0.39
0.6,0.35,0.39
0.64,0.37,0.37
0.69,0.42,0.34
0.75,0.39,0.31
0.78,0.38,0.3
0.82,0.4,0.3
0.85,0.4,0.28
0.9,0.41,0.25
0.94,0.4,0.22
0.96,0.37,0.19
0.98,0.43,0.18
0.98,0.54,0.23
0.92,0.63,0.29
0.91,0.64,0.31
1,0.64,0.3
1.07,0.67,0.28
1.1,0.63,0.25
1.12,0.61,0.21
1.11,0.57,0.16
1.11,0.49,0.12
1.11,0.46,0.09
1.06,0.44,0.1
1,0.42,0.13
0.96,0.4,0.16
0.92,0.4,0.19
0.87,0.4,0.23
0.83,0.41,0.27
0.81,0.41,0.29
0.8,0.42,0.31
0.78,0.42,0.3
0.77,0.42,0.31
0.76,0.42,0.31
0.76,0.43,0.3
0.75,0.43,0.27
0.75,0.44,0.27
0.74,0.45,0.27
0.74,0.46,0.27
0.75,0.46,0.27
0.75,0.46,0.28
0.76,0.46,0.3
0.76,0.44,0.31
0.77,0.44,0.3
0.8,0.44,0.29
0.83,0.43,0.27
0.87,0.42,0.25
0.9,0.39,0.25
0.92,0.38,0.25
0.91,0.38,0.27
0.88,0.39,0.29
0.86,0.38,0.31
0.88,0.36,0.3
0.91,0.34,0.29
0.91,0.33,0.26
0.89,0.33,0.25
0.86,0.32,0.23
0.87,0.33,0.21
0.87,0.31,0.18
0.86,0.28,0.15
0.85,0.26,0.13
0.83,0.24,0.12
0.82,0.21,0.08
0.85,0.17,0.04
0.92,0.13,0.03
1,0.13,0.05
1.08,0.14,0.09
1.14,0.16,0.14
1.18,0.2,0.19
1.22,0.21,0.22
1.24,0.23,0.28
1.23,0.25,0.34
1.24,0.25,0.36
1.24,0.26,0.38
1.23,0.26,0.35
1.2,0.26,0.33
1.18,0.26,0.3
1.18,0.24,0.27
1.14,0.24,0.26
1.11,0.23,0.26
1.08,0.22,0.27
1.04,0.21,0.28
1.02,0.2,0.29
0.97,0.2,0.29
0.94,0.19,0.29
0.92,0.18,0.3
0.9,0.18,0.3
0.89,0.18,0.3
0.89,0.18,0.3
0.9,0.19,0.29
0.9,0.2,0.3
0.92,0.2,0.3
0.93,0.2,0.31
0.95,0.2,0.31
0.96,0.2,0.3
0.96,0.21,0.29
0.97,0.2,0.28
0.98,0.2,0.29
0.99,0.21,0.3
0.99,0.21,0.29
1,0.22,0.27
1.01,0.22,0.26
1.03,0.22,0.26
1.04,0.21,0.25
1.05,0.22,0.25
1.05,0.23,0.25
1.05,0.24,0.26
1.06,0.24,0.27
1.05,0.24,0.26
1.03,0.24,0.25
1.02,0.26,0.25
1.02,0.26,0.25
1.02,0.26,0.26
1,0.27,0.27
1,0.28,0.28
1.01,0.3,0.3
1.01,0.3,0.3
1,0.31,0.31
1,0.32,0.29
0.97,0.31,0.27
0.96,0.31,0.27
0.95,0.3,0.28
0.94,0.3,0.27
0.95,0.29,0.27
0.96,0.29,0.28
0.97,0.31,0.29
0.97,0.32,0.3
0.96,0.33,0.29
0.94,0.35,0.26
0.92,0.35,0.24
0.91,0.36,0.23
0.9,0.35,0.22
0.9,0.33,0.21
0.91,0.34,0.22
0.92,0.35,0.25
0.88,0.36,0.26
0.85,0.36,0.28
0.84,0.36,0.28
0.85,0.36,0.27
0.83,0.38,0.27
0.78,0.38,0.28
0.76,0.37,0.26
0.75,0.38,0.24
0.76,0.39,0.24
0.78,0.38,0.25
0.8,0.38,0.29
0.78,0.4,0.33
0.74,0.39,0.35
0.74,0.38,0.37
0.75,0.36,0.4
0.75,0.36,0.41
0.75,0.36,0.43
0.75,0.37,0.44
0.78,0.38,0.44
0.81,0.38,0.45
0.86,0.36,0.45
0.9,0.34,0.47
0.94,0.32,0.48
0.95,0.32,0.49
0.95,0.32,0.5
0.94,0.32,0.5
0.92,0.35,0.5
0.92,0.36,0.49
0.92,0.36,0.47
0.92,0.36,0.46
0.93,0.36,0.46
0.94,0.36,0.45
0.93,0.35,0.44
0.91,0.34,0.42
0.9,0.34,0.38
0.89,0.34,0.32
0.89,0.35,0.28
0.89,0.36,0.24
0.88,0.38,0.22
0.86,0.39,0.25
0.85,0.4,0.31
0.84,0.39,0.41
0.82,0.38,0.48
0.77,0.38,0.51
0.71,0.39,0.49
0.66,0.42,0.45
0.63,0.45,0.38
0.62,0.48,0.34
0.61,0.52,0.34
0.63,0.54,0.33
0.67,0.55,0.3
0.73,0.54,0.3
0.83,0.44,0.38
0.86,0.4,0.44
0.85,0.35,0.46
0.83,0.32,0.46
0.8,0.3,0.45
0.8,0.27,0.44
0.79,0.24,0.43
0.77,0.23,0.44
0.74,0.23,0.46
0.74,0.23,0.47
0.76,0.22,0.48
0.77,0.22,0.49
0.77,0.22,0.5
0.76,0.23,0.51
0.74,0.25,0.54
0.72,0.28,0.57
0.7,0.31,0.6
0.67,0.33,0.63
0.67,0.35,0.66
0.68,0.38,0.69
0.69,0.41,0.71
0.71,0.44,0.71
0.74,0.47,0.69
0.8,0.5,0.64
0.84,0.52,0.58
0.88,0.52,0.53
0.9,0.47,0.5
0.91,0.46,0.47
0.9,0.46,0.46
0.86,0.46,0.44
0.84,0.47,0.42
0.86,0.5,0.41
0.85,0.53,0.39
0.83,0.54,0.39
0.83,0.53,0.38
0.83,0.52,0.37
0.85,0.5,0.36
0.88,0.48,0.35
0.91,0.47,0.34
0.9,0.46,0.35
0.87,0.46,0.35
0.84,0.45,0.34
0.82,0.46,0.32
0.81,0.48,0.32
0.8,0.48,0.31
0.81,0.48,0.32
0.83,0.47,0.36
0.82,0.48,0.39
0.8,0.49,0.42
0.77,0.52,0.43
0.74,0.54,0.43
0.72,0.53,0.46
0.73,0.55,0.46
0.76,0.56,0.44
0.74,0.57,0.43
0.72,0.57,0.44
0.72,0.55,0.44
0.73,0.51,0.45
0.72,0.49,0.48
0.69,0.48,0.53
0.66,0.47,0.58
0.63,0.46,0.62
0.61,0.48,0.62
0.58,0.5,0.6
0.54,0.51,0.57
0.52,0.52,0.53
0.53,0.51,0.48
0.56,0.51,0.44
0.58,0.5,0.4
0.6,0.49,0.36
0.61,0.47,0.33
0.61,0.46,0.32
0.63,0.45,0.32
0.65,0.44,0.33
0.67,0.41,0.35
0.68,0.39,0.38
0.68,0.37,0.41
0.67,0.37,0.45
0.67,0.35,0.53
0.62,0.38,0.59
0.6,0.39,0.66
0.58,0.39,0.73
0.56,0.39,0.8
0.55,0.4,0.86
0.73,0.41,0.88
0.74,0.4,0.9
0.57,0.38,0.9
0.6,0.39,0.87
0.64,0.4,0.82
0.66,0.39,0.76
0.69,0.39,0.7
0.72,0.38,0.66
0.74,0.38,0.61
0.76,0.38,0.59
0.77,0.37,0.56
0.79,0.37,0.55
0.81,0.38,0.54
0.84,0.37,0.54
0.85,0.36,0.55
0.86,0.35,0.57
0.88,0.36,0.6
0.91,0.35,0.63
0.92,0.33,0.66
0.92,0.33,0.68
0.9,0.32,0.69
0.85,0.32,0.68
0.81,0.32,0.67
0.76,0.32,0.64
0.71,0.32,0.61
0.68,0.32,0.56
0.68,0.33,0.53
0.68,0.35,0.5
0.68,0.36,0.49
0.68,0.37,0.49
0.7,0.39,0.49
0.71,0.4,0.49
0.72,0.41,0.5
0.72,0.42,0.5
0.73,0.44,0.5
0.75,0.45,0.49
0.76,0.47,0.47
0.76,0.47,0.47
0.76,0.46,0.46
0.77,0.45,0.47
0.79,0.43,0.47
0.79,0.42,0.49
0.8,0.41,0.5
0.81,0.4,0.52
0.83,0.39,0.53
0.83,0.39,0.53
0.83,0.39,0.53
0.85,0.37,0.53
0.85,0.37,0.54
0.85,0.36,0.55
0.83,0.35,0.58
0.81,0.36,0.61
0.79,0.36,0.64
0.77,0.37,0.68
0.74,0.37,0.71
0.71,0.37,0.72
0.68,0.37,0.73
0.65,0.37,0.72
0.63,0.37,0.71
0.61,0.36,0.69
0.59,0.34,0.67
0.57,0.34,0.65
0.56,0.34,0.62
0.56,0.34,0.6
0.55,0.34,0.57
0.56,0.36,0.56
0.55,0.37,0.55
0.56,0.37,0.55
0.58,0.37,0.56
0.61,0.37,0.59
0.65,0.37,0.61
0.69,0.37,0.63
0.72,0.37,0.66
0.76,0.38,0.67
0.77,0.39,0.68
0.78,0.39,0.68
0.78,0.4,0.68
0.78,0.41,0.66
0.79,0.42,0.63
0.79,0.42,0.61
0.78,0.42,0.59
0.78,0.42,0.56
0.78,0.42,0.55
0.77,0.41,0.55
0.77,0.41,0.54
0.76,0.41,0.54
0.74,0.4,0.54
0.73,0.4,0.52
0.74,0.4,0.51
0.74,0.4,0.51
0.75,0.41,0.52
0.76,0.41,0.53
0.77,0.4,0.55
0.76,0.39,0.57
0.74,0.37,0.59
0.73,0.35,0.6
0.72,0.34,0.63
0.71,0.34,0.65
0.7,0.34,0.67
0.68,0.35,0.66
0.67,0.35,0.66
0.68,0.35,0.65
0.69,0.34,0.66
0.7,0.33,0.67
0.69,0.32,0.68
0.69,0.31,0.68
0.69,0.3,0.68
0.7,0.31,0.69
0.69,0.31,0.69
0.69,0.3,0.69
0.7,0.31,0.68
0.7,0.31,0.66
0.68,0.29,0.64
0.68,0.29,0.62
0.68,0.29,0.62
0.65,0.29,0.6
0.63,0.29,0.6
0.61,0.29,0.6
0.57,0.27,0.61
0.56,0.28,0.62
0.55,0.27,0.62
0.56,0.27,0.61
0.57,0.3,0.6
0.57,0.32,0.62
0.56,0.31,0.65
0.54,0.29,0.66
0.59,0.28,0.66
0.66,0.28,0.65
0.71,0.29,0.65
0.75,0.3,0.65
0.78,0.3,0.65
0.8,0.3,0.66
0.82,0.3,0.65
0.85,0.29,0.62
0.85,0.28,0.63
0.88,0.27,0.61
0.9,0.27,0.55
0.9,0.26,0.53
0.89,0.25,0.53
0.87,0.24,0.52
0.86,0.24,0.51
0.86,0.23,0.5
0.84,0.21,0.48
0.84,0.2,0.47
0.84,0.19,0.48
0.85,0.19,0.51
0.83,0.19,0.54
0.8,0.2,0.5
0.78,0.22,0.43
0.8,0.24,0.39
0.87,0.25,0.37
0.96,0.25,0.35
1.01,0.24,0.39
1.02,0.23,0.45
1,0.24,0.43
0.98,0.23,0.37
0.98,0.24,0.32
1.02,0.23,0.29
1.09,0.23,0.3
1.09,0.24,0.36
1.05,0.23,0.4
1.03,0.25,0.35
1,0.28,0.25
1.02,0.28,0.16
1.12,0.28,0.09
1.22,0.28,0.06
1.28,0.29,0.09
1.26,0.3,0.16
1.2,0.3,0.18
1.14,0.29,0.13
1.11,0.28,0.05
1.13,0.27,0
1.15,0.28,-0.03
1.15,0.29,-0.04
1.13,0.3,-0.04
1.1,0.3,-0.03
1.06,0.3,-0.05
1.02,0.31,-0.14
1,0.33,-0.18
1.03,0.36,-0.21
1.04,0.37,-0.19
1.03,0.37,-0.15
0.98,0.36,-0.15
0.94,0.36,-0.19
0.94,0.36,-0.24
0.93,0.36,-0.27
0.93,0.37,-0.26
0.91,0.37,-0.24
0.88,0.37,-0.2
0.85,0.37,-0.17
0.83,0.38,-0.17
0.82,0.39,-0.2
0.82,0.41,-0.22
0.82,0.44,-0.23
0.82,0.45,-0.23
0.82,0.46,-0.21
0.79,0.47,-0.18
0.75,0.47,-0.15
0.74,0.47,-0.14
0.73,0.48,-0.15
0.72,0.49,-0.17
0.73,0.49,-0.19
0.75,0.51,-0.19
0.77,0.55,-0.15
0.77,0.56,-0.12
0.75,0.57,-0.09
0.74,0.58,-0.06
0.73,0.58,-0.06
0.74,0.59,-0.08
0.75,0.6,-0.09
0.78,0.6,-0.08
0.8,0.6,-0.08
0.79,0.6,-0.07
0.78,0.61,-0.06
0.77,0.61,-0.05
0.77,0.61,-0.04
0.76,0.62,-0.06
0.75,0.63,-0.08
0.76,0.63,-0.1
0.77,0.62,-0.11
0.78,0.61,-0.14
0.78,0.61,-0.14
0.76,0.61,-0.13
0.74,0.59,-0.14
0.72,0.58,-0.16
0.7,0.57,-0.17
0.65,0.57,-0.18
0.6,0.55,-0.19
0.54,0.55,-0.2
0.49,0.54,-0.26
0.45,0.53,-0.31
0.43,0.51,-0.35
0.42,0.47,-0.36
0.38,0.44,-0.36
0.33,0.43,-0.37
0.28,0.36,-0.38
0.25,0.3,-0.4
0.22,0.25,-0.42
0.18,0.2,-0.43
0.15,0.15,-0.45
0.13,0.13,-0.48
0.12,0.1,-0.49
0.11,0.06,-0.49
0.12,0.03,-0.48
0.11,-0.01,-0.5
0.08,-0.02,-0.54
0.07,-0.03,-0.6
0.08,-0.06,-0.65
0.11,-0.08,-0.69
0.15,-0.12,-0.69
0.17,-0.14,-0.73
0.16,-0.14,-0.78
0.1,-0.15,-0.81
0.11,-0.15,-0.85
0.16,-0.15,-0.92
0.23,-0.17,-1.02
0.44,-0.19,-1.04
0.51,-0.22,-1.02
0.54,-0.25,-0.96
0.61,-0.38,-0.88
0.82,-0.5,-0.79
1.03,-0.52,-0.72
1.05,-0.51,-0.67
1,-0.5,-0.63
0.91,-0.54,-0.53
0.83,-0.43,-0.6
0.75,-0.24,-0.69
0.56,-0.14,-0.62
0.42,-0.05,-0.64
0.36,0.05,-0.73
0.55,0.18,-0.85
0.78,0.26,-0.9
0.72,0.32,-0.8
0.53,0.35,-0.65
0.36,0.3,-0.56
0.33,0.13,-0.52
0.4,-0.15,-0.48
0.29,-0.38,-0.36
2.06,-1.71,-2.12
3.98,-0.77,-0.6
3.42,0.7,3.38
-0.53,-0.32,-0.03
2.72,0.2,-1.26
1.73,0.24,0.45
0.94,-0.35,0.92
0.41,-1.01,0.79
0.54,-0.89,0.73
0.87,-0.31,0.77
1.08,-0.06,0.7
1.04,-0.2,0.57
0.96,-0.31,0.5
0.93,-0.26,0.57
0.88,-0.2,0.53
0.86,-0.21,0.34
0.79,-0.31,0.36
0.75,-0.43,0.51
0.83,-0.43,0.53
0.87,-0.4,0.42
0.88,-0.39,0.34
0.89,-0.38,0.31
0.88,-0.35,0.29
0.9,-0.35,0.33
0.91,-0.36,0.41
0.86,-0.39,0.49
0.82,-0.45,0.5
0.8,-0.48,0.5
0.73,-0.48,0.44
0.74,-0.46,0.49
0.71,-0.48,0.53
0.71,-0.48,0.61
0.71,-0.44,0.65
0.74,-0.42,0.59
0.81,-0.44,0.54
0.82,-0.49,0.5
0.73,-0.57,0.47
0.68,-0.62,0.51
0.65,-0.6,0.53
0.6,-0.63,0.5
0.61,-0.64,0.48
0.59,-0.61,0.46
0.55,-0.63,0.47
0.6,-0.65,0.46
0.65,-0.63,0.42
0.6,-0.66,0.4
0.58,-0.73,0.42
0.56,-0.74,0.39
0.51,-0.74,0.38
0.52,-0.76,0.42
0.55,-0.78,0.44
0.55,-0.77,0.4
0.54,-0.77,0.39
0.52,-0.81,0.4
0.41,-0.8,0.32
0.48,-0.78,0.4
0.51,-0.78,0.4
0.38,-0.78,0.38
0.34,-0.77,0.42
0.42,-0.8,0.48
0.49,-0.83,0.46
0.52,-0.85,0.39
0.47,-0.85,0.29
0.45,-0.8,0.26
0.54,-0.76,0.34
0.58,-0.77,0.43
0.57,-0.79,0.47
0.5,-0.81,0.45
0.43,-0.82,0.42
0.37,-0.8,0.35
0.45,-0.77,0.34
0.6,-0.77,0.41
0.62,-0.77,0.42
0.58,-0.8,0.41
0.49,-0.8,0.41
0.48,-0.77,0.43
0.53,-0.77,0.45
0.53,-0.78,0.44
0.49,-0.77,0.4
0.51,-0.76,0.4
0.55,-0.76,0.44
0.53,-0.75,0.43
0.55,-0.77,0.46
0.53,-0.78,0.46
0.5,-0.79,0.41
0.51,-0.78,0.38
0.53,-0.76,0.39
0.54,-0.75,0.39
0.58,-0.73,0.42
0.6,-0.73,0.45
0.57,-0.74,0.46
0.56,-0.74,0.47
0.56,-0.75,0.46
0.54,-0.75,0.43
0.55,-0.74,0.41
0.58,-0.74,0.42
0.58,-0.73,0.42
0.58,-0.72,0.43
0.58,-0.73,0.45
0.56,-0.73,0.45
0.54,-0.73,0.43
0.55,-0.73,0.42
0.58,-0.73,0.43
0.58,-0.73,0.42
0.58,-0.71,0.41
0.6,-0.7,0.45
0.6,-0.7,0.46
0.58,-0.7,0.47
0.57,-0.71,0.45
0.58,-0.71,0.45
0.61,-0.71,0.46
0.59,-0.71,0.44
0.59,-0.7,0.42
0.6,-0.7,0.42
0.6,-0.7,0.43
0.6,-0.69,0.43
0.63,-0.69,0.46
0.63,-0.7,0.47
0.6,-0.7,0.45
0.61,-0.7,0.44
0.61,-0.7,0.42
0.58,-0.7,0.39
0.61,-0.68,0.39
0.64,-0.67,0.42
0.64,-0.67,0.45
0.64,-0.69,0.45
0.63,-0.7,0.44
0.61,-0.7,0.42
0.62,-0.69,0.42
0.59,-0.69,0.39
0.6,-0.67,0.39
0.69,-0.66,0.43
0.66,-0.65,0.37
0.66,-0.62,0.36
0.73,-0.65,0.49
0.63,-0.68,0.51
0.59,-0.68,0.42
0.59,-0.65,0.38
0.68,-0.63,0.45
0.7,-0.63,0.49
0.65,-0.61,0.47
0.68,-0.61,0.46
0.71,-0.61,0.44
0.64,-0.59,0.42
0.68,-0.59,0.48
0.68,-0.59,0.5
0.64,-0.6,0.5
0.69,-0.59,0.55
0.71,-0.58,0.56
0.64,-0.58,0.51
0.65,-0.57,0.51
0.68,-0.57,0.54
0.64,-0.57,0.5
0.65,-0.55,0.47
0.73,-0.53,0.48
0.76,-0.51,0.52
0.73,-0.52,0.54
0.69,-0.55,0.53
0.73,-0.54,0.54
0.73,-0.52,0.51
0.69,-0.52,0.51
0.67,-0.54,0.53
0.7,-0.53,0.52
0.78,-0.5,0.52
0.78,-0.49,0.5
0.74,-0.48,0.46
0.76,-0.46,0.49
0.76,-0.46,0.55
0.72,-0.47,0.58
0.71,-0.47,0.58
0.69,-0.47,0.57
0.71,-0.48,0.57
0.76,-0.48,0.56
0.73,-0.45,0.5
0.75,-0.44,0.51
0.77,-0.45,0.56
0.72,-0.45,0.56
0.73,-0.45,0.54
0.75,-0.45,0.54
0.76,-0.43,0.5
0.78,-0.42,0.5
0.78,-0.43,0.57
0.72,-0.45,0.56
0.73,-0.45,0.53
0.77,-0.42,0.56
0.78,-0.41,0.55
0.8,-0.4,0.57
0.74,-0.4,0.53
0.74,-0.41,0.53
0.76,-0.41,0.57
0.74,-0.4,0.56
0.75,-0.41,0.55
0.75,-0.39,0.54
0.76,-0.38,0.55
0.76,-0.37,0.56
0.71,-0.36,0.5
0.74,-0.34,0.48
0.83,-0.32,0.57
0.8,-0.31,0.58
0.77,-0.32,0.55
0.82,-0.31,0.58
0.83,-0.3,0.59
0.78,-0.33,0.57
0.79,-0.34,0.57
0.79,-0.32,0.53
0.77,-0.32,0.47
0.83,-0.3,0.52
0.87,-0.29,0.57
0.86,-0.31,0.55
0.87,-0.3,0.52
0.85,-0.28,0.5
0.82,-0.29,0.48
0.83,-0.29,0.47
0.8,-0.3,0.46
0.84,-0.28,0.47
0.88,-0.24,0.49
0.85,-0.24,0.48
0.83,-0.24,0.5
0.85,-0.22,0.53
0.83,-0.22,0.52
0.85,-0.29,0.39
0.94,-0.26,0.34
0.95,-0.19,0.44
0.94,-0.2,0.46
0.92,-0.18,0.46
0.91,-0.17,0.47
0.91,-0.17,0.47
0.91,-0.17,0.47
0.91,-0.17,0.46
0.9,-0.17,0.45
0.9,-0.16,0.44
0.92,-0.15,0.43
0.95,-0.15,0.42
0.97,-0.14,0.4
0.98,-0.14,0.39
0.97,-0.13,0.38
0.96,-0.13,0.39
0.94,-0.14,0.39
0.91,-0.15,0.41
0.91,-0.14,0.41
0.92,-0.14,0.41
0.92,-0.14,0.4
0.93,-0.14,0.39
0.95,-0.13,0.39
0.95,-0.13,0.39
0.94,-0.14,0.39
0.93,-0.13,0.39
0.93,-0.11,0.39
0.93,-0.11,0.39
0.92,-0.11,0.38
0.91,-0.11,0.38
0.9,-0.11,0.38
0.92,-0.1,0.41
0.93,-0.1,0.42
0.96,-0.09,0.39
0.97,-0.08,0.39
0.97,-0.07,0.38
0.97,-0.05,0.38
0.96,-0.05,0.39
0.96,-0.06,0.4
0.96,-0.06,0.4
0.95,-0.07,0.41
0.95,-0.06,0.4
0.94,-0.06,0.39
0.93,-0.07,0.38
0.97,-0.06,0.36
0.98,-0.05,0.35
0.98,-0.05,0.34
0.98,-0.04,0.34
0.98,-0.03,0.34
0.96,-0.03,0.35
0.95,-0.04,0.37
0.94,-0.04,0.38
0.94,-0.05,0.38
0.94,-0.05,0.38
0.95,-0.05,0.37
0.96,-0.05,0.36
0.97,-0.04,0.36
0.96,-0.04,0.37
0.94,-0.04,0.38
0.94,-0.04,0.38
0.95,-0.04,0.37
0.95,-0.04,0.37
0.95,-0.04,0.37
0.96,-0.04,0.37
0.95,-0.04,0.37
0.96,-0.04,0.37
0.95,-0.03,0.37
0.95,-0.03,0.36
0.95,-0.03,0.36
0.95,-0.03,0.36
0.96,-0.03,0.36
0.96,-0.03,0.36
0.96,-0.03,0.36
0.96,-0.02,0.36
0.96,-0.02,0.36
0.95,-0.02,0.36
0.96,-0.02,0.36
0.96,-0.02,0.36
0.95,-0.03,0.36
0.95,-0.03,0.36
0.96,-0.03,0.36
0.96,-0.03,0.36
0.96,-0.03,0.36
0.96,-0.03,0.35
0.97,-0.02,0.35
0.97,-0.01,0.34
0.97,-0.01,0.34
0.97,-0.01,0.34
0.96,-0.02,0.34
0.96,-0.02,0.34
0.96,-0.03,0.35
0.96,-0.03,0.35
0.96,-0.03,0.34
0.97,-0.03,0.34
0.97,-0.03,0.34
0.97,-0.03,0.34
0.97,-0.03,0.34
0.96,-0.02,0.34
0.96,-0.02,0.34
0.96,-0.02,0.34
0.96,-0.02,0.34
0.96,-0.03,0.34
0.96,-0.03,0.34
0.96,-0.03,0.34
0.96,-0.03,0.34
0.96,-0.02,0.34
0.96,-0.03,0.34
0.96,-0.03,0.34
0.97,-0.03,0.34
0.96,-0.02,0.34
0.96,-0.03,0.34
0.96,-0.03,0.33
0.95,-0.03,0.34
0.96,-0.02,0.35
0.97,-0.02,0.34
0.97,-0.02,0.34
0.97,-0.03,0.34
0.97,-0.03,0.33
0.97,-0.03,0.33
0.97,-0.03,0.33
0.96,-0.03,0.33
0.96,-0.03,0.33
0.96,-0.03,0.33
0.97,-0.02,0.33
0.97,-0.02,0.33
0.97,-0.02,0.33
0.97,-0.02,0.33
0.97,-0.02,0.33
0.97,-0.02,0.33
0.96,-0.02,0.33
0.96,-0.02,0.33
0.96,-0.02,0.33
0.97,-0.02,0.33
0.97,-0.03,0.33
0.97,-0.02,0.33
0.96,-0.02,0.34
0.96,-0.02,0.34
0.96,-0.02,0.33
0.96,-0.02,0.33
0.97,-0.02,0.33
0.97,-0.02,0.34
0.97,-0.02,0.34
0.97,-0.02,0.34
0.97,-0.02,0.34
0.96,-0.02,0.34
0.96,-0.02,0.33
0.96,-0.02,0.33
0.97,-0.02,0.34
0.97,-0.02,0.33
0.96,-0.02,0.34
0.96,-0.02,0.34
0.97,-0.02,0.34
0.97,-0.02,0.33
0.97,-0.02,0.33
0.97,-0.02,0.33
0.97,-0.02,0.33
0.96,-0.02,0.33
0.96,-0.02,0.33
0.96,-0.02,0.33
0.97,-0.02,0.33
0.98,-0.02,0.33
0.97,-0.02,0.33
0.97,-0.02,0.33
0.97,-0.02,0.33
0.97,-0.03,0.33
0.97,-0.03,0.33
0.97,-0.03,0.33
0.97,-0.02,0.33
0.97,-0.02,0.33
0.97,-0.02,0.33
0.97,-0.02,0.33
0.97,-0.03,0.33
0.97,-0.03,0.33
0.97,-0.03,0.33
0.97,-0.03,0.33
0.97,-0.03,0.33
0.97,-0.03,0.33
0.97,-0.02,0.33
0.97,-0.02,0.33
0.97,-0.02,0.32
0.97,-0.02,0.32
0.97,-0.02,0.33
0.97,-0.03,0.33
0.97,-0.03,0.33
0.97,-0.03,0.33
0.97,-0.03,0.33
0.97,-0.03,0.33
0.97,-0.03,0.32
0.97,-0.03,0.32
0.97,-0.03,0.33
0.97,-0.03,0.33
0.96,-0.03,0.33
0.96,-0.03,0.33
0.96,-0.03,0.33
0.97,-0.03,0.32
0.96,-0.03,0.32
0.97,-0.03,0.32
0.98,-0.03,0.32
0.98,-0.03,0.31
0.98,-0.02,0.32
0.97,-0.02,0.32
0.97,-0.03,0.32
0.97,-0.02,0.32
0.97,-0.02,0.32
0.97,-0.03,0.32
0.97,-0.03,0.32
0.97,-0.03,0.32
0.97,-0.03,0.32
0.97,-0.03,0.32
0.97,-0.03,0.32
0.97,-0.03,0.32
0.97,-0.03,0.32
0.97,-0.03,0.32
0.97,-0.03,0.32
0.97,-0.02,0.31
0.97,-0.03,0.31
0.97,-0.03,0.32
0.97,-0.03,0.32
0.97,-0.03,0.31
0.97,-0.03,0.31
0.97,-0.03,0.31
0.97,-0.02,0.31
0.97,-0.02,0.31
0.97,-0.02,0.31
0.97,-0.02,0.31
0.97,-0.02,0.31
0.97,-0.02,0.31
0.97,-0.03,0.31
0.98,-0.03,0.31
0.97,-0.03,0.32
0.97,-0.03,0.31
0.97,-0.03,0.31
0.97,-0.03,0.31
0.97,-0.03,0.31
0.97,-0.02,0.31
0.97,-0.02,0.31
0.97,-0.02,0.31
0.97,-0.03,0.31
0.97,-0.03,0.31
0.96,-0.03,0.31
0.97,-0.03,0.31
0.97,-0.03,0.31
0.97,-0.03,0.31
0.97,-0.02,0.31
0.97,-0.03,0.31
0.98,-0.03,0.31
0.98,-0.03,0.31
0.98,-0.03,0.31
0.98,-0.03,0.31
0.97,-0.03,0.3
0.98,-0.03,0.31
0.98,-0.03,0.3
0.98,-0.03,0.31
0.98,-0.03,0.3
0.98,-0.03,0.3
0.98,-0.03,0.31
0.98,-0.03,0.31
0.98,-0.02,0.3
0.98,-0.02,0.31
0.98,-0.02,0.31
0.97,-0.02,0.31
0.97,-0.02,0.31
0.98,-0.03,0.31
0.97,-0.02,0.31
0.97,-0.02,0.3
0.97,-0.02,0.31
0.98,-0.02,0.31
0.98,-0.02,0.3
0.98,-0.02,0.3
0.98,-0.02,0.3
0.98,-0.02,0.3
0.98,-0.02,0.3
0.97,-0.03,0.31
0.97,-0.03,0.31
0.98,-0.03,0.3
0.98,-0.03,0.3
0.98,-0.03,0.3
0.98,-0.03,0.3
0.98,-0.03,0.3
0.98,-0.03,0.29
0.98,-0.02,0.3
0.98,-0.02,0.3
0.98,-0.02,0.3
0.98,-0.02,0.3
0.98,-0.02,0.3
0.98,-0.02,0.3
0.97,-0.02,0.3
0.98,-0.03,0.3
0.98,-0.03,0.3
0.98,-0.02,0.3
0.98,-0.02,0.3
0.98,-0.02,0.3
0.98,-0.02,0.3
0.98,-0.02,0.31
0.98,-0.02,0.31
0.97,-0.02,0.3
0.97,-0.02,0.3
0.97,-0.02,0.3
0.97,-0.03,0.31
0.98,-0.03,0.31
0.97,-0.02,0.3
0.97,-0.02,0.3
0.97,-0.03,0.31
0.98,-0.03,0.31
0.98,-0.03,0.3
0.98,-0.02,0.3
0.98,-0.02,0.3
0.97,-0.03,0.3
0.97,-0.03,0.3
0.98,-0.03,0.31
0.98,-0.03,0.31
0.98,-0.03,0.3
0.97,-0.02,0.3
0.98,-0.02,0.31
0.98,-0.02,0.31
0.98,-0.03,0.31
0.97,-0.03,0.3
0.98,-0.03,0.3
0.98,-0.02,0.31
0.98,-0.02,0.3
0.97,-0.03,0.3
0.97,-0.03,0.3
0.97,-0.03,0.3
0.98,-0.03,0.3
0.98,-0.03,0.31
0.98,-0.03,0.3
0.98,-0.03,0.3
0.97,-0.03,0.3
0.97,-0.03,0.3
0.98,-0.03,0.3
0.98,-0.03,0.3
0.97,-0.02,0.3
0.98,-0.03,0.3
0.97,-0.03,0.3
0.97,-0.02,0.3
0.97,-0.02,0.3
0.98,-0.03,0.3
0.98,-0.03,0.3
0.98,-0.03,0.3
0.98,-0.03,0.3
0.98,-0.03,0.3
0.98,-0.03,0.3
0.98,-0.03,0.3
0.98,-0.03,0.31
0.97,-0.03,0.31
0.97,-0.03,0.31
0.98,-0.03,0.31
0.98,-0.03,0.31
0.97,-0.03,0.3
0.97,-0.03,0.31
0.97,-0.03,0.31
0.98,-0.03,0.31
0.98,-0.03,0.3
0.98,-0.03,0.31
0.98,-0.03,0.31
0.98,-0.03,0.31
0.97,-0.03,0.31
0.97,-0.03,0.31
0.97,-0.03,0.31
0.97,-0.03,0.31
0.97,-0.03,0.31
0.97,-0.03,0.31
0.97,-0.03,0.31
0.97,-0.03,0.31
0.97,-0.03,0.31
0.98,-0.03,0.31
0.98,-0.03,0.31
0.97,-0.03,0.31
0.97,-0.03,0.31
0.98,-0.03,0.31
0.98,-0.03,0.31
0.98,-0.03,0.31
0.98,-0.03,0.31
0.98,-0.03,0.31
0.98,-0.03,0.31
0.98,-0.03,0.31
0.98,-0.03,0.31
0.98,-0.03,0.31
0.98,-0.03,0.31
0.98,-0.03,0.31
0.98,-0.03,0.31
0.98,-0.03,0.31
0.98,-0.03,0.31
0.97,-0.03,0.31
0.97,-0.03,0.31
0.97,-0.03,0.31
0.97,-0.03,0.31
0.97,-0.03,0.31
0.97,-0.03,0.31
0.97,-0.03,0.31
0.97,-0.03,0.31
0.98,-0.03,0.31
0.98,-0.03,0.31
0.98,-0.03,0.31
0.98,-0.03,0.31
0.98,-0.03,0.31
0.98,-0.03,0.31
0.98,-0.03,0.31
0.98,-0.03,0.31
0.98,-0.03,0.31
0.97,-0.03,0.31
0.97,-0.03,0.31
0.97,-0.03,0.3
0.97,-0.03,0.3
0.97,-0.03,0.31
0.97,-0.03,0.31
0.97,-0.03,0.31
0.97,-0.03,0.31
0.97,-0.03,0.31
0.98,-0.03,0.31
0.97,-0.03,0.31
0.97,-0.03,0.31
0.97,-0.03,0.31
0.97,-0.03,0.3
0.97,-0.03,0.3
0.98,-0.03,0.31
0.99,-0.02,0.33
0.99,-0.02,0.33
0.98,-0.03,0.3
0.97,-0.03,0.3
0.97,-0.03,0.3
0.98,-0.03,0.3
0.97,-0.03,0.3
0.97,-0.03,0.3
0.98,-0.03,0.3
0.98,-0.03,0.3
0.98,-0.03,0.3
0.98,-0.03,0.3
0.98,-0.03,0.3
0.98,-0.03,0.3
0.98,-0.03,0.3
0.98,-0.03,0.3
0.98,-0.03,0.3
0.98,-0.02,0.3
0.98,-0.02,0.3
0.97,-0.02,0.3
0.97,-0.03,0.3
0.97,-0.03,0.3
0.98,-0.03,0.3
0.98,-0.03,0.3
0.98,-0.03,0.3
0.98,-0.03,0.3
0.98,-0.03,0.3
0.98,-0.03,0.3
0.98,-0.03,0.3
0.98,-0.03,0.3
0.97,-0.03,0.3
0.98,-0.03,0.3
0.98,-0.03,0.3
0.98,-0.03,0.3
0.97,-0.03,0.3
0.97,-0.03,0.3
0.98,-0.03,0.31
0.98,-0.03,0.31
0.98,-0.03,0.3
0.97,-0.03,0.3
0.98,-0.03,0.3
0.98,-0.03,0.3
0.98,-0.03,0.3
0.98,-0.03,0.3
0.98,-0.03,0.3
0.97,-0.03,0.3
0.97,-0.03,0.3
0.98,-0.03,0.3
0.98,-0.03,0.3
0.98,-0.03,0.3
0.98,-0.03,0.3
0.98,-0.03,0.3
0.98,-0.03,0.3
0.98,-0.03,0.3
0.98,-0.03,0.3
0.98,-0.03,0.3
0.98,-0.03,0.3
0.97,-0.03,0.3
0.98,-0.03,0.3
0.98,-0.03,0.3
0.97,-0.03,0.3
0.98,-0.03,0.3
0.98,-0.03,0.3
0.98,-0.03,0.3
0.98,-0.03,0.3
0.98,-0.03,0.3
0.98,-0.03,0.3
0.98,-0.03,0.3
0.98,-0.03,0.3
0.98,-0.03,0.3
0.98,-0.03,0.3
0.98,-0.03,0.3
0.98,-0.03,0.3
0.98,-0.03,0.3
0.98,-0.03,0.3
0.98,-0.03,0.3
0.98,-0.03,0.3
0.98,-0.03,0.3
0.98,-0.03,0.3
0.98,-0.03,0.3
0.98,-0.03,0.3
0.98,-0.03,0.3
0.98,-0.03,0.3
0.98,-0.03,0.3
0.98,-0.03,0.3
0.98,-0.03,0.3
0.98,-0.03,0.3
0.98,-0.03,0.3
0.97,-0.03,0.3
0.97,-0.03,0.3
0.98,-0.03,0.3
0.97,-0.03,0.3
0.98,-0.03,0.3
0.98,-0.03,0.3
0.98,-0.03,0.3
0.98,-0.03,0.3
0.98,-0.03,0.3
0.98,-0.03,0.3
0.98,-0.03,0.3
0.98,-0.03,0.3
0.98,-0.03,0.3
0.98,-0.03,0.3
0.98,-0.03,0.3
0.98,-0.03,0.3
0.98,-0.03,0.3
0.97,-0.03,0.3
0.97,-0.03,0.3
0.97,-0.03,0.3
0.97,-0.03,0.3
0.98,-0.03,0.3
0.98,-0.03,0.3
0.98,-0.03,0.3
0.98,-0.03,0.3
0.98,-0.03,0.3
0.98,-0.03,0.3
0.97,-0.03,0.3
0.97,-0.03,0.3
0.97,-0.03,0.31
0.97,-0.03,0.3
0.98,-0.03,0.3
0.98,-0.03,0.3
0.97,-0.03,0.31
0.97,-0.03,0.31
0.97,-0.03,0.31
0.97,-0.03,0.31
0.97,-0.03,0.31
0.97,-0.03,0.31
0.97,-0.03,0.31
0.97,-0.03,0.31
0.97,-0.03,0.31
0.97,-0.03,0.31
0.98,-0.03,0.31
0.98,-0.03,0.31
0.98,-0.03,0.31
0.98,-0.03,0.31
0.98,-0.03,0.31
0.98,-0.03,0.31
0.98,-0.03,0.31
0.97,-0.03,0.31
0.97,-0.03,0.31
0.97,-0.03,0.31
0.97,-0.03,0.31
0.97,-0.03,0.31
0.98,-0.03,0.31
0.98,-0.03,0.31
0.98,-0.03,0.31
0.97,-0.03,0.31
0.97,-0.03,0.31
0.98,-0.03,0.31
0.98,-0.03,0.31
0.98,-0.03,0.31
0.97,-0.03,0.31
0.98,-0.03,0.31
0.98,-0.03,0.31
0.98,-0.03,0.31
0.98,-0.03,0.31
0.98,-0.03,0.31
0.97,-0.03,0.31
0.97,-0.03,0.31
0.98,-0.03,0.31
0.98,-0.03,0.31
0.98,-0.03,0.31
0.98,-0.03,0.31
0.97,-0.03,0.31
0.97,-0.04,0.29
0.97,-0.04,0.29
0.97,-0.03,0.31
0.97,-0.03,0.32
0.98,-0.03,0.31
0.98,-0.03,0.32
0.98,-0.03,0.32
0.97,-0.04,0.32
0.96,-0.04,0.32
0.97,-0.04,0.33
0.98,-0.03,0.32
0.98,-0.02,0.31
0.99,-0.01,0.31
0.98,-0.02,0.33
0.97,-0.03,0.33
0.96,-0.03,0.33
0.97,-0.02,0.32
0.99,-0.01,0.31
0.99,-0.01,0.32
0.97,-0.03,0.33
0.96,-0.04,0.35
0.96,-0.04,0.37
0.96,-0.04,0.37
0.96,-0.03,0.35
0.97,-0.04,0.32
0.97,-0.06,0.32
0.96,-0.09,0.33
0.94,-0.08,0.34
0.97,-0.03,0.33
1.02,0.02,0.28
1.02,0.06,0.27
0.96,0.06,0.3
0.89,0.03,0.38
0.86,-0.01,0.48
0.9,-0.03,0.51
0.94,-0.02,0.46
0.96,0,0.42
0.96,0,0.39
0.93,0,0.39
0.93,-0.01,0.42
0.93,0.01,0.4
0.96,0.04,0.38
0.99,0.03,0.39
0.95,0,0.4
0.91,-0.04,0.45
0.9,-0.07,0.48
0.87,-0.07,0.49
0.88,-0.05,0.48
0.95,0,0.42
0.98,0.03,0.38
0.97,0.01,0.4
0.92,-0.01,0.42
0.85,-0.02,0.47
0.88,-0.02,0.5
0.93,-0.01,0.47
0.96,0,0.45
1,0.03,0.41
0.97,0.05,0.41
0.9,0.02,0.47
0.87,0.01,0.5
0.86,-0.01,0.52
0.83,-0.03,0.55
0.88,-0.02,0.54
0.92,-0.03,0.49
0.88,-0.01,0.48
0.81,0.01,0.52
0.84,0.05,0.53
0.92,0.1,0.45
1,0.1,0.43
1.04,0.06,0.46
0.97,0.03,0.48
0.85,-0.01,0.53
0.75,-0.06,0.61
0.66,-0.08,0.67
0.69,-0.07,0.66
0.83,-0.01,0.55
0.93,0.06,0.46
0.99,0.05,0.46
0.96,0.03,0.51
0.84,-0.01,0.56
0.81,-0.03,0.58
0.89,0.01,0.53
0.9,0.03,0.5
0.88,0.04,0.49
0.85,0.02,0.51
0.84,0,0.54
0.87,-0.01,0.55
0.88,-0.01,0.51
0.91,-0.01,0.5
0.92,-0.01,0.51
0.89,0.01,0.52
0.82,0.1,0.5
0.79,0.12,0.53
0.81,0.06,0.56
0.89,0.03,0.53
0.93,0.01,0.51
0.93,0,0.48
0.89,0.01,0.49
0.84,-0.01,0.54
0.84,-0.04,0.53
0.89,0.01,0.49
0.96,0.05,0.47
0.99,0.07,0.42
0.98,0.13,0.38
0.97,0.17,0.4
0.93,0.13,0.45
0.88,0.07,0.49
0.87,0.03,0.52
0.88,0.02,0.5
0.9,0.03,0.48
0.91,0.03,0.48
0.91,0.02,0.49
0.88,0.02,0.49
0.88,0.04,0.49
0.92,0.05,0.48
0.91,0.05,0.47
0.89,0.04,0.52
0.86,0.02,0.51
0.85,0.03,0.51
0.9,0.02,0.5
0.9,0.02,0.48
0.9,0.04,0.48
0.93,0.03,0.48
0.91,0.02,0.49
0.89,0.02,0.5
0.91,0.03,0.5
0.91,0.05,0.47
0.9,0.06,0.44
0.9,0.07,0.43
0.9,0.08,0.42
0.9,0.07,0.44
0.9,0.04,0.5
0.91,0.02,0.51
0.91,0.02,0.49
0.93,0.03,0.48
0.94,0.05,0.46
0.92,0.06,0.45
0.88,0.06,0.46
0.88,0.06,0.48
0.89,0.06,0.49
0.87,0.05,0.51
0.87,0.03,0.52
0.87,0.02,0.51
0.84,0.02,0.53
0.83,0.03,0.54
0.84,0.03,0.53
0.88,0.04,0.52
0.91,0.05,0.5
0.93,0.06,0.48
0.92,0.05,0.48
0.9,0.04,0.5
0.88,0.04,0.51
0.86,0.04,0.53
0.85,0.03,0.54
0.86,0.04,0.53
0.87,0.05,0.53
0.89,0.04,0.53
0.88,0.04,0.52
0.86,0.05,0.51
0.86,0.05,0.5
0.89,0.05,0.5
0.9,0.05,0.5
0.89,0.06,0.48
0.88,0.07,0.48
0.88,0.05,0.5
0.87,0.05,0.52
0.87,0.05,0.54
0.87,0.05,0.53
0.89,0.06,0.52
0.88,0.06,0.53
0.87,0.04,0.53
0.86,0.03,0.53
0.86,0.02,0.53
0.85,0.03,0.53
0.87,0.04,0.56
0.92,0.03,0.58
0.96,0,0.59
0.95,-0.01,0.58
0.91,0.01,0.54
0.9,-0.03,0.56
0.9,-0.05,0.61
0.89,-0.04,0.57
0.85,0.01,0.56
0.9,0.06,0.61
0.99,0.08,0.65
1.02,0.07,0.66
0.97,0.03,0.67
0.87,-0.08,0.7
0.75,-0.11,0.72
0.73,-0.06,0.72
0.78,-0.11,0.67
0.85,-0.15,0.61
0.87,-0.16,0.52
0.87,-0.18,0.51
0.89,-0.23,0.58
0.91,-0.35,0.68
0.86,-0.31,0.66
0.78,-0.34,0.65
0.74,-0.38,0.67
0.78,-0.42,0.7
0.85,-0.48,0.71
0.89,-0.49,0.71
0.91,-0.52,0.72
0.97,-0.6,0.75
0.93,-0.62,0.73
0.81,-0.62,0.69
0.75,-0.65,0.67
0.78,-0.62,0.63
0.76,-0.69,0.43
0.67,-0.66,0.44
0.63,-0.6,0.41
0.54,-0.71,0.22
0.43,-0.74,0.27
0.45,-0.73,0.28
0.49,-0.72,0.27
0.49,-0.69,0.27
0.52,-0.67,0.28
0.57,-0.66,0.3
0.6,-0.67,0.31
0.59,-0.68,0.31
0.57,-0.69,0.3
0.53,-0.74,0.3
0.52,-0.74,0.28
0.55,-0.72,0.26
0.6,-0.69,0.27
0.65,-0.67,0.3
0.67,-0.65,0.34
0.67,-0.64,0.37
0.66,-0.63,0.39
0.66,-0.63,0.4
0.65,-0.63,0.4
0.64,-0.62,0.4
0.65,-0.61,0.4
0.67,-0.59,0.41
0.67,-0.57,0.43
0.65,-0.57,0.46
0.65,-0.57,0.47
0.66,-0.57,0.47
0.65,-0.56,0.49
0.64,-0.58,0.51
0.64,-0.61,0.51
0.65,-0.61,0.49
0.66,-0.6,0.47
0.67,-0.59,0.44
0.66,-0.58,0.42
0.67,-0.58,0.41
0.7,-0.58,0.42
0.74,-0.47,0.48
0.68,-0.66,0.53
0.71,-0.64,0.56
0.72,-0.64,0.56
0.73,-0.67,0.56
0.74,-0.68,0.55
0.75,-0.67,0.53
0.79,-0.65,0.51
0.82,-0.65,0.51
0.84,-0.66,0.54
0.86,-0.65,0.6
0.91,-0.59,0.67
0.96,-0.56,0.75
0.89,-0.46,0.77
1.03,-0.23,0.89
1.09,-0.48,0.95
0.86,-0.93,0.86
0.69,-0.89,0.75
0.6,-0.6,0.61
0.65,-0.42,0.58
0.78,-0.35,0.67
0.79,-0.49,0.88
0.82,-0.5,0.97
0.95,-0.36,0.89
0.95,-0.42,0.86
0.92,-0.45,0.82
0.95,-0.41,0.73
1.09,-0.4,0.73
1.11,-0.42,0.76
1.16,-0.44,0.81
1.15,-0.42,0.84
1.12,-0.39,0.83
1.08,-0.33,0.79
1.03,-0.26,0.75
1.03,-0.23,0.69
1.04,-0.21,0.64
0.99,-0.18,0.61
0.94,-0.17,0.59
0.95,-0.14,0.57
0.94,-0.1,0.56
0.87,-0.06,0.52
0.79,-0.06,0.48
0.83,-0.05,0.47
0.93,-0.04,0.47
0.95,-0.02,0.49
0.92,-0.01,0.51
0.88,0.01,0.5
0.83,0.06,0.49
0.79,0.09,0.48
0.77,0.11,0.45
0.8,0.14,0.44
0.79,0.17,0.44
0.75,0.22,0.41
0.71,0.24,0.4
0.67,0.24,0.39
0.64,0.25,0.38
0.63,0.27,0.4
0.61,0.28,0.41
0.56,0.3,0.41
0.51,0.33,0.41
0.5,0.35,0.41
0.5,0.36,0.42
0.53,0.36,0.43
0.56,0.36,0.44
0.57,0.36,0.44
0.57,0.37,0.44
0.56,0.38,0.46
0.51,0.4,0.5
0.46,0.41,0.53
0.44,0.41,0.55
0.43,0.4,0.58
0.44,0.39,0.61
0.44,0.39,0.64
0.44,0.38,0.68
0.43,0.37,0.7
0.41,0.38,0.73
0.4,0.38,0.75
0.39,0.37,0.74
0.39,0.36,0.74
0.35,0.35,0.75
0.26,0.35,0.76
0.16,0.35,0.74
0.09,0.36,0.67
0.12,0.34,0.61
0.21,0.31,0.57
0.28,0.3,0.56
0.3,0.28,0.62
0.36,0.25,0.66
0.39,0.22,0.69
0.34,0.17,0.72
0.29,0.13,0.74
0.27,0.13,0.76
0.29,0.14,0.78
0.34,0.14,0.8
0.46,0.1,0.84
0.54,0.06,0.87
0.53,0.04,0.88
0.49,0.04,0.88
0.46,0.05,0.83
0.44,0.06,0.79
0.4,0.08,0.78
0.36,0.08,0.77
0.31,0.08,0.77
0.28,0.08,0.78
0.27,0.06,0.89
0.28,0.03,0.96
0.26,0.04,0.97
0.27,0.07,0.93
0.36,0.1,0.93
0.46,0.1,0.97
0.52,0.15,1.1
0.5,0.25,1.3
0.41,0.34,1.37
0.56,0.31,1.28
0.84,0.21,1.16
0.8,0.18,1.02
0.63,0.24,0.9
0.58,0.34,0.84
0.56,0.41,0.82
0.53,0.43,0.82
0.49,0.42,0.82
0.45,0.43,0.78
0.42,0.45,0.75
0.39,0.49,0.75
0.39,0.5,0.73
0.44,0.49,0.72
0.49,0.48,0.72
0.53,0.46,0.72
0.52,0.44,0.78
0.44,0.43,0.87
0.34,0.39,0.9
0.27,0.38,0.91
0.28,0.37,0.89
0.33,0.37,0.88
0.35,0.38,0.89
0.37,0.38,0.87
0.35,0.38,0.84
0.33,0.39,0.84
0.31,0.4,0.86
0.26,0.41,0.89
0.22,0.4,0.89
0.21,0.42,0.88
0.18,0.44,0.86
0.17,0.45,0.86
0.2,0.46,0.86
0.24,0.46,0.85
0.27,0.45,0.86
0.28,0.45,0.87
0.27,0.44,0.87
0.25,0.42,0.87
0.25,0.41,0.87
0.28,0.39,0.86
0.33,0.39,0.85
0.39,0.4,0.83
0.41,0.4,0.82
0.43,0.41,0.8
0.46,0.43,0.78
