Acc_x,Acc_y,Acc_z
0,0,0
0,0,0
0,0,0
0,0,0
0,0,0
0,0,0
0,0,0
0,0,0
0,0,0
0,0,0
0,0,0
0,0,0
0,0,0
0,0,0
0,0,0
0,0,0
0,0,0
0,0,0
0,0,0
0,0,0
0,0,0
0,0,0
0,0,0
0,0,0
0,0,0
0,0,0
0,0,0
0,0,0
0,0,0
0,0,0
0,0,0
0,0,0
0,0,0
0,0,0
0,0,0
0,0,0
0,0,0
0,0,0
0,0,0
0,0,0
0,0,0
0,0,0
0,0,0
0,0,0
0,0,0
0,0,0
0,0,0
0,0,0
0,0,0
0,0,0
0,0,0
0,0,0
0,0,0
0,0,0
0,0,0
0,0,0
0,0,0
0,0,0
0,0,0
0,0,0
0,0,0
0,0,0
0,0,0
0,0,0
0,0,0
0,0,0
0,0,0
0,0,0
0,0,0
0,0,0
0,0,0
0,0,0
0,0,0
0,0,0
0,0,0
0,0,0
0,0,0
0,0,0
0,0,0
0,0,0
0,0,0
0,0,0
0,0,0
0,0,0
0,0,0
0,0,0
0,0,0
0,0,0
0,0,0
0,0,0
0,0,0
0,0,0
0,0,0
0,0,0
0,0,0
0,0,0
0,0,0
0,0,0
0,0,0
0,0,0
0,0,0
0,0,0
0,0,0
0,0,0
0,0,0
0,0,0
0,0,0
0,0,0
0,0,0
0,0,0
0,0,0
0,0,0
0,0,0
0,0,0
0,0,0
0,0,0
0,0,0
0,0,0
0,0,0
0,0,0
0,0,0
0,0,0
0,0,0
0,0,0
0,0,0
0,0,0
0,0,0
0,0,0
0,0,0
0,0,0
0,0,0
0,0,0
0,0,0
0,0,0
0,0,0
0,0,0
0,0,0
0,0,0
0,0,0
0,0,0
0,0,0
0,0,0
0,0,0
0,0,0
0,0,0
0,0,0
0,0,0
0,0,0
0,0,0
0,0,0
0,0,0
0,0,0
0,0,0
0,0,0
0,0,0
0,0,0
0,0,0
0,0,0
0,0,0
0,0,0
0,0,0
0,0,0
0,0,0
0,0,0
0,0,0
0,0,0
0,0,0
0,0,0
0,0,0
0,0,0
0,0,0
0,0,0
0,0,0
0,0,0
0,0,0
0,0,0
0,0,0
0,0,0
0,0,0
0,0,0
0,0,0
0,0,0
0,0,0
0,0,0
0,0,0
0,0,0
0,0,0
0,0,0
0,0,0
0,0,0
0,0,0
0,0,0
0,0,0
0,0,0
0,0,0
0,0,0
0,0,0
0,0,0
0,0,0
0,0,0
0,0,0
0,0,0
0,0,0
0,0,0
0,0,0
0,0,0
0,0,0
0,0,0
0,0,0
0,0,0
0,0,0
0,0,0
0,0,0
0,0,0
0,0,0
0,0,0
0,0,0
0,0,0
0,0,0
0,0,0
0,0,0
0,0,0
0,0,0
0,0,0
0,0,0
0,0,0
0,0,0
0,0,0
0,0,0
0,0,0
0,0,0
0,0,0
0,0,0
0,0,0
0,0,0
0,0,0
0,0,0
0,0,0
0,0,0
0,0,0
0,0,0
0,0,0
0,0,0
0,0,0
0,0,0
0,0,0
0,0,0
0,0,0
0,0,0
0,0,0
0,0,0
0,0,0
0,0,0
0,0,0
0,0,0
0,0,0
0,0,0
0,0,0
0,0,0
0,0,0
0,0,0
0,0,0
0,0,0
0,0,0
0,0,0
0,0,0
0,0,0
0,0,0
0,0,0
0,0,0
0,0,0
0,0,0
0,0,0
0,0,0
0,0,0
0,0,0
0,0,0
0,0,0
0,0,0
0,0,0
0,0,0
0,0,0
0,0,0
0,0,0
0,0,0
0,0,0
0,0,0
0,0,0
0,0,0
0,0,0
0,0,0
0,0,0
0,0,0
0,0,0
0,0,0
0,0,0
0,0,0
0,0,0
0,0,0
0,0,0
0,0,0
0,0,0
0,0,0
0,0,0
0,0,0
0,0,0
0,0,0
0,0,0
0,0,0
0,0,0
0,0,0
0,0,0
0,0,0
0,0,0
0,0,0
0,0,0
0,0,0
0,0,0
0,0,0
0,0,0
0,0,0
0,0,0
0,0,0
0,0,0
0,0,0
0,0,0
0,0,0
0,0,0
0,0,0
0,0,0
0,0,0
0,0,0
0,0,0
0,0,0
0,0,0
0,0,0
0,0,0
0,0,0
0,0,0
0,0,0
0,0,0
0,0,0
0,0,0
0,0,0
0,0,0
0,0,0
0,0,0
0,0,0
0,0,0
0,0,0
0,0,0
0,0,0
0,0,0
0,0,0
0,0,0
0,0,0
0,0,0
0,0,0
0,0,0
0,0,0
0,0,0
0,0,0
0,0,0
0,0,0
0,0,0
0,0,0
0,0,0
0,0,0
0,0,0
0,0,0
0,0,0
0,0,0
0,0,0
0,0,0
0,0,0
0,0,0
0,0,0
0,0,0
0,0,0
0,0,0
0,0,0
0,0,0
0,0,0
0,0,0
0,0,0
0,0,0
0,0,0
0,0,0
0,0,0
0,0,0
0,0,0
0,0,0
0,0,0
0,0,0
0,0,0
0,0,0
0,0,0
0,0,0
0,0,0
0,0,0
0,0,0
0,0,0
0,0,0
0,0,0
0,0,0
0,0,0
0,0,0
0,0,0
0,0,0
0,0,0
0,0,0
0,0,0
0,0,0
0,0,0
0,0,0
0,0,0
0,0,0
0,0,0
0,0,0
0,0,0
0,0,0
0,0,0
0,0,0
0,0,0
0,0,0
0,0,0
0,0,0
0,0,0
0,0,0
0,0,0
0,0,0
0,0,0
0,0,0
0,0,0
0,0,0
0,0,0
0,0,0
0,0,0
0,0,0
0,0,0
0,0,0
0,0,0
0,0,0
0,0,0
0,0,0
0,0,0
0,0,0
0,0,0
0,0,0
0,0,0
0,0,0
0,0,0
0,0,0
0,0,0
0,0,0
0,0,0
0,0,0
0,0,0
0,0,0
0,0,0
0,0,0
0,0,0
0,0,0
0,0,0
0,0,0
0,0,0
0,0,0
0,0,0
0,0,0
0,0,0
0,0,0
0,0,0
0,0,0
0,0,0
0,0,0
0,0,0
0,0,0
0,0,0
0,0,0
0,0,0
0,0,0
0,0,0
0,0,0
0,0,0
0,0,0
0,0,0
0,0,0
0,0,0
0,0,0
0,0,0
0,0,0
0,0,0
0,0,0
0,0,0
0,0,0
0,0,0
0,0,0
0,0,0
0,0,0
0,0,0
0,0,0
0,0,0
0,0,0
0,0,0
0,0,0
0,0,0
0,0,0
0,0,0
0,0,0
0,0,0
0,0,0
0,0,0
0,0,0
0,0,0
0,0,0
0,0,0
0,0,0
0,0,0
0,0,0
0,0,0
0,0,0
0,0,0
0,0,0
0,0,0
0,0,0
0,0,0
0,0,0
0,0,0
0,0,0
0,0,0
0,0,0
0,0,0
0,0,0
0,0,0
0,0,0
0,0,0
0,0,0
0,0,0
0,0,0
0,0,0
0,0,0
0,0,0
0,0,0
0,0,0
0,0,0
0,0,0
0,0,0
0,0,0
0,0,0
0,0,0
0,0,0
0,0,0
0,0,0
0,0,0
0,0,0
0,0,0
0,0,0
0,0,0
0,0,0
0,0,0
0,0,0
0,0,0
0,0,0
0,0,0
0,0,0
0,0,0
0,0,0
0,0,0
0,0,0
0,0,0
0,0,0
0,0,0
0,0,0
0,0,0
0,0,0
0,0,0
0,0,0
0,0,0
0,0,0
0,0,0
0,0,0
0,0,0
0,0,0
0,0,0
0.18,0.47,0.86
0.18,0.47,0.86
0.18,0.47,0.86
0.18,0.46,0.86
0.18,0.46,0.86
0.18,0.45,0.86
0.18,0.45,0.86
0.18,0.45,0.87
0.18,0.45,0.87
0.18,0.45,0.87
0.18,0.45,0.87
0.18,0.45,0.87
0.19,0.45,0.87
0.19,0.45,0.87
0.19,0.45,0.87
0.19,0.45,0.87
0.19,0.45,0.87
0.18,0.45,0.87
0.17,0.46,0.87
0.16,0.46,0.87
0.16,0.46,0.87
0.15,0.46,0.86
0.15,0.47,0.86
0.16,0.47,0.86
0.16,0.47,0.86
0.16,0.47,0.86
0.16,0.47,0.87
0.16,0.47,0.87
0.16,0.47,0.86
0.16,0.47,0.87
0.16,0.46,0.87
0.17,0.46,0.87
0.17,0.45,0.87
0.17,0.45,0.87
0.17,0.45,0.87
0.17,0.45,0.87
0.17,0.45,0.87
0.16,0.45,0.88
0.16,0.45,0.88
0.17,0.45,0.88
0.17,0.45,0.87
0.18,0.45,0.87
0.18,0.46,0.87
0.18,0.46,0.87
0.17,0.45,0.87
0.17,0.45,0.87
0.17,0.45,0.87
0.17,0.45,0.87
0.17,0.45,0.87
0.17,0.45,0.87
0.17,0.45,0.87
0.17,0.46,0.87
0.17,0.46,0.87
0.17,0.46,0.86
0.17,0.47,0.86
0.17,0.46,0.87
0.17,0.46,0.87
0.17,0.46,0.87
0.17,0.46,0.87
0.17,0.46,0.87
0.18,0.46,0.87
0.18,0.46,0.87
0.18,0.46,0.87
0.17,0.45,0.86
0.17,0.45,0.87
0.16,0.45,0.87
0.16,0.45,0.87
0.16,0.45,0.87
0.16,0.45,0.87
0.16,0.45,0.87
0.17,0.45,0.87
0.17,0.46,0.87
0.17,0.46,0.87
0.17,0.46,0.87
0.17,0.46,0.87
0.17,0.46,0.87
0.17,0.46,0.87
0.17,0.46,0.87
0.17,0.46,0.87
0.16,0.46,0.87
0.17,0.46,0.87
0.17,0.46,0.87
0.16,0.46,0.87
0.17,0.45,0.87
0.17,0.45,0.87
0.17,0.45,0.87
0.16,0.45,0.87
0.17,0.45,0.87
0.17,0.45,0.87
0.17,0.46,0.87
0.16,0.46,0.87
0.17,0.46,0.87
0.17,0.46,0.87
0.17,0.46,0.87
0.17,0.46,0.87
0.17,0.46,0.87
0.17,0.46,0.87
0.17,0.46,0.87
0.16,0.46,0.87
0.16,0.46,0.87
0.16,0.46,0.87
0.17,0.46,0.87
0.17,0.46,0.87
0.17,0.45,0.87
0.17,0.45,0.87
0.17,0.45,0.87
0.17,0.45,0.87
0.17,0.45,0.87
0.17,0.45,0.88
0.17,0.45,0.87
0.17,0.45,0.87
0.18,0.45,0.86
0.18,0.46,0.87
0.17,0.46,0.87
0.17,0.46,0.87
0.17,0.46,0.87
0.17,0.46,0.87
0.16,0.46,0.87
0.16,0.46,0.87
0.16,0.46,0.87
0.16,0.46,0.87
0.16,0.46,0.87
0.17,0.46,0.87
0.17,0.46,0.87
0.17,0.46,0.87
0.18,0.46,0.87
0.18,0.45,0.87
0.18,0.45,0.87
0.18,0.45,0.87
0.18,0.45,0.87
0.17,0.46,0.87
0.17,0.45,0.87
0.16,0.45,0.87
0.16,0.46,0.87
0.16,0.45,0.87
0.16,0.45,0.87
0.16,0.46,0.87
0.17,0.45,0.87
0.17,0.45,0.87
0.17,0.46,0.87
0.17,0.46,0.87
0.18,0.46,0.87
0.17,0.46,0.87
0.17,0.46,0.87
0.16,0.46,0.87
0.16,0.46,0.87
0.16,0.46,0.87
0.16,0.46,0.87
0.17,0.46,0.87
0.17,0.46,0.87
0.17,0.45,0.87
0.16,0.45,0.87
0.16,0.45,0.87
0.16,0.46,0.87
0.17,0.46,0.87
0.16,0.45,0.87
0.16,0.46,0.87
0.17,0.46,0.87
0.17,0.46,0.87
0.17,0.46,0.87
0.17,0.46,0.87
0.17,0.45,0.87
0.17,0.46,0.87
0.17,0.46,0.87
0.17,0.46,0.87
0.17,0.46,0.87
0.17,0.45,0.87
0.17,0.46,0.87
0.17,0.46,0.87
0.16,0.45,0.87
0.16,0.45,0.86
0.16,0.46,0.87
0.17,0.46,0.87
0.17,0.46,0.87
0.17,0.45,0.87
0.17,0.46,0.87
0.17,0.46,0.87
0.17,0.46,0.87
0.17,0.45,0.87
0.17,0.45,0.87
0.17,0.45,0.87
0.17,0.45,0.87
0.17,0.46,0.88
0.17,0.45,0.88
0.15,0.45,0.87
0.16,0.45,0.87
0.18,0.44,0.88
0.17,0.45,0.89
0.17,0.45,0.89
0.16,0.45,0.89
0.15,0.46,0.9
0.16,0.45,0.88
0.16,0.45,0.88
0.17,0.45,0.88
0.18,0.44,0.89
0.19,0.44,0.89
0.21,0.45,0.89
0.22,0.45,0.88
0.21,0.46,0.87
0.2,0.45,0.87
0.22,0.43,0.86
0.17,0.5,0.88
0.2,0.47,0.89
0.21,0.47,0.91
0.22,0.47,0.92
0.23,0.45,0.95
0.25,0.44,0.97
0.27,0.43,0.97
0.27,0.43,0.97
0.2,0.36,1.21
0.2,0.33,1.2
0.28,0.34,0.94
0.29,0.33,0.93
0.29,0.33,0.92
0.27,0.32,0.91
0.26,0.3,0.89
0.25,0.29,0.87
0.27,0.29,0.88
0.31,0.28,0.91
0.37,0.28,0.95
0.45,0.27,0.99
0.49,0.25,1.04
0.5,0.26,1.06
0.48,0.28,1.04
0.48,0.29,0.99
0.47,0.28,1
0.47,0.27,1.11
0.54,0.27,1.14
0.55,0.26,1.13
0.56,0.27,1.11
0.55,0.26,1.06
0.54,0.24,1.03
0.55,0.22,1.04
0.54,0.19,1.07
0.51,0.17,1.1
0.5,0.15,1.09
0.51,0.14,1.07
0.52,0.13,1.01
0.5,0.11,0.97
0.48,0.07,0.97
0.51,0.03,0.99
0.53,0.02,0.99
0.51,0.03,0.95
0.52,0.04,0.9
0.52,0.01,0.86
0.54,-0.02,0.85
0.47,-0.02,0.82
0.42,-0.05,0.78
0.45,-0.08,0.71
0.47,-0.08,0.65
0.51,-0.11,0.64
0.53,-0.13,0.61
0.52,-0.14,0.62
0.42,-0.11,0.57
0.39,-0.11,0.49
0.4,-0.13,0.44
0.44,-0.17,0.44
0.5,-0.22,0.48
0.53,-0.27,0.51
0.53,-0.3,0.49
0.53,-0.32,0.46
0.53,-0.32,0.47
0.54,-0.32,0.45
0.52,-0.32,0.41
0.52,-0.34,0.41
0.52,-0.37,0.42
0.5,-0.4,0.39
0.48,-0.43,0.37
0.5,-0.46,0.34
0.52,-0.49,0.32
0.56,-0.52,0.31
0.6,-0.57,0.31
0.6,-0.61,0.31
0.62,-0.64,0.32
0.66,-0.68,0.33
0.66,-0.7,0.34
0.71,-0.7,0.36
0.71,-0.69,0.48
0.59,-0.71,0.46
0.47,-0.68,0.42
0.54,-0.66,0.23
0.81,-0.63,0.11
0.65,-0.63,0.4
0.46,-0.7,0.42
0.53,-0.71,0.36
0.56,-0.67,0.38
0.53,-0.67,0.38
0.55,-0.7,0.36
0.58,-0.71,0.37
0.57,-0.71,0.36
0.56,-0.73,0.33
0.58,-0.74,0.31
0.58,-0.74,0.3
0.59,-0.74,0.3
0.6,-0.73,0.29
0.58,-0.73,0.27
0.57,-0.74,0.26
0.56,-0.77,0.25
0.56,-0.82,0.26
0.56,-0.87,0.27
0.54,-0.9,0.27
0.51,-0.94,0.28
0.5,-0.97,0.24
0.52,-1.01,0.21
0.53,-1.06,0.24
0.5,-1.17,0.24
0.51,-1.23,0.23
0.51,-1.27,0.22
0.51,-1.32,0.23
0.51,-1.36,0.23
0.49,-1.37,0.21
0.49,-1.37,0.19
0.49,-1.39,0.15
0.5,-1.41,0.13
0.55,-1.41,0.14
0.57,-1.37,0.14
0.55,-1.3,0.1
0.53,-1.26,0.08
0.52,-1.23,0.07
0.54,-1.21,0.09
0.53,-1.2,0.08
0.48,-1.18,0.08
0.46,-1.13,0.11
0.44,-1.09,0.11
0.42,-1.04,0.11
0.42,-0.97,0.13
0.41,-0.91,0.14
0.37,-0.86,0.13
0.35,-0.82,0.13
0.33,-0.8,0.13
0.31,-0.8,0.11
0.31,-0.79,0.14
0.29,-0.77,0.15
0.28,-0.76,0.14
0.26,-0.76,0.14
0.24,-0.77,0.13
0.24,-0.78,0.12
0.26,-0.79,0.13
0.25,-0.81,0.13
0.24,-0.85,0.12
0.23,-0.88,0.1
0.21,-0.9,0.06
0.25,-0.92,0.04
0.29,-0.95,0.06
0.28,-0.96,0.08
0.28,-0.97,0.06
0.29,-0.97,0.04
0.31,-0.96,0.04
0.33,-0.96,0.04
0.33,-0.95,0.03
0.32,-0.94,0.02
0.32,-0.93,0.01
0.33,-0.92,0.01
0.35,-0.92,0.01
0.36,-0.94,0.03
0.36,-0.95,0.04
0.36,-0.96,0.04
0.37,-0.99,0.05
0.41,-0.99,0.05
0.42,-1,0.05
0.41,-0.99,0.05
0.41,-0.98,0.03
0.44,-0.97,0.02
0.48,-0.96,0.03
0.5,-0.94,0.07
0.51,-0.93,0.12
0.53,-0.92,0.14
0.57,-0.91,0.13
0.6,-0.9,0.12
0.6,-0.9,0.12
0.57,-0.9,0.14
0.54,-0.91,0.15
0.52,-0.92,0.15
0.5,-0.91,0.14
0.5,-0.9,0.12
0.5,-0.89,0.13
0.5,-0.89,0.15
0.49,-0.89,0.17
0.46,-0.9,0.18
0.44,-0.9,0.18
0.44,-0.91,0.19
0.43,-0.91,0.2
0.42,-0.92,0.19
0.41,-0.92,0.17
0.34,-0.94,0.15
0.33,-0.97,0.16
0.32,-1.03,0.19
0.29,-1.09,0.2
0.25,-1.12,0.19
0.22,-1.14,0.17
0.22,-1.15,0.13
0.22,-1.17,0.11
0.19,-1.21,0.1
0.14,-1.24,0.08
0.11,-1.26,0.04
0.09,-1.27,0.01
0.09,-1.27,-0.01
0.08,-1.25,-0.02
0.07,-1.19,0
0.06,-1.11,0.03
0.04,-1.03,0.05
0.02,-0.96,0.07
0,-0.91,0.08
-0.02,-0.87,0.08
-0.05,-0.85,0.08
-0.07,-0.85,0.06
-0.09,-0.87,0.03
-0.1,-0.89,0.02
-0.11,-0.93,0.01
-0.11,-0.95,0
-0.11,-0.98,0
-0.11,-1,-0.01
-0.08,-1.05,-0.01
-0.06,-1.09,-0.01
-0.04,-1.12,-0.02
-0.03,-1.12,-0.04
-0.03,-1.13,-0.03
-0.01,-1.16,-0.01
0,-1.2,0.01
0,-1.24,0.04
-0.01,-1.28,0.07
-0.03,-1.3,0.08
-0.03,-1.3,0.09
-0.03,-1.28,0.1
-0.03,-1.26,0.12
-0.02,-1.25,0.14
-0.02,-1.25,0.16
-0.02,-1.24,0.17
-0.02,-1.23,0.18
-0.02,-1.2,0.19
-0.01,-1.16,0.18
0.02,-1.13,0.2
0.05,-1.1,0.23
0.07,-1.07,0.25
0.09,-1.04,0.26
0.1,-1.03,0.25
0.13,-1,0.26
0.15,-0.99,0.27
0.18,-0.98,0.27
0.22,-1,0.27
0.23,-1.02,0.26
0.25,-1.04,0.24
0.26,-1.04,0.22
0.28,-1.04,0.21
0.3,-1.02,0.2
0.33,-1,0.19
0.36,-0.96,0.19
0.39,-0.92,0.19
0.41,-0.87,0.19
0.45,-0.81,0.19
0.48,-0.76,0.2
0.51,-0.72,0.2
0.52,-0.68,0.19
0.52,-0.66,0.18
0.52,-0.65,0.17
0.52,-0.65,0.17
0.52,-0.67,0.17
0.5,-0.7,0.17
0.49,-0.74,0.16
0.49,-0.77,0.16
0.51,-0.79,0.14
0.53,-0.81,0.09
0.54,-0.84,0.07
0.54,-0.87,0.05
0.54,-0.9,0.04
0.55,-0.96,0.03
0.57,-1.04,0.03
0.59,-1.11,0.04
0.61,-1.2,0.05
0.61,-1.28,0.05
0.6,-1.33,0.04
0.6,-1.34,0.03
0.6,-1.33,0.02
0.59,-1.33,0.02
0.58,-1.33,0
0.56,-1.34,-0.01
0.55,-1.37,-0.02
0.57,-1.42,-0.04
0.62,-1.46,-0.08
0.68,-1.52,-0.11
0.71,-1.58,-0.12
0.7,-1.64,-0.13
0.69,-1.7,-0.15
0.71,-1.75,-0.21
0.78,-1.81,-0.3
0.89,-1.86,-0.39
0.98,-1.91,-0.44
1.04,-1.96,-0.47
0.86,-1.95,-0.4
0.73,-1.87,-0.32
0.62,-1.77,-0.26
0.55,-1.66,-0.22
0.53,-1.54,-0.19
0.52,-1.44,-0.18
0.5,-1.35,-0.17
0.47,-1.28,-0.15
0.45,-1.22,-0.14
0.44,-1.17,-0.13
0.44,-1.13,-0.13
0.44,-1.1,-0.12
0.44,-1.08,-0.12
0.43,-1.06,-0.11
0.42,-1.04,-0.1
0.44,-1.03,-0.1
0.44,-1.01,-0.09
0.45,-1,-0.07
0.45,-0.98,-0.04
0.45,-0.96,-0.03
0.45,-0.94,-0.03
0.44,-0.92,-0.03
0.43,-0.91,-0.03
0.42,-0.89,-0.02
0.4,-0.88,-0.02
0.38,-0.87,-0.02
0.33,-0.82,-0.01
0.31,-0.8,-0.02
0.28,-0.79,-0.03
0.26,-0.79,-0.02
0.25,-0.78,-0.02
0.24,-0.77,-0.01
0.22,-0.76,0
0.2,-0.76,0.01
0.21,-0.76,0.02
0.22,-0.77,0.01
0.22,-0.77,0
0.21,-0.77,-0.02
0.2,-0.76,-0.03
0.21,-0.77,-0.04
0.22,-0.78,-0.05
0.23,-0.78,-0.06
0.23,-0.77,-0.06
0.22,-0.77,-0.05
0.22,-0.77,-0.04
0.23,-0.77,-0.03
0.23,-0.76,-0.03
0.23,-0.76,-0.03
0.25,-0.77,-0.03
0.26,-0.79,-0.03
0.28,-0.81,-0.02
0.28,-0.84,-0.02
0.29,-0.92,0
0.31,-0.97,0
0.32,-1.02,0
0.34,-1.08,0
0.38,-1.14,0
0.41,-1.21,-0.01
0.42,-1.27,-0.01
0.44,-1.33,0
0.45,-1.38,0.01
0.46,-1.43,0.02
0.46,-1.49,0.02
0.47,-1.56,0.02
0.5,-1.63,0.02
0.55,-1.7,0.02
0.58,-1.77,0.01
0.59,-1.82,-0.01
0.59,-1.86,-0.02
0.58,-1.89,-0.01
0.58,-1.89,0
0.58,-1.88,0.03
0.57,-1.87,0.06
0.57,-1.86,0.07
0.57,-1.86,0.08
0.6,-1.86,0.08
0.62,-1.87,0.07
0.62,-1.86,0.07
0.62,-1.77,0.13
0.61,-1.69,0.15
0.61,-1.62,0.17
0.6,-1.55,0.18
0.6,-1.49,0.2
0.59,-1.4,0.21
0.59,-1.31,0.21
0.6,-1.24,0.2
0.59,-1.17,0.18
0.59,-1.1,0.16
0.6,-1.03,0.15
0.6,-0.96,0.15
0.6,-0.91,0.14
0.6,-0.87,0.13
0.59,-0.84,0.11
0.6,-0.81,0.1
0.62,-0.79,0.07
0.63,-0.77,0.05
0.64,-0.75,0.04
0.65,-0.74,0.02
0.66,-0.73,0.01
0.69,-0.72,0
0.73,-0.73,-0.03
0.75,-0.72,-0.06
0.76,-0.64,-0.07
0.8,-0.6,-0.08
0.83,-0.74,-0.08
0.82,-0.78,-0.06
0.79,-0.8,-0.05
0.77,-0.84,-0.04
0.75,-0.88,-0.03
0.73,-0.92,-0.02
0.71,-0.94,0
0.68,-0.98,0.02
0.67,-1.01,0.04
0.67,-1.05,0.06
0.65,-1.09,0.07
0.65,-1.14,0.09
0.65,-1.19,0.1
0.65,-1.25,0.11
0.64,-1.33,0.12
0.63,-1.43,0.12
0.63,-1.53,0.12
0.63,-1.63,0.11
0.62,-1.72,0.11
0.6,-1.79,0.13
0.58,-1.83,0.16
0.56,-1.84,0.19
0.56,-1.83,0.21
0.58,-1.83,0.24
0.6,-1.83,0.25
0.62,-1.84,0.24
0.61,-1.84,0.17
0.55,-1.84,0.16
0.54,-1.85,0.15
0.54,-1.88,0.13
0.53,-1.91,0.13
0.48,-1.93,0.13
0.42,-1.92,0.13
0.38,-1.85,0.12
0.36,-1.76,0.1
0.35,-1.67,0.07
0.36,-1.6,0.05
0.36,-1.56,0.03
0.37,-1.54,0.02
0.37,-1.49,0.01
0.35,-1.42,0.03
0.32,-1.31,0.04
0.32,-1.18,0.04
0.32,-1.08,0
0.32,-0.98,-0.03
0.29,-0.88,-0.05
0.25,-0.79,-0.04
0.23,-0.72,-0.04
0.24,-0.68,-0.04
0.25,-0.65,-0.05
0.25,-0.63,-0.05
0.24,-0.6,-0.04
0.23,-0.58,-0.06
0.24,-0.6,-0.07
0.23,-0.62,-0.09
0.22,-0.64,-0.09
0.21,-0.65,-0.09
0.21,-0.65,-0.09
0.22,-0.65,-0.09
0.22,-0.64,-0.09
0.22,-0.63,-0.08
0.22,-0.61,-0.07
0.22,-0.59,-0.05
0.23,-0.57,-0.04
0.23,-0.57,-0.03
0.23,-0.58,-0.03
0.22,-0.59,-0.03
0.21,-0.61,-0.02
0.21,-0.62,0
0.21,-0.64,0.02
0.21,-0.68,0.03
0.22,-0.74,0.03
0.22,-0.74,0.03
0.22,-0.76,0.04
0.23,-0.78,0.06
0.24,-0.81,0.08
0.31,-0.9,0.1
0.31,-0.9,0.11
0.31,-1,0.11
0.31,-1.06,0.11
0.31,-1.14,0.12
0.32,-1.21,0.13
0.33,-1.29,0.13
0.35,-1.36,0.12
0.36,-1.43,0.11
0.35,-1.48,0.09
0.36,-1.53,0.09
0.38,-1.59,0.09
0.4,-1.66,0.09
0.42,-1.72,0.1
0.45,-1.76,0.11
0.47,-1.8,0.13
0.49,-1.82,0.15
0.51,-1.8,0.16
0.55,-1.77,0.17
0.58,-1.73,0.18
0.6,-1.69,0.19
0.59,-1.67,0.19
0.56,-1.67,0.19
0.54,-1.67,0.19
0.53,-1.68,0.2
0.53,-1.68,0.21
0.53,-1.67,0.21
0.52,-1.64,0.21
0.51,-1.55,0.21
0.52,-1.48,0.21
0.53,-1.4,0.2
0.53,-1.3,0.19
0.53,-1.21,0.19
0.54,-1.13,0.19
0.56,-1.07,0.19
0.58,-1.03,0.19
0.58,-1,0.18
0.58,-0.97,0.17
0.57,-0.95,0.17
0.57,-0.94,0.18
0.56,-0.92,0.19
0.56,-0.9,0.2
0.56,-0.88,0.19
0.56,-0.87,0.19
0.55,-0.86,0.2
0.55,-0.86,0.2
0.57,-0.85,0.19
0.57,-0.85,0.19
0.58,-0.84,0.2
0.6,-0.83,0.19
0.62,-0.84,0.19
0.64,-0.85,0.18
0.65,-0.87,0.18
0.64,-0.89,0.18
0.62,-0.94,0.18
0.61,-0.97,0.19
0.59,-0.99,0.19
0.58,-1,0.18
0.56,-1.02,0.17
0.55,-1.04,0.16
0.54,-1.07,0.18
0.53,-1.11,0.19
0.53,-1.13,0.19
0.52,-1.17,0.18
0.52,-1.21,0.18
0.5,-1.25,0.18
0.49,-1.29,0.18
0.47,-1.32,0.17
0.44,-1.34,0.16
0.42,-1.35,0.15
0.41,-1.36,0.14
0.4,-1.37,0.13
0.4,-1.4,0.12
0.4,-1.46,0.11
0.39,-1.5,0.1
0.38,-1.53,0.09
0.36,-1.52,0.08
0.34,-1.47,0.06
0.34,-1.41,0.04
0.34,-1.36,0.04
0.38,-1.31,0.04
0.45,-1.3,0.01
0.46,-1.31,-0.04
0.47,-1.32,-0.07
0.46,-1.3,-0.09
0.46,-1.27,-0.1
0.47,-1.24,-0.11
0.46,-1.18,-0.11
0.46,-1.13,-0.13
0.5,-1.09,-0.16
0.56,-1.07,-0.18
0.63,-1.05,-0.17
0.67,-1.05,-0.16
0.69,-1.06,-0.16
0.68,-1.07,-0.16
0.64,-1.08,-0.15
0.62,-1.07,-0.14
0.61,-1.04,-0.15
0.61,-1.02,-0.17
0.59,-0.98,-0.16
0.59,-0.94,-0.14
0.59,-0.89,-0.11
0.58,-0.86,-0.08
0.58,-0.82,-0.06
0.58,-0.78,-0.05
0.57,-0.75,-0.04
0.56,-0.67,-0.04
0.54,-0.63,-0.01
0.52,-0.59,0.03
0.53,-0.56,0.06
0.55,-0.55,0.08
0.56,-0.56,0.1
0.56,-0.57,0.13
0.55,-0.59,0.17
0.54,-0.6,0.21
0.54,-0.61,0.2
0.54,-0.61,0.18
0.54,-0.59,0.19
0.53,-0.56,0.26
0.55,-0.51,0.36
0.61,-0.5,0.45
0.68,-0.52,0.49
0.72,-0.56,0.51
0.73,-0.6,0.51
0.71,-0.62,0.5
0.68,-0.59,0.47
0.66,-0.56,0.47
0.66,-0.55,0.5
0.68,-0.55,0.56
0.69,-0.56,0.61
0.71,-0.56,0.65
0.72,-0.57,0.65
0.75,-0.55,0.61
0.71,-0.53,0.62
0.69,-0.51,0.64
0.7,-0.49,0.65
0.73,-0.47,0.68
0.75,-0.45,0.7
0.76,-0.43,0.71
0.8,-0.41,0.7
0.81,-0.39,0.7
0.81,-0.39,0.74
0.81,-0.4,0.79
0.8,-0.38,0.82
0.78,-0.35,0.84
0.76,-0.33,0.85
0.75,-0.32,0.86
0.74,-0.33,0.86
0.72,-0.31,0.83
0.7,-0.27,0.78
0.66,-0.26,0.7
0.62,-0.25,0.64
0.59,-0.25,0.62
0.58,-0.28,0.64
0.57,-0.31,0.67
0.54,-0.31,0.67
0.51,-0.29,0.61
0.49,-0.25,0.54
0.44,-0.22,0.36
0.42,-0.22,0.29
0.4,-0.22,0.24
0.39,-0.23,0.22
0.39,-0.23,0.24
0.36,-0.24,0.24
0.34,-0.28,0.23
0.31,-0.33,0.22
0.26,-0.37,0.22
0.24,-0.39,0.18
0.25,-0.4,0.1
0.22,-0.4,0.03
0.2,-0.42,0.04
0.26,-0.44,0.09
0.39,-0.4,0.13
0.47,-0.29,0.14
0.49,-0.21,0.19
0.54,-0.21,0.26
0.62,-0.23,0.29
0.68,-0.27,0.31
0.69,-0.37,0.34
0.69,-0.43,0.36
0.66,-0.44,0.45
0.63,-0.44,0.57
0.67,-0.42,0.64
0.74,-0.38,0.67
0.77,-0.34,0.81
0.84,-0.35,0.84
0.84,-0.33,0.87
0.77,-0.35,0.93
0.65,-0.35,1.03
0.53,-0.27,1.11
0.52,-0.21,1.21
0.57,-0.2,1.33
0.59,-0.18,1.42
0.52,-0.15,1.48
0.41,-0.07,1.44
0.32,0.07,1.37
0.27,0.19,1.31
0.25,0.25,1.25
0.22,0.31,1.21
0.11,0.35,1.16
0.01,0.45,1.06
0.03,0.62,0.91
0.11,0.81,0.76
0.18,0.96,0.61
0.23,1.05,0.45
0.18,1.07,0.24
0.06,1.01,0.06
-0.08,0.99,0
-0.22,1.01,0.02
-0.25,0.99,0.09
-0.1,0.95,0.09
0.34,0.87,0.03
0.49,0.74,-0.03
0.52,0.48,-0.08
0.46,0.21,-0.1
0.34,0.08,-0.01
0.18,0.13,0.2
0.13,0.21,0.49
0.21,0.13,0.73
0.32,0.01,0.64
0.37,-0.11,0.3
0.19,-0.25,0
0.03,-0.34,-0.12
0.16,-0.36,0.17
0.42,-0.45,0.87
0.68,-0.85,1.64
0.71,-1.31,2.05
0.33,-1.53,1.96
-0.2,-1.59,1.7
-0.52,-1.58,1.63
-0.45,-1.35,1.68
-0.2,-0.95,1.68
0.13,-0.62,1.65
0.39,-0.45,1.65
0.36,-0.41,1.65
0.2,-0.42,1.52
0.11,-0.43,1.28
-0.33,-0.51,1.15
-0.55,-0.46,0.93
-0.6,-0.37,0.72
-0.54,-0.3,0.65
-0.36,-0.24,0.58
-0.06,-0.17,0.6
0.29,-0.17,0.86
0.47,-0.26,1.08
0.47,-0.35,1.05
0.48,-0.41,0.89
0.56,-0.43,0.64
0.65,-0.43,0.33
0.87,-0.43,0.21
1.19,-0.46,0.44
1.32,-0.58,0.86
1.2,-0.71,1.13
1.08,-0.8,1.04
0.9,-0.82,0.8
0.83,-0.77,0.59
0.96,-0.71,0.41
1,-0.65,0.34
0.81,-0.62,0.31
0.48,-0.71,0.08
2.14,-1.44,1.93
3.47,-1.88,3.66
1.34,-0.84,1.36
0.39,-1.21,1.66
0.65,-0.7,0.98
0.46,-0.75,1.02
0.69,-0.52,0.62
0.73,-0.55,0.29
0.53,-0.63,0.32
0.63,-0.45,0.49
0.5,-0.28,1
0.43,-0.15,1.34
0.41,-0.06,1.33
0.46,-0.04,1.23
0.84,-0.02,1.07
1.17,-0.05,0.9
1,-0.16,0.81
0.78,-0.15,0.65
0.87,0.04,0.49
0.85,0.15,0.48
0.65,0.09,0.42
0.6,0.01,0.23
0.64,0,0.16
0.77,0.02,0.27
0.9,0.02,0.45
0.93,-0.06,0.67
0.84,-0.22,0.93
0.71,-0.3,1.04
0.58,-0.23,1.04
0.23,-0.06,1.03
0.35,-0.03,0.98
0.57,-0.04,0.94
0.58,-0.15,0.87
0.68,-0.23,0.76
0.77,-0.24,0.67
0.67,-0.26,0.63
0.59,-0.2,0.7
0.53,-0.12,0.83
0.51,-0.12,0.9
0.55,-0.11,0.92
0.6,-0.09,0.85
0.64,-0.1,0.77
0.65,-0.14,0.73
0.66,-0.14,0.68
0.72,-0.11,0.64
0.75,-0.09,0.7
0.73,-0.08,0.76
0.7,-0.07,0.78
0.66,-0.05,0.8
0.65,-0.04,0.8
0.63,0,0.79
0.54,0.04,0.75
0.59,0,0.76
0.74,-0.04,0.78
0.75,-0.06,0.84
0.65,-0.11,0.87
0.54,-0.06,0.83
0.53,-0.02,0.79
0.49,0,0.77
0.44,0.04,0.79
0.53,0.03,0.84
0.75,-0.03,0.87
0.82,-0.04,0.82
0.82,-0.03,0.77
0.85,-0.02,0.72
0.78,0.01,0.69
0.69,0.04,0.7
0.58,0.09,0.74
0.46,0.1,0.81
0.48,0.07,0.85
0.56,0.09,0.88
0.65,0.06,0.87
0.75,0,0.81
0.75,-0.03,0.76
0.72,-0.06,0.74
0.67,-0.03,0.73
0.58,-0.01,0.73
0.47,0.05,0.79
0.42,0.12,0.87
0.48,0.09,0.89
0.55,0.03,0.87
0.58,0.04,0.83
0.71,0.02,0.8
0.82,0.02,0.74
0.91,0.01,0.66
0.93,-0.02,0.61
0.88,-0.04,0.62
0.71,-0.07,0.66
0.54,-0.07,0.74
0.47,-0.05,0.85
0.42,-0.03,0.96
0.38,0.01,1
0.39,0.05,0.97
0.47,0.05,0.91
0.55,0.02,0.84
0.63,-0.04,0.78
0.7,-0.1,0.73
0.73,-0.11,0.73
0.7,-0.13,0.74
0.65,-0.14,0.78
0.59,-0.13,0.83
0.52,-0.11,0.86
0.51,-0.08,0.86
0.53,-0.05,0.86
0.54,-0.04,0.85
0.57,-0.04,0.83
0.62,-0.04,0.82
0.63,-0.04,0.81
0.59,-0.05,0.82
0.57,-0.05,0.83
0.56,-0.04,0.83
0.57,-0.04,0.83
0.59,-0.04,0.83
0.6,-0.04,0.82
0.62,-0.04,0.82
0.64,-0.03,0.81
0.64,-0.03,0.8
0.64,-0.01,0.79
0.64,-0.02,0.79
0.66,-0.04,0.78
0.67,-0.05,0.77
0.67,-0.06,0.77
0.67,-0.06,0.77
0.66,-0.07,0.76
0.65,-0.06,0.76
0.62,-0.06,0.78
0.59,-0.05,0.8
0.59,-0.04,0.82
0.6,-0.04,0.82
0.63,-0.04,0.81
0.64,-0.04,0.79
0.65,-0.02,0.78
0.66,-0.01,0.76
0.68,0.01,0.74
0.7,0.02,0.73
0.71,0.02,0.73
0.71,0,0.74
0.71,-0.01,0.75
0.69,-0.01,0.74
0.68,0,0.74
0.66,0.01,0.75
0.65,0.02,0.77
0.64,0.01,0.79
0.63,0,0.79
0.64,-0.01,0.78
0.65,-0.01,0.77
0.66,0,0.76
0.66,0,0.76
0.67,0,0.76
0.66,0.01,0.76
0.67,0.01,0.76
0.68,-0.01,0.77
0.67,-0.02,0.76
0.68,-0.02,0.75
0.69,-0.01,0.75
0.69,0,0.74
0.69,0,0.74
0.67,0,0.75
0.66,0,0.76
0.66,-0.01,0.77
0.66,-0.01,0.77
0.66,-0.01,0.77
0.66,0,0.76
0.66,0,0.76
0.66,0,0.77
0.65,-0.01,0.77
0.65,-0.01,0.77
0.66,-0.01,0.76
0.68,-0.01,0.76
0.69,-0.01,0.74
0.69,-0.01,0.75
0.68,-0.01,0.76
0.67,-0.01,0.77
0.66,-0.01,0.77
0.66,-0.01,0.77
0.66,-0.01,0.77
0.66,-0.02,0.77
0.65,-0.02,0.77
0.65,-0.01,0.77
0.65,-0.01,0.76
0.66,-0.01,0.77
0.66,-0.01,0.76
0.67,-0.01,0.76
0.68,-0.01,0.77
0.68,-0.01,0.76
0.68,-0.01,0.74
0.68,-0.01,0.74
0.67,-0.01,0.75
0.65,-0.01,0.76
0.65,-0.01,0.78
0.65,-0.01,0.79
0.66,-0.01,0.78
0.68,-0.01,0.76
0.69,-0.01,0.74
0.68,-0.01,0.74
0.66,-0.01,0.76
0.65,-0.01,0.77
0.64,-0.01,0.77
0.65,-0.01,0.77
0.67,-0.01,0.77
0.68,-0.01,0.76
0.69,-0.01,0.75
0.68,0,0.74
0.67,0,0.74
0.67,0,0.75
0.67,-0.01,0.76
0.66,0,0.76
0.67,0,0.77
0.68,0,0.77
0.68,0,0.75
0.68,0,0.75
0.68,0,0.75
0.66,0,0.76
0.67,-0.01,0.76
0.67,0,0.76
0.68,0,0.75
0.68,0,0.76
0.69,0,0.75
0.69,0,0.75
0.68,0,0.74
0.68,0,0.75
0.69,0.01,0.75
0.69,0,0.75
0.69,0,0.75
0.69,0,0.74
0.68,0,0.75
0.67,0,0.75
0.68,0,0.75
0.68,0,0.76
0.68,0,0.76
0.68,0.01,0.75
0.68,0.01,0.75
0.68,0,0.75
0.68,0,0.75
0.68,0,0.75
0.67,0,0.75
0.68,0,0.75
0.68,0,0.76
0.67,0,0.75
0.67,0.01,0.75
0.68,0.01,0.75
0.69,0,0.76
0.69,0,0.75
0.69,0,0.75
0.69,0,0.74
0.68,0,0.74
0.67,0,0.76
0.66,0,0.77
0.66,0,0.77
0.67,0,0.76
0.69,0,0.76
0.69,0,0.75
0.69,0,0.74
0.69,0,0.74
0.68,0,0.75
0.67,0,0.76
0.67,0,0.76
0.67,0,0.76
0.68,0,0.75
0.69,0,0.74
0.69,0.01,0.74
0.7,0.01,0.74
0.69,0,0.74
0.68,0.01,0.75
0.67,0,0.76
0.68,0,0.76
0.69,0,0.75
0.7,0,0.74
0.7,0,0.74
0.69,0,0.74
0.68,0,0.75
0.67,0,0.76
0.66,0,0.76
0.67,0,0.76
0.67,0,0.76
0.68,0,0.75
0.69,0.01,0.75
0.69,0,0.74
0.69,0,0.74
0.68,0,0.75
0.68,0,0.75
0.68,0,0.75
0.68,0,0.76
0.67,0,0.76
0.67,0,0.76
0.67,0,0.75
0.67,0,0.75
0.67,0,0.75
0.67,0,0.75
0.67,0,0.75
0.68,0.01,0.74
0.71,0,0.74
0.7,0.01,0.74
0.7,0,0.74
0.7,0,0.74
0.68,0,0.74
0.67,0,0.74
0.67,0.01,0.75
0.68,0.01,0.75
0.69,0.01,0.75
0.69,0,0.75
0.69,0,0.74
0.69,0,0.74
0.69,0.01,0.74
0.69,0.01,0.74
0.68,0.01,0.75
0.68,0.01,0.75
0.68,0,0.75
0.69,0,0.74
0.69,0,0.74
0.69,0.01,0.74
0.7,0.01,0.74
0.7,0.01,0.73
0.7,0.01,0.74
0.69,0.01,0.74
0.69,0.01,0.75
0.68,0.01,0.75
0.68,0.01,0.74
0.68,0,0.74
0.69,0,0.75
0.69,0,0.75
0.69,0.01,0.74
0.69,0.01,0.74
0.7,0.01,0.74
0.7,0.01,0.74
0.69,0.01,0.74
0.68,0,0.75
0.68,0,0.75
0.68,0,0.75
0.68,0,0.75
0.68,0.01,0.75
0.69,0.01,0.74
0.69,0.01,0.74
0.69,0.01,0.74
0.69,0,0.74
0.69,0,0.74
0.69,0,0.74
0.69,0.01,0.74
0.68,0.01,0.74
0.69,0,0.74
0.69,0,0.75
0.68,0,0.75
0.68,0,0.75
0.69,0,0.75
0.68,0,0.75
0.68,0,0.75
0.69,0.01,0.75
0.69,0.01,0.75
0.69,0.01,0.74
0.69,0.01,0.74
0.69,0.01,0.74
0.7,0,0.74
0.69,0,0.74
0.69,0,0.74
0.69,0,0.75
0.68,0,0.75
0.68,0,0.75
0.68,0,0.75
0.68,0,0.75
0.69,0,0.75
0.69,0,0.75
0.68,0,0.75
0.69,0,0.75
0.68,0.01,0.74
0.69,0.01,0.74
0.69,0.01,0.74
0.69,0.01,0.74
0.69,0.01,0.74
0.69,0,0.74
0.68,0,0.75
0.68,0,0.76
0.68,0,0.75
0.68,0.01,0.75
0.69,0.01,0.75
0.69,0,0.75
0.69,0.01,0.74
0.7,0.01,0.74
0.7,0.01,0.73
0.7,0.01,0.73
0.69,0,0.74
0.68,0,0.75
0.68,0,0.75
0.67,0,0.76
0.67,0,0.75
0.68,0,0.75
0.68,0,0.74
0.68,0,0.75
0.69,0,0.75
0.69,0.01,0.75
0.69,0.01,0.75
0.69,0.01,0.74
0.69,0.01,0.74
0.69,0.01,0.74
0.69,0,0.74
0.68,0,0.76
0.66,0,0.76
0.66,0,0.76
0.67,0,0.76
0.68,0,0.75
0.7,0,0.74
0.7,0.01,0.73
0.7,0.01,0.73
0.69,0.01,0.74
0.68,0.01,0.75
0.67,0.01,0.75
0.67,0,0.75
0.67,0,0.75
0.67,0,0.75
0.68,0,0.75
0.68,0,0.75
0.68,0.01,0.74
0.68,0.01,0.75
0.68,0.01,0.75
0.68,0.01,0.75
0.68,0.01,0.76
0.68,0,0.75
0.68,0,0.75
0.68,0.01,0.75
0.69,0.01,0.74
0.7,0.01,0.74
0.7,0.01,0.74
0.69,0.01,0.74
0.69,0,0.75
0.68,0,0.75
0.67,0.01,0.75
0.67,0.01,0.75
0.68,0.01,0.75
0.68,0,0.75
0.69,0.01,0.74
0.69,0.01,0.74
0.7,0.01,0.74
0.7,0.01,0.74
0.69,0.01,0.75
0.68,0,0.75
0.67,0.01,0.75
0.67,0.01,0.76
0.68,0,0.76
0.69,0,0.75
0.7,0.01,0.73
0.71,0.01,0.73
0.7,0.01,0.73
0.7,0.02,0.73
0.69,0.02,0.73
0.69,0.02,0.74
0.69,0.02,0.74
0.69,0.01,0.74
0.7,0.01,0.74
0.7,0.01,0.74
0.69,0.01,0.74
0.68,0.01,0.75
0.68,0.01,0.75
0.68,0.02,0.75
0.69,0.01,0.75
0.69,0,0.74
0.7,0,0.74
0.69,0,0.74
0.69,0.01,0.74
0.69,0.01,0.74
0.68,0.01,0.75
0.69,0.01,0.75
0.69,0.02,0.74
0.69,0.01,0.74
0.71,0.01,0.73
0.71,0.01,0.73
0.71,0.01,0.72
0.71,0.02,0.71
0.71,0.02,0.72
0.71,0.01,0.72
0.7,0.02,0.73
0.69,0.01,0.74
0.69,0.01,0.74
0.69,0.01,0.74
0.7,0.01,0.74
0.7,0.01,0.73
0.7,0,0.74
0.7,0,0.74
0.7,0,0.73
0.7,0.01,0.73
0.7,0.01,0.74
0.7,0.01,0.73
0.7,0.01,0.73
0.7,0.01,0.74
0.69,0.01,0.74
0.69,0,0.74
0.68,0,0.75
0.68,0,0.75
0.69,0.01,0.74
0.69,0.01,0.74
0.69,0.01,0.75
0.69,0.01,0.74
0.69,0.02,0.73
0.7,0.02,0.73
0.71,0.02,0.73
0.7,0.01,0.73
0.69,0.01,0.74
0.69,0.02,0.74
0.69,0.02,0.74
0.69,0.01,0.75
0.69,0.01,0.75
0.71,0.01,0.73
0.72,0.01,0.72
0.72,0.02,0.72
0.72,0.02,0.72
0.7,0.02,0.73
0.68,0.01,0.74
0.67,0,0.76
0.67,0.01,0.76
0.66,0.01,0.76
0.67,0,0.76
0.69,0.01,0.75
0.7,0.02,0.74
0.7,0.02,0.74
0.69,0.02,0.74
0.69,0.01,0.74
0.68,0.01,0.75
0.68,0.01,0.75
0.69,0.01,0.74
0.71,0.02,0.74
0.71,0.02,0.74
0.7,0.01,0.74
0.68,0,0.75
0.66,0,0.76
0.66,0,0.77
0.67,-0.01,0.77
0.69,-0.01,0.76
0.71,-0.02,0.74
0.71,-0.02,0.74
0.66,-0.02,0.74
0.63,-0.01,0.77
0.63,0.01,0.79
0.62,0,0.8
0.64,-0.01,0.79
0.68,-0.01,0.78
0.68,0,0.75
0.69,-0.01,0.73
0.69,0,0.74
0.66,0,0.74
0.66,0,0.74
0.67,0,0.76
0.67,-0.01,0.77
0.68,-0.01,0.77
0.68,0,0.76
0.68,0,0.76
0.68,0.01,0.76
0.68,0.01,0.75
0.68,0.01,0.74
0.69,0.01,0.75
0.69,-0.02,0.75
0.69,-0.05,0.76
0.69,-0.06,0.76
0.66,-0.05,0.76
0.66,0,0.75
0.66,0.02,0.76
0.63,0.01,0.77
0.61,0.01,0.78
0.6,0.02,0.79
0.61,0.02,0.8
0.63,-0.01,0.8
0.64,0,0.78
0.65,0,0.77
0.64,0,0.78
0.64,0.01,0.79
0.64,0.02,0.8
0.63,0.03,0.8
0.64,0.04,0.8
0.65,0.02,0.79
0.64,0.02,0.78
0.65,0.01,0.78
0.67,0,0.77
0.67,0,0.76
0.65,-0.01,0.76
0.64,-0.02,0.77
0.64,-0.02,0.78
0.64,-0.01,0.79
0.64,-0.02,0.8
0.65,-0.02,0.8
0.65,-0.02,0.79
0.65,-0.03,0.78
0.63,-0.03,0.78
0.61,-0.03,0.79
0.61,-0.02,0.8
0.62,-0.02,0.8
0.62,-0.02,0.8
0.64,-0.01,0.79
0.66,-0.01,0.79
0.66,-0.02,0.78
0.65,-0.02,0.78
0.64,-0.02,0.77
0.64,-0.02,0.78
0.62,-0.02,0.79
0.62,-0.02,0.79
0.61,-0.02,0.79
0.62,-0.03,0.8
0.63,-0.02,0.79
0.64,-0.02,0.78
0.65,-0.02,0.79
0.67,-0.02,0.78
0.67,-0.02,0.77
0.66,-0.02,0.77
0.64,-0.02,0.78
0.62,-0.02,0.79
0.62,-0.02,0.79
0.62,-0.02,0.79
0.63,-0.02,0.79
0.64,-0.02,0.78
0.64,-0.02,0.78
0.65,-0.02,0.78
0.64,-0.02,0.78
0.64,-0.02,0.77
0.64,-0.02,0.78
0.65,-0.02,0.78
0.65,-0.02,0.78
0.66,-0.02,0.78
0.67,-0.02,0.77
0.67,-0.02,0.77
0.66,-0.02,0.77
0.64,-0.02,0.77
0.63,-0.01,0.78
0.65,-0.01,0.79
0.66,-0.01,0.79
0.66,-0.02,0.79
0.65,-0.02,0.79
0.64,-0.02,0.78
0.64,-0.02,0.78
0.64,-0.02,0.78
0.63,-0.02,0.78
0.63,-0.02,0.78
0.64,-0.02,0.78
0.65,-0.02,0.78
0.65,-0.02,0.79
0.64,-0.02,0.78
0.64,-0.02,0.78
0.65,-0.02,0.78
0.65,-0.02,0.78
0.64,-0.02,0.78
0.64,-0.01,0.77
0.63,-0.01,0.77
0.64,-0.01,0.78
0.65,-0.01,0.79
0.65,-0.01,0.78
0.66,-0.01,0.78
0.65,-0.02,0.77
0.65,-0.02,0.78
0.63,-0.02,0.78
0.62,-0.02,0.79
0.61,-0.01,0.78
0.6,0,0.79
0.61,0,0.8
0.61,0,0.8
0.64,0,0.81
0.66,0,0.8
0.66,0.01,0.78
0.66,0.01,0.77
0.66,0,0.77
0.65,0,0.78
0.64,0.01,0.76
0.65,0.03,0.76
0.69,0.01,0.78
0.7,0,0.78
0.68,0,0.77
0.66,-0.01,0.77
0.64,-0.01,0.78
0.64,0,0.77
0.64,0,0.77
0.65,-0.01,0.78
0.65,-0.01,0.78
0.66,0,0.77
0.67,0,0.76
0.66,0,0.76
0.65,0,0.77
0.64,0,0.78
0.64,0,0.79
0.64,0,0.78
0.65,0,0.78
0.65,0.01,0.77
0.65,0,0.77
0.64,0,0.78
0.64,0,0.78
0.65,0.01,0.78
0.65,0.01,0.78
0.65,0.02,0.76
0.66,0.03,0.77
0.64,0.02,0.81
0.64,0.01,0.82
0.65,0.01,0.79
0.64,0,0.79
0.61,-0.01,0.8
0.59,-0.01,0.8
0.6,0,0.8
0.6,-0.01,0.81
0.59,-0.01,0.81
0.59,0,0.8
0.62,0.02,0.79
0.67,0.02,0.78
0.69,0.01,0.77
0.68,0,0.76
0.69,0,0.75
0.7,0.01,0.75
0.7,0,0.76
0.67,-0.01,0.77
0.64,-0.01,0.77
0.63,0.01,0.76
0.65,0.03,0.76
0.67,0.02,0.78
0.66,0.01,0.78
0.64,0.01,0.77
0.65,0,0.78
0.64,-0.01,0.78
0.68,0.01,0.77
0.71,0.02,0.76
0.71,0.02,0.75
0.71,0.03,0.74
0.73,0.04,0.73
0.73,0.05,0.71
0.73,0.05,0.7
0.73,0.06,0.7
0.72,0.05,0.7
0.66,0.06,0.69
0.65,0.09,0.69
0.68,0.07,0.74
0.67,0.03,0.77
0.65,0.03,0.77
0.63,0.04,0.79
0.64,0.03,0.81
0.63,0.04,0.78
0.63,0.06,0.75
0.64,0.05,0.78
0.66,0.03,0.8
0.65,0.01,0.78
0.65,-0.01,0.77
0.68,0,0.78
0.71,0.02,0.79
0.67,0.02,0.78
0.64,0,0.8
0.65,0.01,0.77
0.7,0.02,0.77
0.7,0.01,0.76
0.66,-0.01,0.76
0.62,-0.03,0.77
0.61,-0.03,0.79
0.63,-0.03,0.82
0.66,-0.07,0.85
0.65,-0.08,0.86
0.61,-0.06,0.83
0.61,-0.04,0.78
0.63,-0.05,0.75
0.69,-0.09,0.76
0.73,-0.11,0.76
0.71,-0.12,0.76
0.7,-0.12,0.78
0.67,-0.12,0.8
0.64,-0.12,0.84
0.63,-0.15,0.89
0.57,-0.15,0.85
0.53,-0.17,0.83
0.56,-0.21,0.83
0.51,-0.21,0.8
0.4,-0.21,0.81
0.41,-0.18,0.86
0.53,-0.17,0.89
0.71,-0.27,0.87
0.86,-0.24,0.81
0.72,-0.25,0.82
0.55,-0.35,0.8
0.43,-0.47,0.74
0.39,-0.5,0.64
0.42,-0.48,0.6
0.45,-0.46,0.61
0.41,-0.49,0.67
0.4,-0.53,0.87
0.41,-0.51,1
0.34,-0.46,0.97
0.33,-0.46,0.96
0.41,-0.49,0.91
0.49,-0.49,0.8
0.51,-0.51,0.75
0.46,-0.57,0.68
0.41,-0.61,0.62
0.34,-0.62,0.63
0.35,-0.61,0.67
0.41,-0.59,0.69
0.35,-0.58,0.72
0.33,-0.58,0.77
0.39,-0.54,0.79
0.35,-0.53,0.72
0.32,-0.57,0.77
0.32,-0.6,0.85
0.26,-0.63,0.83
0.25,-0.67,0.77
0.27,-0.69,0.7
0.25,-0.71,0.66
0.22,-0.69,0.67
0.22,-0.65,0.72
0.23,-0.62,0.77
0.28,-0.62,0.83
0.33,-0.64,0.86
0.35,-0.67,0.82
0.39,-0.68,0.79
0.41,-0.7,0.77
0.4,-0.7,0.77
0.35,-0.69,0.76
0.29,-0.67,0.73
0.3,-0.64,0.72
0.29,-0.66,0.74
0.32,-0.69,0.75
0.29,-0.74,0.73
0.27,-0.71,0.73
0.21,-0.7,0.66
0.12,-0.69,0.65
0.13,-0.69,0.68
0.1,-0.76,0.66
0.09,-0.76,0.7
0.12,-0.76,0.72
0.08,-0.75,0.72
0.07,-0.72,0.7
0.05,-0.72,0.69
0.01,-0.72,0.73
-0.01,-0.71,0.77
-0.02,-0.7,0.8
-0.04,-0.71,0.81
-0.06,-0.72,0.78
-0.07,-0.72,0.75
-0.07,-0.74,0.71
-0.03,-0.74,0.68
0,-0.74,0.66
0,-0.72,0.67
0,-0.69,0.67
0,-0.67,0.66
-0.01,-0.67,0.66
-0.05,-0.67,0.64
-0.04,-0.68,0.6
-0.04,-0.72,0.59
-0.07,-0.76,0.62
-0.08,-0.8,0.62
-0.06,-0.81,0.62
-0.07,-0.8,0.62
-0.11,-0.75,0.59
-0.13,-0.72,0.56
-0.12,-0.73,0.61
-0.09,-0.84,0.63
-0.1,-0.86,0.64
-0.08,-0.86,0.66
-0.07,-0.84,0.66
-0.08,-0.82,0.64
-0.07,-0.82,0.61
-0.03,-0.82,0.62
0.01,-0.83,0.65
0.03,-0.87,0.64
0.04,-0.88,0.61
0.05,-0.86,0.59
0.07,-0.84,0.59
0.11,-0.81,0.59
0.13,-0.78,0.57
0.13,-0.78,0.55
0.13,-0.81,0.56
0.16,-0.84,0.57
0.19,-0.86,0.58
0.18,-0.88,0.59
0.14,-0.89,0.6
0.09,-0.89,0.61
0.07,-0.88,0.58
0.06,-0.87,0.57
0.02,-0.88,0.57
-0.02,-0.92,0.6
-0.04,-0.95,0.6
-0.07,-0.92,0.56
-0.08,-0.89,0.53
-0.07,-0.87,0.49
-0.05,-0.85,0.47
-0.04,-0.87,0.49
-0.05,-0.92,0.52
-0.08,-0.95,0.54
-0.11,-0.96,0.53
-0.11,-0.94,0.5
-0.08,-0.9,0.47
-0.05,-0.86,0.45
-0.04,-0.83,0.45
-0.02,-0.83,0.45
0.02,-0.85,0.49
0.04,-0.86,0.51
0.04,-0.87,0.52
0.04,-0.87,0.51
0.05,-0.87,0.5
0.07,-0.87,0.48
0.09,-0.87,0.47
0.11,-0.85,0.49
0.13,-0.84,0.54
0.14,-0.83,0.57
0.15,-0.81,0.58
0.18,-0.78,0.59
0.2,-0.77,0.62
0.18,-0.77,0.63
0.15,-0.78,0.61
0.1,-0.79,0.58
0.07,-0.78,0.57
0.08,-0.77,0.55
0.1,-0.74,0.54
0.11,-0.74,0.57
0.11,-0.78,0.61
0.1,-0.81,0.64
0.09,-0.83,0.65
0.07,-0.84,0.63
0.06,-0.85,0.59
0.07,-0.84,0.56
0.11,-0.84,0.54
0.14,-0.85,0.53
0.17,-0.85,0.53
0.21,-0.87,0.54
0.22,-0.89,0.57
0.21,-0.9,0.6
0.19,-0.88,0.61
0.17,-0.85,0.59
0.17,-0.82,0.54
0.21,-0.8,0.51
0.28,-0.79,0.5
0.32,-0.79,0.54
0.33,-0.82,0.68
0.29,-0.88,0.7
0.26,-0.91,0.72
0.25,-0.94,0.71
0.25,-0.97,0.66
0.28,-1,0.62
0.34,-1.06,0.61
0.35,-1.16,0.59
0.29,-1.21,0.55
0.26,-1.22,0.51
0.26,-1.23,0.46
0.26,-1.24,0.44
0.23,-1.25,0.39
0.24,-1.25,0.35
0.29,-1.28,0.34
0.33,-1.39,0.3
0.35,-1.49,0.26
0.36,-1.51,0.24
0.38,-1.51,0.23
0.42,-1.56,0.18
0.41,-1.58,0.11
0.35,-1.58,0.09
0.3,-1.58,0.09
0.26,-1.62,0.09
0.25,-1.63,0.1
0.22,-1.63,0.1
0.18,-1.6,0.08
0.13,-1.35,0.04
0.14,-1.25,0.07
0.19,-1.25,0.13
0.25,-1.28,0.2
0.28,-1.3,0.27
0.28,-1.26,0.36
0.27,-1.21,0.45
0.3,-1.16,0.54
0.37,-1.15,0.64
0.46,-1.16,0.74
0.52,-1.15,0.79
0.52,-1.11,0.76
0.51,-1.07,0.72
0.55,-1.04,0.75
0.7,-1.03,0.83
0.83,-1.01,0.91
0.89,-0.99,0.94
0.88,-0.97,0.93
0.86,-0.95,0.9
0.86,-0.95,0.84
0.86,-0.93,0.76
0.87,-0.92,0.76
0.91,-0.94,0.81
0.94,-0.96,0.85
0.92,-0.94,0.88
0.87,-0.93,0.86
0.82,-0.89,0.71
0.78,-0.87,0.62
0.8,-0.87,0.55
0.84,-0.89,0.5
0.88,-0.93,0.46
0.9,-0.98,0.42
0.93,-0.98,0.41
0.96,-0.97,0.42
0.94,-0.96,0.43
0.92,-0.9,0.43
0.92,-0.84,0.45
0.93,-0.78,0.48
0.93,-0.71,0.51
0.9,-0.64,0.54
0.87,-0.58,0.57
0.82,-0.55,0.61
0.77,-0.52,0.65
0.71,-0.47,0.68
0.67,-0.4,0.69
0.61,-0.34,0.67
0.54,-0.27,0.62
0.48,-0.2,0.55
0.46,-0.16,0.48
0.47,-0.13,0.42
0.47,-0.12,0.37
0.47,-0.13,0.34
0.46,-0.12,0.32
0.4,-0.11,0.33
0.39,-0.12,0.33
0.39,-0.17,0.3
0.4,-0.21,0.26
0.4,-0.26,0.21
0.42,-0.32,0.16
0.45,-0.39,0.11
0.5,-0.44,0.09
0.54,-0.45,0.08
0.56,-0.46,0.08
0.55,-0.48,0.09
0.52,-0.51,0.08
0.48,-0.52,0.08
0.45,-0.53,0.07
0.44,-0.53,0.06
0.43,-0.52,0.07
0.42,-0.53,0.05
0.43,-0.55,0.04
0.45,-0.58,0.04
0.46,-0.61,0.06
0.45,-0.65,0.06
0.43,-0.68,0.06
0.4,-0.7,0.05
0.37,-0.74,0.03
0.36,-0.77,0.03
0.39,-0.84,0.04
0.41,-0.87,0.06
0.4,-0.91,0.07
0.39,-0.93,0.08
0.38,-0.97,0.09
0.36,-1.02,0.1
0.36,-1.06,0.12
0.35,-1.07,0.14
0.34,-1.07,0.15
0.33,-1.06,0.15
0.31,-1.05,0.15
0.29,-1.04,0.15
0.27,-1.03,0.16
0.27,-1.03,0.17
0.28,-1.03,0.18
0.28,-1.02,0.18
0.28,-1,0.2
0.27,-0.97,0.2
0.25,-0.95,0.21
0.24,-0.93,0.21
0.23,-0.91,0.22
0.22,-0.89,0.22
0.21,-0.87,0.22
0.21,-0.84,0.21
0.21,-0.82,0.18
0.21,-0.8,0.14
0.23,-0.8,0.13
0.28,-0.78,0.15
0.3,-0.77,0.18
0.3,-0.77,0.2
0.3,-0.77,0.21
0.29,-0.77,0.2
0.29,-0.77,0.21
0.31,-0.8,0.21
0.33,-0.84,0.22
0.35,-0.88,0.23
0.35,-0.89,0.24
0.35,-0.87,0.24
0.37,-0.86,0.24
0.39,-0.86,0.26
0.4,-0.86,0.27
0.39,-0.86,0.28
0.38,-0.85,0.29
0.38,-0.84,0.29
0.37,-0.83,0.3
0.37,-0.81,0.33
0.35,-0.8,0.35
0.33,-0.78,0.36
0.33,-0.76,0.37
0.33,-0.74,0.37
0.31,-0.74,0.38
0.3,-0.74,0.38
0.27,-0.75,0.35
0.26,-0.79,0.33
0.25,-0.82,0.31
0.24,-0.84,0.29
0.23,-0.87,0.27
0.24,-0.9,0.26
0.25,-0.95,0.25
0.26,-1.04,0.23
0.28,-1.16,0.21
0.29,-1.28,0.19
0.29,-1.39,0.18
0.27,-1.44,0.18
0.24,-1.43,0.19
0.23,-1.34,0.2
0.23,-1.24,0.22
0.21,-1.17,0.24
0.17,-1.12,0.26
0.14,-1.07,0.27
0.13,-1.05,0.26
0.13,-1.07,0.25
0.11,-1.13,0.26
0.1,-1.21,0.26
0.11,-1.27,0.24
0.11,-1.32,0.22
0.1,-1.37,0.2
0.1,-1.4,0.21
0.09,-1.45,0.2
0.07,-1.57,0.15
0.07,-1.57,0.13
0.08,-1.54,0.1
0.11,-1.51,0.08
0.12,-1.45,0.07
0.12,-1.38,0.08
0.13,-1.33,0.1
0.15,-1.3,0.1
0.16,-1.3,0.09
0.15,-1.28,0.08
0.15,-1.23,0.06
0.15,-1.18,0.04
0.15,-1.12,0.03
0.15,-1.07,0.04
0.15,-1.03,0.05
0.14,-1,0.05
0.13,-0.96,0.04
0.13,-0.93,0.04
0.14,-0.9,0.04
0.14,-0.87,0.05
0.14,-0.85,0.06
0.13,-0.84,0.05
0.13,-0.81,0.04
0.11,-0.79,0.02
0.11,-0.77,0.01
0.13,-0.76,0.04
0.16,-0.77,0.06
0.18,-0.8,0.07
0.19,-0.82,0.07
0.19,-0.82,0.06
0.19,-0.84,0.06
0.2,-0.86,0.05
0.21,-0.9,0.03
0.24,-0.95,0.01
0.26,-0.98,0
0.27,-1,-0.01
0.27,-0.98,-0.02
0.25,-0.94,-0.01
0.26,-0.92,0.01
0.28,-0.91,0.03
0.32,-0.91,0.07
0.34,-0.93,0.11
0.37,-0.97,0.14
0.39,-1.02,0.17
0.39,-1.06,0.17
0.39,-1.09,0.16
0.38,-1.12,0.15
0.35,-1.15,0.14
0.34,-1.17,0.13
0.36,-1.2,0.12
0.39,-1.22,0.12
0.4,-1.23,0.16
0.39,-1.26,0.17
0.37,-1.26,0.18
0.36,-1.26,0.18
0.35,-1.25,0.18
0.34,-1.23,0.17
0.34,-1.22,0.15
0.35,-1.2,0.15
0.35,-1.17,0.14
0.36,-1.14,0.12
0.37,-1.13,0.11
0.38,-1.12,0.11
0.38,-1.11,0.1
0.38,-1.1,0.09
0.39,-1.1,0.09
0.4,-1.09,0.08
0.41,-1.08,0.08
0.41,-1.06,0.09
0.4,-1.04,0.09
0.41,-1.02,0.09
0.42,-0.99,0.09
0.43,-0.96,0.1
0.43,-0.93,0.11
0.44,-0.91,0.12
0.45,-0.9,0.13
0.45,-0.89,0.14
0.44,-0.9,0.13
0.46,-0.94,0.15
0.46,-0.96,0.17
0.44,-0.95,0.19
0.42,-0.92,0.19
0.39,-0.88,0.19
0.37,-0.86,0.18
0.37,-0.86,0.17
0.39,-0.88,0.16
0.41,-0.91,0.17
0.42,-0.96,0.19
0.4,-1.01,0.21
0.38,-1.04,0.22
0.36,-1.04,0.22
0.35,-1.02,0.21
0.35,-1,0.21
0.35,-0.98,0.21
0.34,-0.99,0.22
0.34,-1.01,0.22
0.35,-1.04,0.22
0.36,-1.07,0.23
0.35,-1.1,0.23
0.33,-1.13,0.22
0.3,-1.15,0.21
0.27,-1.15,0.19
0.25,-1.14,0.18
0.24,-1.13,0.15
0.23,-1.08,0.14
0.23,-1.08,0.13
0.24,-1.07,0.13
0.25,-1.06,0.13
0.25,-1.05,0.13
0.26,-1.03,0.13
0.27,-1.02,0.13
0.28,-1.01,0.11
0.29,-1,0.1
0.31,-0.99,0.09
0.35,-0.99,0.09
0.41,-1,0.08
0.46,-1,0.09
0.48,-1,0.1
0.48,-0.99,0.1
0.48,-0.97,0.08
0.49,-0.96,0.07
0.5,-0.96,0.07
0.51,-0.97,0.06
0.52,-0.99,0.06
0.56,-0.99,0.06
0.62,-0.97,0.04
0.67,-0.94,0.03
0.7,-0.9,0.02
0.7,-0.85,0.03
0.68,-0.8,0.04
0.67,-0.7,0.04
0.65,-0.67,0.05
0.64,-0.63,0.06
0.64,-0.6,0.07
0.66,-0.58,0.07
0.68,-0.56,0.07
0.69,-0.54,0.07
0.7,-0.52,0.07
0.71,-0.5,0.08
0.72,-0.49,0.11
0.74,-0.47,0.15
0.75,-0.45,0.18
0.73,-0.44,0.21
0.73,-0.43,0.24
0.71,-0.41,0.27
0.66,-0.4,0.28
0.64,-0.38,0.29
0.65,-0.35,0.28
0.69,-0.33,0.29
0.7,-0.32,0.32
0.69,-0.3,0.35
0.68,-0.28,0.37
0.69,-0.26,0.39
0.7,-0.25,0.4
0.69,-0.24,0.4
0.72,-0.23,0.39
0.76,-0.24,0.42
0.86,-0.26,0.47
0.89,-0.28,0.5
0.91,-0.29,0.52
0.92,-0.3,0.54
0.92,-0.31,0.55
0.9,-0.33,0.57
0.88,-0.34,0.58
0.84,-0.33,0.6
0.8,-0.32,0.61
0.79,-0.31,0.62
0.8,-0.29,0.64
0.79,-0.26,0.65
0.78,-0.24,0.66
0.77,-0.22,0.66
0.76,-0.18,0.66
0.72,-0.16,0.68
0.69,-0.14,0.69
0.67,-0.12,0.7
0.67,-0.1,0.7
0.68,-0.07,0.7
0.7,-0.04,0.69
0.72,-0.02,0.67
0.75,0.01,0.66
0.75,0.04,0.66
0.76,0.07,0.67
0.77,0.11,0.74
0.74,0.14,0.77
0.72,0.17,0.8
0.71,0.19,0.83
0.71,0.22,0.83
0.71,0.25,0.8
0.73,0.27,0.78
0.75,0.27,0.77
0.79,0.27,0.8
0.8,0.27,0.84
0.76,0.25,0.86
0.7,0.27,0.87
0.64,0.3,0.87
0.57,0.3,0.87
0.53,0.32,0.86
0.5,0.35,0.86
0.48,0.39,0.85
0.46,0.4,0.84
0.46,0.41,0.84
0.48,0.4,0.84
0.46,0.38,0.85
0.42,0.37,0.87
0.38,0.36,0.91
0.35,0.37,0.95
0.33,0.38,0.97
0.32,0.39,0.98
0.32,0.4,0.94
0.33,0.41,0.94
0.34,0.41,0.94
0.33,0.4,0.93
0.31,0.38,0.95
0.31,0.36,0.98
0.29,0.34,1
0.25,0.36,0.99
0.21,0.37,0.97
0.19,0.38,0.96
0.17,0.38,0.95
0.16,0.38,0.92
0.17,0.37,0.89
0.19,0.37,0.87
0.19,0.36,0.87
0.18,0.36,0.86
0.18,0.37,0.87
0.18,0.37,0.89
0.19,0.38,0.89
0.18,0.39,0.89
0.17,0.37,0.89
0.18,0.38,0.89
0.2,0.38,0.89
0.22,0.36,0.89
0.24,0.35,0.88
0.25,0.36,0.86
0.25,0.36,0.89
0.25,0.39,0.9
0.22,0.39,0.9
0.22,0.41,0.88
0.23,0.42,0.86
0.23,0.44,0.85
0.25,0.46,0.82
0.27,0.47,0.82
0.27,0.47,0.82
0.27,0.47,0.83
0.26,0.46,0.84
0.25,0.47,0.84
0.25,0.46,0.83
0.25,0.45,0.83
0.26,0.45,0.83
0.28,0.44,0.82
0.3,0.42,0.8
0.32,0.42,0.78
0.32,0.43,0.79
0.3,0.44,0.8
0.3,0.46,0.8
0.3,0.47,0.83
0.29,0.46,0.85
0.3,0.46,0.85
0.3,0.46,0.84
0.29,0.46,0.84
0.29,0.45,0.82
0.27,0.42,0.81
0.29,0.43,0.81
0.3,0.44,0.8
0.32,0.61,0.79
0.34,0.81,0.9
0.3,0.68,1.05
0.2,0.44,1.09
0.17,0.41,1.02
0.27,0.45,0.92
0.35,0.44,0.81
0.38,0.44,0.73
0.37,0.46,0.73
0.32,0.47,0.75
0.27,0.5,0.76
0.25,0.51,0.78
0.24,0.53,0.8
0.25,0.52,0.82
0.25,0.51,0.83
0.25,0.53,0.83
0.24,0.55,0.82
0.23,0.55,0.81
0.21,0.54,0.8
0.19,0.55,0.8
0.17,0.56,0.8
0.17,0.57,0.8
0.18,0.57,0.83
0.21,0.56,0.84
0.23,0.56,0.84
0.24,0.55,0.83
0.23,0.54,0.81
0.22,0.55,0.8
0.23,0.54,0.78
0.23,0.53,0.77
0.24,0.53,0.77
0.23,0.53,0.76
0.24,0.52,0.76
0.25,0.53,0.76
0.26,0.54,0.77
0.26,0.53,0.78
0.26,0.53,0.78
0.26,0.52,0.79
0.25,0.52,0.81
0.25,0.52,0.82
0.24,0.52,0.83
0.24,0.52,0.84
0.24,0.51,0.84
0.23,0.5,0.83
0.23,0.52,0.82
0.23,0.53,0.83
0.23,0.5,0.82
0.23,0.5,0.81
0.23,0.52,0.81
0.23,0.52,0.83
0.22,0.52,0.83
0.21,0.52,0.82
0.21,0.52,0.81
0.2,0.52,0.8
0.2,0.52,0.8
0.21,0.52,0.8
0.22,0.51,0.8
0.22,0.51,0.8
0.22,0.51,0.81
0.21,0.51,0.81
0.21,0.51,0.81
0.23,0.51,0.82
0.23,0.51,0.83
0.22,0.51,0.84
0.22,0.51,0.85
0.22,0.51,0.85
0.21,0.51,0.84
0.21,0.51,0.83
0.21,0.52,0.83
0.2,0.52,0.83
0.21,0.52,0.83
0.21,0.52,0.83
0.22,0.52,0.83
0.23,0.51,0.82
0.23,0.5,0.82
0.22,0.49,0.85
0.21,0.49,0.85
0.21,0.48,0.85
0.22,0.47,0.85
0.22,0.47,0.84
0.22,0.47,0.83
0.21,0.47,0.84
0.21,0.48,0.84
0.21,0.48,0.84
0.21,0.48,0.83
0.21,0.48,0.83
0.21,0.48,0.84
0.21,0.48,0.85
0.21,0.48,0.85
0.21,0.48,0.85
0.22,0.48,0.85
0.22,0.48,0.84
0.22,0.48,0.83
0.22,0.48,0.83
0.22,0.48,0.84
0.21,0.48,0.85
0.2,0.48,0.86
0.22,0.49,0.86
0.21,0.48,0.86
0.2,0.48,0.85
0.22,0.48,0.85
0.23,0.47,0.87
0.22,0.46,0.87
0.23,0.46,0.87
0.23,0.46,0.87
0.23,0.46,0.87
0.22,0.46,0.87
0.22,0.46,0.87
0.22,0.45,0.86
0.21,0.45,0.86
0.21,0.45,0.87
0.21,0.45,0.86
0.21,0.45,0.85
0.21,0.45,0.85
0.21,0.45,0.86
0.21,0.45,0.87
0.21,0.45,0.88
0.21,0.45,0.89
0.21,0.45,0.88
0.2,0.45,0.87
0.19,0.45,0.87
0.2,0.45,0.86
0.19,0.45,0.87
0.19,0.46,0.87
