Acc_x,Acc_y,Acc_z
0.24,0.91,0.29
0.24,0.9,0.29
0.25,0.9,0.31
0.24,0.9,0.32
0.24,0.9,0.32
0.24,0.89,0.32
0.24,0.89,0.31
0.24,0.91,0.3
0.25,0.9,0.29
0.25,0.89,0.29
0.26,0.9,0.29
0.25,0.9,0.3
0.25,0.89,0.31
0.25,0.9,0.31
0.25,0.9,0.32
0.25,0.89,0.32
0.25,0.89,0.31
0.25,0.89,0.31
0.26,0.89,0.3
0.26,0.89,0.31
0.26,0.89,0.31
0.26,0.89,0.31
0.25,0.9,0.3
0.25,0.9,0.3
0.25,0.9,0.3
0.25,0.9,0.3
0.24,0.89,0.31
0.24,0.89,0.3
0.25,0.9,0.3
0.27,0.9,0.3
0.27,0.89,0.29
0.27,0.9,0.3
0.26,0.89,0.3
0.26,0.89,0.3
0.26,0.9,0.31
0.26,0.9,0.31
0.26,0.9,0.31
0.26,0.89,0.3
0.26,0.89,0.3
0.27,0.9,0.3
0.27,0.89,0.3
0.26,0.89,0.3
0.26,0.9,0.3
0.26,0.9,0.3
0.25,0.89,0.3
0.24,0.9,0.3
0.23,0.89,0.31
0.25,0.89,0.3
0.26,0.89,0.3
0.27,0.89,0.3
0.26,0.9,0.31
0.24,0.9,0.32
0.23,0.9,0.32
0.22,0.9,0.32
0.22,0.9,0.32
0.23,0.9,0.31
0.24,0.9,0.3
0.26,0.89,0.3
0.25,0.9,0.29
0.25,0.9,0.29
0.26,0.9,0.3
0.26,0.9,0.32
0.25,0.89,0.32
0.25,0.89,0.33
0.24,0.89,0.33
0.24,0.89,0.33
0.24,0.89,0.33
0.25,0.89,0.33
0.25,0.89,0.33
0.25,0.89,0.32
0.24,0.89,0.3
0.24,0.89,0.3
0.25,0.89,0.3
0.26,0.89,0.3
0.26,0.89,0.32
0.26,0.89,0.33
0.26,0.88,0.33
0.26,0.88,0.34
0.25,0.88,0.36
0.24,0.88,0.36
0.24,0.88,0.36
0.25,0.88,0.35
0.25,0.89,0.34
0.25,0.89,0.33
0.25,0.88,0.33
0.26,0.89,0.32
0.27,0.89,0.32
0.27,0.89,0.32
0.26,0.89,0.32
0.26,0.89,0.31
0.25,0.89,0.31
0.25,0.89,0.31
0.25,0.89,0.31
0.25,0.89,0.31
0.25,0.89,0.31
0.25,0.9,0.31
0.25,0.89,0.31
0.25,0.89,0.3
0.25,0.89,0.3
0.25,0.89,0.3
0.25,0.89,0.3
0.25,0.89,0.31
0.25,0.89,0.32
0.26,0.89,0.32
0.26,0.89,0.33
0.25,0.89,0.33
0.25,0.88,0.33
0.25,0.88,0.33
0.25,0.88,0.32
0.26,0.88,0.33
0.27,0.88,0.33
0.28,0.88,0.34
0.27,0.88,0.34
0.27,0.88,0.34
0.27,0.88,0.33
0.27,0.88,0.34
0.28,0.88,0.34
0.28,0.88,0.34
0.28,0.88,0.33
0.28,0.88,0.33
0.26,0.88,0.33
0.26,0.88,0.32
0.28,0.89,0.32
0.29,0.89,0.33
0.29,0.89,0.33
0.27,0.89,0.33
0.27,0.88,0.32
0.27,0.88,0.32
0.28,0.88,0.33
0.27,0.88,0.33
0.27,0.88,0.32
0.26,0.89,0.33
0.27,0.88,0.33
0.27,0.89,0.33
0.26,0.88,0.33
0.27,0.88,0.33
0.27,0.89,0.33
0.27,0.89,0.33
0.27,0.88,0.33
0.27,0.88,0.32
0.27,0.89,0.33
0.27,0.88,0.33
0.27,0.88,0.34
0.26,0.89,0.34
0.26,0.88,0.33
0.27,0.88,0.33
0.27,0.88,0.33
0.27,0.88,0.34
0.27,0.88,0.34
0.27,0.88,0.34
0.27,0.88,0.34
0.27,0.88,0.33
0.27,0.88,0.33
0.27,0.88,0.33
0.27,0.88,0.33
0.27,0.88,0.34
0.26,0.88,0.33
0.26,0.88,0.33
0.27,0.88,0.33
0.26,0.88,0.33
0.26,0.88,0.33
0.26,0.89,0.33
0.26,0.89,0.33
0.26,0.89,0.33
0.26,0.88,0.32
0.27,0.88,0.32
0.27,0.88,0.32
0.27,0.89,0.33
0.26,0.89,0.33
0.27,0.88,0.33
0.27,0.89,0.33
0.28,0.88,0.33
0.28,0.88,0.33
0.28,0.88,0.33
0.28,0.88,0.33
0.28,0.88,0.33
0.28,0.88,0.33
0.27,0.88,0.32
0.27,0.88,0.32
0.27,0.88,0.32
0.27,0.88,0.32
0.26,0.88,0.32
0.26,0.88,0.32
0.26,0.88,0.33
0.26,0.88,0.32
0.27,0.88,0.32
0.27,0.88,0.32
0.27,0.88,0.32
0.28,0.89,0.32
0.28,0.88,0.32
0.28,0.88,0.32
0.28,0.89,0.32
0.28,0.89,0.32
0.28,0.88,0.32
0.28,0.88,0.33
0.28,0.88,0.33
0.28,0.88,0.33
0.28,0.88,0.32
0.28,0.88,0.32
0.27,0.89,0.32
0.27,0.89,0.32
0.27,0.89,0.33
0.27,0.88,0.33
0.27,0.88,0.33
0.27,0.89,0.33
0.27,0.89,0.32
0.26,0.89,0.32
0.26,0.89,0.32
0.26,0.88,0.31
0.26,0.88,0.32
0.26,0.89,0.32
0.26,0.89,0.32
0.26,0.89,0.32
0.26,0.88,0.32
0.26,0.89,0.31
0.26,0.89,0.31
0.26,0.88,0.32
0.27,0.88,0.32
0.27,0.88,0.32
0.27,0.88,0.32
0.27,0.88,0.32
0.27,0.89,0.32
0.27,0.89,0.32
0.27,0.89,0.32
0.27,0.88,0.32
0.27,0.89,0.32
0.27,0.89,0.33
0.26,0.89,0.32
0.26,0.88,0.32
0.26,0.88,0.32
0.26,0.88,0.32
0.26,0.89,0.33
0.26,0.88,0.32
0.26,0.88,0.32
0.26,0.89,0.32
0.26,0.88,0.32
0.26,0.88,0.32
0.26,0.88,0.32
0.26,0.89,0.32
0.26,0.88,0.32
0.26,0.88,0.32
0.26,0.89,0.32
0.26,0.89,0.32
0.26,0.89,0.32
0.26,0.89,0.32
0.26,0.88,0.32
0.26,0.88,0.32
0.26,0.89,0.32
0.26,0.89,0.33
0.26,0.88,0.33
0.26,0.88,0.34
0.27,0.88,0.34
0.27,0.88,0.35
0.27,0.89,0.35
0.26,0.89,0.34
0.26,0.88,0.34
0.26,0.89,0.33
0.26,0.89,0.33
0.26,0.89,0.33
0.26,0.88,0.33
0.26,0.89,0.33
0.26,0.89,0.33
0.26,0.88,0.32
0.26,0.89,0.32
0.26,0.88,0.31
0.27,0.89,0.31
0.27,0.88,0.31
0.27,0.89,0.31
0.27,0.88,0.31
0.27,0.88,0.31
0.27,0.88,0.31
0.26,0.89,0.31
0.27,0.89,0.32
0.27,0.89,0.32
0.27,0.89,0.32
0.27,0.89,0.32
0.26,0.88,0.32
0.25,0.89,0.32
0.25,0.9,0.33
0.26,0.89,0.33
0.26,0.88,0.33
0.26,0.89,0.33
0.26,0.88,0.33
0.26,0.88,0.33
0.26,0.88,0.33
0.26,0.88,0.34
0.26,0.88,0.34
0.26,0.88,0.34
0.26,0.88,0.34
0.26,0.89,0.34
0.26,0.89,0.33
0.26,0.89,0.33
0.26,0.88,0.33
0.26,0.88,0.33
0.27,0.88,0.33
0.27,0.88,0.33
0.27,0.88,0.33
0.27,0.88,0.33
0.27,0.88,0.34
0.27,0.88,0.34
0.27,0.88,0.34
0.27,0.87,0.34
0.28,0.87,0.34
0.28,0.88,0.34
0.28,0.88,0.34
0.27,0.88,0.35
0.27,0.88,0.35
0.27,0.88,0.34
0.27,0.88,0.34
0.26,0.88,0.34
0.26,0.88,0.34
0.26,0.88,0.34
0.26,0.88,0.34
0.26,0.88,0.34
0.25,0.89,0.34
0.26,0.88,0.33
0.26,0.88,0.33
0.26,0.88,0.34
0.26,0.87,0.34
0.26,0.87,0.34
0.26,0.88,0.34
0.27,0.87,0.34
0.27,0.87,0.34
0.27,0.87,0.34
0.27,0.87,0.35
0.27,0.88,0.35
0.27,0.88,0.35
0.27,0.88,0.34
0.27,0.88,0.34
0.27,0.88,0.35
0.27,0.87,0.35
0.28,0.87,0.35
0.28,0.88,0.35
0.28,0.88,0.35
0.28,0.88,0.35
0.28,0.88,0.35
0.28,0.87,0.35
0.28,0.87,0.34
0.29,0.87,0.34
0.28,0.87,0.35
0.28,0.88,0.35
0.28,0.88,0.36
0.28,0.86,0.36
0.28,0.87,0.35
0.28,0.88,0.35
0.28,0.87,0.35
0.27,0.86,0.35
0.28,0.87,0.36
0.28,0.87,0.36
0.27,0.87,0.36
0.27,0.88,0.35
0.27,0.88,0.35
0.27,0.87,0.35
0.27,0.87,0.35
0.28,0.87,0.35
0.28,0.87,0.35
0.28,0.86,0.35
0.28,0.88,0.35
0.28,0.88,0.36
0.3,0.87,0.36
0.31,0.87,0.36
0.29,0.87,0.36
0.28,0.86,0.36
0.28,0.86,0.35
0.28,0.87,0.35
0.28,0.88,0.37
0.27,0.88,0.37
0.27,0.88,0.38
0.28,0.87,0.37
0.29,0.87,0.35
0.28,0.87,0.35
0.28,0.87,0.35
0.28,0.87,0.35
0.28,0.86,0.35
0.27,0.86,0.35
0.24,0.87,0.37
0.21,0.87,0.39
0.22,0.86,0.4
0.26,0.86,0.4
0.28,0.86,0.39
0.28,0.86,0.39
0.28,0.86,0.39
0.27,0.86,0.39
0.27,0.86,0.39
0.26,0.86,0.37
0.24,0.87,0.35
0.22,0.87,0.35
0.22,0.87,0.36
0.24,0.87,0.37
0.27,0.87,0.37
0.28,0.87,0.37
0.29,0.87,0.38
0.29,0.87,0.38
0.29,0.86,0.38
0.28,0.87,0.39
0.27,0.86,0.38
0.27,0.86,0.38
0.28,0.87,0.37
0.28,0.87,0.36
0.28,0.87,0.36
0.27,0.87,0.36
0.26,0.87,0.36
0.26,0.87,0.36
0.26,0.87,0.35
0.27,0.87,0.35
0.27,0.87,0.35
0.27,0.87,0.35
0.26,0.87,0.35
0.26,0.87,0.36
0.26,0.87,0.35
0.27,0.87,0.34
0.29,0.87,0.34
0.3,0.87,0.35
0.28,0.87,0.35
0.27,0.87,0.36
0.26,0.87,0.37
0.26,0.87,0.38
0.26,0.87,0.38
0.27,0.86,0.38
0.28,0.86,0.37
0.28,0.86,0.36
0.29,0.86,0.35
0.29,0.86,0.35
0.29,0.87,0.36
0.29,0.87,0.37
0.3,0.87,0.36
0.31,0.87,0.35
0.31,0.86,0.34
0.3,0.87,0.35
0.29,0.87,0.37
0.29,0.87,0.37
0.29,0.86,0.36
0.3,0.86,0.35
0.32,0.87,0.34
0.31,0.87,0.34
0.28,0.87,0.33
0.26,0.87,0.35
0.26,0.87,0.34
0.28,0.87,0.35
0.28,0.87,0.35
0.27,0.87,0.36
0.26,0.86,0.37
0.26,0.86,0.38
0.26,0.86,0.38
0.27,0.86,0.38
0.27,0.86,0.38
0.26,0.86,0.38
0.26,0.86,0.38
0.26,0.86,0.38
0.27,0.87,0.38
0.27,0.87,0.38
0.26,0.87,0.38
0.26,0.87,0.37
0.27,0.87,0.36
0.28,0.87,0.35
0.29,0.87,0.36
0.29,0.87,0.37
0.27,0.87,0.39
0.27,0.87,0.39
0.27,0.86,0.4
0.27,0.87,0.4
0.26,0.87,0.39
0.26,0.86,0.37
0.26,0.87,0.36
0.26,0.87,0.34
0.26,0.86,0.34
0.27,0.87,0.33
0.28,0.87,0.34
0.29,0.87,0.35
0.29,0.87,0.35
0.29,0.88,0.35
0.28,0.88,0.35
0.28,0.88,0.35
0.28,0.88,0.35
0.28,0.88,0.35
0.27,0.88,0.35
0.27,0.87,0.34
0.27,0.87,0.34
0.26,0.87,0.35
0.27,0.87,0.35
0.27,0.87,0.36
0.27,0.87,0.35
0.28,0.87,0.35
0.28,0.87,0.36
0.28,0.87,0.36
0.28,0.87,0.36
0.28,0.87,0.36
0.28,0.87,0.35
0.28,0.87,0.35
0.28,0.87,0.35
0.28,0.87,0.35
0.28,0.87,0.35
0.28,0.87,0.36
0.28,0.87,0.36
0.28,0.87,0.36
0.27,0.87,0.36
0.27,0.87,0.35
0.27,0.87,0.35
0.27,0.87,0.35
0.27,0.87,0.35
0.28,0.87,0.35
0.28,0.87,0.35
0.29,0.87,0.35
0.28,0.87,0.35
0.27,0.87,0.35
0.27,0.87,0.35
0.27,0.87,0.35
0.28,0.87,0.35
0.27,0.87,0.35
0.27,0.87,0.35
0.27,0.87,0.34
0.27,0.87,0.34
0.28,0.87,0.34
0.28,0.87,0.33
0.28,0.87,0.33
0.27,0.87,0.33
0.25,0.87,0.32
0.24,0.89,0.32
0.23,0.9,0.34
0.23,0.89,0.36
0.26,0.88,0.37
0.29,0.87,0.38
0.31,0.87,0.4
0.33,0.86,0.4
0.37,0.85,0.39
0.38,0.85,0.37
0.39,0.86,0.35
0.38,0.87,0.36
0.34,0.86,0.35
0.32,0.86,0.33
0.31,0.87,0.31
0.32,0.87,0.3
0.31,0.87,0.3
0.31,0.86,0.29
0.31,0.87,0.27
0.3,0.87,0.28
0.3,0.87,0.28
0.31,0.87,0.29
0.33,0.87,0.29
0.35,0.87,0.3
0.34,0.87,0.32
0.34,0.86,0.34
0.32,0.86,0.36
0.32,0.86,0.37
0.33,0.86,0.37
0.34,0.86,0.35
0.35,0.86,0.34
0.35,0.86,0.34
0.35,0.85,0.33
0.35,0.85,0.31
0.36,0.85,0.28
0.37,0.86,0.27
0.37,0.86,0.27
0.36,0.86,0.28
0.35,0.86,0.29
0.35,0.87,0.28
0.34,0.87,0.27
0.34,0.87,0.28
0.33,0.87,0.29
0.34,0.87,0.28
0.35,0.87,0.28
0.36,0.87,0.27
0.37,0.87,0.27
0.37,0.87,0.27
0.36,0.87,0.26
0.35,0.87,0.25
0.36,0.87,0.25
0.36,0.87,0.26
0.35,0.88,0.26
0.34,0.87,0.25
0.34,0.87,0.25
0.34,0.88,0.25
0.34,0.88,0.26
0.34,0.88,0.27
0.34,0.88,0.28
0.34,0.87,0.28
0.33,0.87,0.26
0.33,0.87,0.23
0.33,0.88,0.21
0.34,0.88,0.21
0.36,0.88,0.23
0.38,0.88,0.24
0.39,0.87,0.26
0.39,0.87,0.27
0.38,0.87,0.25
0.36,0.87,0.22
0.36,0.87,0.23
0.37,0.87,0.25
0.38,0.88,0.26
0.38,0.87,0.26
0.37,0.87,0.27
0.36,0.87,0.27
0.36,0.88,0.28
0.36,0.87,0.27
0.36,0.87,0.26
0.35,0.87,0.26
0.34,0.87,0.27
0.35,0.87,0.28
0.35,0.87,0.29
0.35,0.87,0.29
0.38,0.87,0.29
0.38,0.87,0.29
0.37,0.87,0.29
0.37,0.86,0.29
0.38,0.86,0.28
0.4,0.87,0.27
0.4,0.88,0.28
0.39,0.87,0.27
0.39,0.87,0.26
0.4,0.87,0.26
0.4,0.87,0.25
0.37,0.88,0.25
0.36,0.88,0.23
0.35,0.88,0.23
0.34,0.88,0.23
0.33,0.89,0.23
0.32,0.89,0.23
0.31,0.89,0.22
0.3,0.89,0.22
0.3,0.89,0.22
0.29,0.89,0.21
0.29,0.89,0.22
0.3,0.89,0.23
0.3,0.89,0.24
0.3,0.89,0.24
0.31,0.88,0.24
0.31,0.88,0.25
0.32,0.88,0.25
0.32,0.89,0.25
0.32,0.88,0.26
0.33,0.88,0.27
0.33,0.88,0.28
0.33,0.88,0.29
0.33,0.88,0.29
0.33,0.88,0.29
0.33,0.88,0.28
0.33,0.88,0.27
0.33,0.88,0.27
0.34,0.88,0.26
0.34,0.88,0.26
0.34,0.89,0.26
0.35,0.88,0.27
0.35,0.88,0.27
0.35,0.88,0.27
0.35,0.88,0.27
0.35,0.88,0.27
0.35,0.88,0.27
0.35,0.88,0.26
0.35,0.88,0.26
0.35,0.88,0.26
0.34,0.88,0.26
0.34,0.88,0.25
0.34,0.88,0.25
0.34,0.88,0.23
0.34,0.87,0.24
0.33,0.88,0.24
0.33,0.88,0.25
0.32,0.87,0.26
0.32,0.88,0.27
0.33,0.89,0.27
0.34,0.88,0.28
0.34,0.88,0.27
0.34,0.88,0.26
0.34,0.88,0.25
0.32,0.88,0.24
0.31,0.88,0.23
0.31,0.88,0.24
0.33,0.88,0.25
0.35,0.87,0.25
0.37,0.87,0.26
0.38,0.87,0.26
0.38,0.88,0.26
0.36,0.88,0.25
0.35,0.87,0.25
0.34,0.87,0.26
0.33,0.87,0.27
0.35,0.86,0.28
0.36,0.87,0.28
0.37,0.86,0.27
0.39,0.86,0.28
0.4,0.85,0.28
0.41,0.85,0.3
0.41,0.86,0.3
0.39,0.85,0.32
0.39,0.84,0.34
0.36,0.86,0.35
0.33,0.86,0.34
0.33,0.84,0.33
0.37,0.85,0.31
0.4,0.86,0.31
0.4,0.86,0.31
0.39,0.86,0.33
0.38,0.86,0.35
0.36,0.86,0.35
0.35,0.85,0.35
0.35,0.85,0.34
0.36,0.85,0.33
0.37,0.86,0.29
0.37,0.86,0.26
0.39,0.86,0.25
0.4,0.86,0.25
0.4,0.86,0.26
0.39,0.86,0.28
0.38,0.87,0.29
0.39,0.86,0.29
0.39,0.85,0.3
0.38,0.85,0.29
0.37,0.85,0.29
0.36,0.85,0.29
0.35,0.86,0.29
0.34,0.86,0.29
0.33,0.86,0.29
0.34,0.86,0.29
0.35,0.86,0.29
0.35,0.86,0.3
0.35,0.86,0.31
0.35,0.86,0.32
0.36,0.85,0.32
0.36,0.86,0.32
0.35,0.86,0.32
0.35,0.86,0.32
0.35,0.86,0.32
0.35,0.86,0.32
0.35,0.86,0.32
0.36,0.86,0.31
0.37,0.85,0.3
0.38,0.86,0.29
0.39,0.86,0.29
0.39,0.85,0.29
0.38,0.86,0.29
0.38,0.86,0.29
0.38,0.86,0.3
0.38,0.86,0.3
0.37,0.86,0.3
0.36,0.86,0.3
0.37,0.86,0.3
0.39,0.86,0.29
0.39,0.86,0.29
0.39,0.85,0.29
0.39,0.85,0.29
0.39,0.86,0.29
0.38,0.86,0.28
0.37,0.86,0.29
0.37,0.86,0.28
0.38,0.86,0.28
0.39,0.86,0.28
0.38,0.86,0.28
0.37,0.86,0.29
0.37,0.86,0.29
0.37,0.86,0.29
0.37,0.86,0.29
0.37,0.86,0.28
0.37,0.86,0.28
0.37,0.86,0.28
0.38,0.86,0.28
0.38,0.86,0.29
0.37,0.86,0.29
0.37,0.86,0.29
0.37,0.86,0.29
0.37,0.86,0.28
0.37,0.86,0.29
0.37,0.86,0.29
0.37,0.86,0.29
0.37,0.86,0.29
0.37,0.86,0.29
0.36,0.86,0.29
0.36,0.86,0.29
0.36,0.86,0.29
0.36,0.87,0.29
0.35,0.87,0.29
0.35,0.87,0.29
0.35,0.87,0.29
0.35,0.86,0.29
0.35,0.86,0.28
0.34,0.86,0.29
0.34,0.86,0.28
0.34,0.87,0.28
0.34,0.87,0.28
0.34,0.87,0.28
0.34,0.87,0.28
0.34,0.87,0.28
0.34,0.87,0.28
0.34,0.87,0.28
0.35,0.87,0.28
0.35,0.87,0.28
0.36,0.86,0.29
0.36,0.86,0.29
0.35,0.86,0.29
0.36,0.86,0.29
0.36,0.86,0.29
0.36,0.86,0.3
0.36,0.86,0.3
0.36,0.86,0.29
0.36,0.87,0.29
0.36,0.87,0.29
0.36,0.87,0.29
0.36,0.87,0.29
0.36,0.87,0.29
0.35,0.87,0.29
0.35,0.87,0.29
0.35,0.87,0.28
0.35,0.87,0.28
0.35,0.86,0.29
0.35,0.86,0.28
0.35,0.87,0.28
0.35,0.87,0.28
0.34,0.87,0.27
0.34,0.87,0.27
0.34,0.87,0.28
0.34,0.87,0.29
0.35,0.87,0.29
0.36,0.87,0.29
0.35,0.87,0.29
0.35,0.86,0.29
0.35,0.86,0.29
0.35,0.87,0.29
0.35,0.87,0.29
0.35,0.87,0.29
0.34,0.87,0.3
0.35,0.87,0.31
0.35,0.86,0.31
0.36,0.86,0.3
0.36,0.86,0.3
0.35,0.86,0.3
0.35,0.87,0.3
0.35,0.87,0.3
0.35,0.87,0.3
0.35,0.87,0.3
0.35,0.88,0.31
0.35,0.87,0.31
0.35,0.86,0.31
0.35,0.86,0.31
0.35,0.87,0.3
0.35,0.86,0.3
0.35,0.86,0.3
0.34,0.87,0.3
0.34,0.87,0.31
0.33,0.87,0.31
0.33,0.87,0.31
0.33,0.88,0.31
0.33,0.88,0.31
0.33,0.88,0.3
0.32,0.88,0.3
0.32,0.88,0.3
0.32,0.88,0.3
0.32,0.88,0.3
0.32,0.88,0.31
0.32,0.89,0.31
0.32,0.88,0.31
0.32,0.88,0.3
0.32,0.88,0.3
0.32,0.88,0.3
0.32,0.87,0.3
0.31,0.88,0.3
0.31,0.88,0.3
0.31,0.89,0.3
0.31,0.89,0.29
0.31,0.89,0.28
0.3,0.89,0.27
0.3,0.89,0.27
0.29,0.89,0.27
0.29,0.9,0.27
0.28,0.9,0.27
0.27,0.9,0.26
0.27,0.91,0.25
0.27,0.91,0.24
0.26,0.9,0.23
0.25,0.91,0.23
0.25,0.91,0.22
0.25,0.91,0.22
0.25,0.91,0.22
0.25,0.91,0.22
0.25,0.91,0.22
0.25,0.92,0.21
0.25,0.92,0.21
0.25,0.92,0.21
0.24,0.92,0.21
0.25,0.92,0.2
0.25,0.91,0.2
0.25,0.92,0.22
0.24,0.92,0.23
0.24,0.92,0.23
0.25,0.92,0.22
0.25,0.92,0.23
0.25,0.91,0.23
0.24,0.91,0.23
0.24,0.92,0.23
0.24,0.91,0.22
0.24,0.91,0.23
0.24,0.91,0.24
0.23,0.91,0.24
0.24,0.91,0.24
0.24,0.91,0.25
0.24,0.92,0.25
0.23,0.92,0.24
0.23,0.92,0.24
0.22,0.92,0.23
0.23,0.91,0.22
0.25,0.91,0.22
0.26,0.92,0.25
0.24,0.92,0.28
0.23,0.91,0.29
0.23,0.91,0.28
0.24,0.91,0.27
0.25,0.91,0.26
0.24,0.91,0.26
0.24,0.91,0.26
0.24,0.91,0.26
0.25,0.91,0.27
0.25,0.91,0.27
0.25,0.9,0.27
0.25,0.91,0.27
0.25,0.91,0.27
0.25,0.9,0.28
0.24,0.9,0.28
0.25,0.9,0.28
0.25,0.9,0.28
0.25,0.9,0.28
0.25,0.9,0.29
0.26,0.9,0.29
0.26,0.9,0.29
0.26,0.9,0.29
0.26,0.9,0.29
0.26,0.9,0.29
0.25,0.9,0.28
0.24,0.9,0.28
0.25,0.9,0.28
0.27,0.9,0.28
0.29,0.9,0.29
0.29,0.9,0.29
0.28,0.89,0.31
0.28,0.89,0.32
0.28,0.91,0.3
0.27,0.9,0.26
0.26,0.9,0.26
0.25,0.9,0.28
0.25,0.89,0.3
0.26,0.9,0.3
0.26,0.9,0.3
0.26,0.9,0.29
0.26,0.9,0.29
0.26,0.89,0.29
0.26,0.9,0.29
0.25,0.9,0.29
0.25,0.9,0.28
0.26,0.9,0.28
0.25,0.9,0.29
0.25,0.9,0.29
0.25,0.9,0.29
0.25,0.9,0.29
0.25,0.9,0.28
0.25,0.9,0.28
0.25,0.9,0.28
0.26,0.9,0.28
0.26,0.9,0.28
0.27,0.9,0.28
0.27,0.9,0.28
0.27,0.9,0.28
0.28,0.9,0.28
0.28,0.89,0.28
0.29,0.89,0.28
0.29,0.89,0.28
0.29,0.89,0.28
0.29,0.89,0.28
0.28,0.89,0.29
0.28,0.89,0.28
0.28,0.89,0.28
0.28,0.89,0.28
0.28,0.89,0.28
0.29,0.89,0.27
0.3,0.89,0.27
0.29,0.89,0.28
0.29,0.89,0.28
0.28,0.89,0.28
0.28,0.89,0.28
0.28,0.89,0.28
0.28,0.89,0.28
0.28,0.89,0.28
0.27,0.89,0.28
0.27,0.9,0.28
0.29,0.9,0.27
0.3,0.9,0.27
0.29,0.91,0.27
0.29,0.91,0.28
0.28,0.9,0.28
0.29,0.9,0.28
0.28,0.9,0.28
0.28,0.9,0.29
0.26,0.9,0.29
0.26,0.9,0.3
0.28,0.89,0.3
0.31,0.89,0.3
0.33,0.88,0.3
0.33,0.88,0.31
0.34,0.88,0.31
0.33,0.89,0.32
0.33,0.88,0.32
0.31,0.87,0.32
0.3,0.85,0.31
0.33,0.84,0.29
0.35,0.83,0.28
0.36,0.81,0.28
0.33,0.83,0.29
0.31,0.83,0.29
0.33,0.81,0.27
0.36,0.82,0.27
0.4,0.84,0.28
0.47,0.85,0.29
0.52,0.88,0.3
0.55,0.88,0.32
0.57,0.84,0.34
0.59,0.78,0.35
0.63,0.74,0.34
0.69,0.71,0.33
0.75,0.69,0.32
0.8,0.67,0.31
0.84,0.66,0.3
0.84,0.64,0.29
0.83,0.63,0.27
0.83,0.61,0.24
0.85,0.6,0.22
0.87,0.58,0.21
0.86,0.55,0.21
0.87,0.52,0.21
0.88,0.49,0.2
0.88,0.45,0.2
0.88,0.42,0.21
0.89,0.39,0.21
0.9,0.35,0.2
0.9,0.3,0.19
0.88,0.27,0.2
0.86,0.24,0.21
0.85,0.2,0.22
0.81,0.17,0.23
0.77,0.15,0.23
0.76,0.14,0.24
0.74,0.12,0.25
0.71,0.12,0.25
0.7,0.1,0.22
0.76,0.06,0.19
0.83,0.01,0.18
0.88,-0.01,0.2
0.91,0,0.24
0.91,0.01,0.27
0.91,0.02,0.31
0.9,0.04,0.31
0.82,0.04,0.3
0.76,0.04,0.27
0.76,0.03,0.24
0.83,0,0.22
0.91,-0.03,0.22
0.96,-0.05,0.25
0.99,-0.07,0.3
0.98,-0.07,0.33
0.95,-0.08,0.34
0.91,-0.08,0.34
0.87,-0.09,0.35
0.82,-0.11,0.34
0.76,-0.11,0.33
0.72,-0.12,0.3
0.75,-0.15,0.27
0.81,-0.19,0.25
0.89,-0.21,0.27
0.94,-0.23,0.31
0.96,-0.26,0.34
0.94,-0.28,0.35
0.96,-0.31,0.35
0.92,-0.32,0.27
0.96,-0.29,0.25
0.93,-0.3,0.28
0.83,-0.38,0.27
0.93,-0.42,0.28
1.06,-0.47,0.26
1.15,-0.51,0.23
1.13,-0.52,0.21
1.03,-0.51,0.23
1.06,-0.52,0.25
1.13,-0.52,0.21
1.1,-0.5,0.22
1.03,-0.48,0.23
1.05,-0.47,0.23
1.1,-0.53,0.24
1.1,-0.5,0.22
1.04,-0.45,0.15
1.02,-0.41,0.11
1.08,-0.37,0.12
1.04,-0.4,0.11
0.97,-0.4,0.13
0.94,-0.44,0.11
1,-0.4,0.13
0.98,-0.44,0.13
0.97,-0.45,0.14
0.99,-0.44,0.1
0.99,-0.43,0.09
0.97,-0.44,0.11
0.94,-0.46,0.11
0.92,-0.47,0.12
0.89,-0.46,0.15
0.86,-0.47,0.16
0.84,-0.49,0.15
0.83,-0.49,0.15
0.83,-0.5,0.16
0.81,-0.52,0.16
0.8,-0.54,0.16
0.8,-0.56,0.15
0.8,-0.56,0.14
0.78,-0.57,0.14
0.75,-0.59,0.16
0.72,-0.61,0.18
0.71,-0.64,0.2
0.7,-0.64,0.22
0.68,-0.65,0.23
0.67,-0.66,0.24
0.67,-0.68,0.24
0.68,-0.71,0.25
0.7,-0.72,0.26
0.71,-0.74,0.29
0.71,-0.76,0.29
0.72,-0.77,0.3
0.73,-0.78,0.3
0.71,-0.78,0.3
0.68,-0.79,0.31
0.66,-0.81,0.29
0.63,-0.82,0.3
0.62,-0.81,0.31
0.61,-0.8,0.32
0.6,-0.8,0.32
0.58,-0.81,0.32
0.59,-0.81,0.31
0.6,-0.81,0.3
0.59,-0.81,0.3
0.58,-0.81,0.32
0.57,-0.82,0.33
0.54,-0.82,0.32
0.52,-0.82,0.31
0.5,-0.83,0.31
0.49,-0.83,0.3
0.49,-0.83,0.3
0.51,-0.84,0.28
0.53,-0.84,0.27
0.53,-0.84,0.27
0.5,-0.84,0.28
0.48,-0.84,0.28
0.45,-0.83,0.29
0.44,-0.83,0.29
0.44,-0.84,0.28
0.43,-0.84,0.28
0.42,-0.85,0.29
0.4,-0.85,0.29
0.39,-0.86,0.29
0.38,-0.87,0.28
0.38,-0.87,0.27
0.38,-0.88,0.27
0.37,-0.89,0.27
0.36,-0.9,0.27
0.35,-0.92,0.28
0.35,-0.92,0.27
0.34,-0.93,0.27
0.34,-0.95,0.27
0.33,-0.95,0.27
0.31,-0.95,0.27
0.3,-0.95,0.27
0.3,-0.96,0.27
0.29,-0.96,0.27
0.28,-0.96,0.26
0.28,-0.95,0.26
0.27,-0.95,0.26
0.27,-0.94,0.26
0.26,-0.94,0.25
0.26,-0.94,0.25
0.26,-0.94,0.25
0.25,-0.93,0.26
0.25,-0.92,0.26
0.26,-0.92,0.27
0.26,-0.91,0.3
0.27,-0.91,0.3
0.28,-0.91,0.31
0.28,-0.9,0.31
0.28,-0.9,0.31
0.28,-0.9,0.31
0.28,-0.9,0.31
0.28,-0.9,0.32
0.28,-0.9,0.32
0.28,-0.9,0.32
0.29,-0.9,0.31
0.29,-0.9,0.31
0.29,-0.9,0.31
0.28,-0.9,0.3
0.28,-0.9,0.3
0.28,-0.9,0.3
0.27,-0.9,0.3
0.27,-0.9,0.3
0.27,-0.9,0.3
0.27,-0.9,0.3
0.27,-0.91,0.31
0.27,-0.91,0.31
0.27,-0.92,0.32
0.27,-0.92,0.32
0.27,-0.92,0.32
0.27,-0.93,0.31
0.27,-0.93,0.3
0.26,-0.94,0.29
0.25,-0.94,0.28
0.24,-0.94,0.27
0.23,-0.95,0.28
0.23,-0.95,0.28
0.23,-0.96,0.28
0.23,-0.96,0.28
0.22,-0.97,0.29
0.21,-0.97,0.3
0.22,-0.97,0.3
0.23,-0.97,0.3
0.24,-0.96,0.29
0.24,-0.96,0.29
0.23,-0.96,0.27
0.23,-0.96,0.27
0.22,-0.96,0.27
0.21,-0.95,0.26
0.21,-0.94,0.26
0.21,-0.93,0.26
0.21,-0.92,0.26
0.21,-0.91,0.26
0.21,-0.91,0.25
0.22,-0.91,0.25
0.23,-0.91,0.25
0.23,-0.92,0.25
0.23,-0.91,0.24
0.24,-0.91,0.24
0.25,-0.91,0.23
0.25,-0.92,0.23
0.25,-0.93,0.22
0.25,-0.93,0.22
0.26,-0.93,0.22
0.26,-0.93,0.22
0.26,-0.94,0.22
0.27,-0.95,0.22
0.27,-0.95,0.22
0.26,-0.95,0.22
0.27,-0.95,0.21
0.27,-0.96,0.21
0.27,-0.96,0.21
0.27,-0.96,0.22
0.27,-0.96,0.23
0.27,-0.96,0.23
0.27,-0.96,0.23
0.27,-0.96,0.23
0.28,-0.96,0.23
0.28,-0.96,0.24
0.28,-0.96,0.25
0.27,-0.95,0.25
0.27,-0.95,0.24
0.27,-0.95,0.23
0.26,-0.95,0.23
0.25,-0.95,0.23
0.24,-0.94,0.22
0.25,-0.94,0.22
0.25,-0.94,0.22
0.25,-0.94,0.22
0.25,-0.94,0.22
0.24,-0.94,0.22
0.25,-0.95,0.21
0.25,-0.96,0.21
0.25,-0.96,0.21
0.24,-0.96,0.21
0.24,-0.97,0.21
0.24,-0.97,0.21
0.23,-0.97,0.21
0.23,-0.97,0.21
0.22,-0.97,0.21
0.22,-0.97,0.22
0.22,-0.97,0.22
0.22,-0.97,0.22
0.22,-0.98,0.22
0.21,-0.98,0.22
0.19,-0.98,0.22
0.18,-0.98,0.22
0.17,-0.98,0.22
0.16,-0.98,0.22
0.15,-0.97,0.22
0.14,-0.97,0.22
0.14,-0.97,0.22
0.13,-0.98,0.22
0.13,-0.98,0.22
0.13,-0.98,0.22
0.13,-0.98,0.22
0.13,-0.98,0.22
0.13,-0.98,0.21
0.14,-0.99,0.2
0.14,-0.99,0.2
0.14,-0.98,0.2
0.14,-0.98,0.2
0.14,-0.98,0.2
0.14,-0.98,0.2
0.13,-0.98,0.2
0.13,-0.98,0.2
0.13,-0.98,0.21
0.13,-0.98,0.21
0.13,-0.98,0.21
0.13,-0.98,0.21
0.12,-0.97,0.21
0.12,-0.97,0.22
0.12,-0.98,0.22
0.13,-0.98,0.22
0.13,-0.98,0.22
0.13,-0.98,0.22
0.13,-0.98,0.22
0.13,-0.97,0.22
0.13,-0.97,0.22
0.13,-0.98,0.22
0.14,-0.98,0.22
0.14,-0.97,0.22
0.15,-0.97,0.21
0.15,-0.97,0.21
0.16,-0.98,0.21
0.16,-0.99,0.21
0.18,-0.99,0.22
0.19,-1,0.22
0.19,-1,0.22
0.2,-1,0.22
0.2,-1,0.22
0.2,-0.99,0.22
0.21,-0.97,0.22
0.21,-0.97,0.22
0.21,-0.96,0.22
0.2,-0.96,0.22
0.2,-0.96,0.22
0.21,-0.96,0.22
0.21,-0.96,0.23
0.21,-0.96,0.23
0.21,-0.96,0.24
0.22,-0.97,0.24
0.22,-0.96,0.24
0.22,-0.96,0.24
0.23,-0.96,0.25
0.23,-0.96,0.25
0.23,-0.96,0.25
0.23,-0.96,0.24
0.24,-0.97,0.24
0.24,-0.97,0.24
0.24,-0.97,0.24
0.24,-0.96,0.24
0.24,-0.96,0.24
0.24,-0.96,0.23
0.24,-0.96,0.23
0.23,-0.96,0.23
0.23,-0.96,0.23
0.23,-0.96,0.23
0.24,-0.97,0.22
0.23,-0.96,0.22
0.23,-0.96,0.22
0.22,-0.96,0.22
0.22,-0.96,0.21
0.21,-0.96,0.21
0.21,-0.95,0.21
0.21,-0.96,0.21
0.21,-0.96,0.22
0.21,-0.96,0.21
0.21,-0.97,0.21
0.21,-0.96,0.21
0.2,-0.97,0.21
0.2,-0.97,0.21
0.2,-0.97,0.21
0.2,-0.97,0.21
0.19,-0.97,0.21
0.19,-0.97,0.21
0.18,-0.97,0.21
0.18,-0.96,0.21
0.18,-0.96,0.2
0.18,-0.96,0.2
0.17,-0.96,0.21
0.17,-0.96,0.22
0.16,-0.96,0.22
0.16,-0.96,0.22
0.16,-0.96,0.22
0.17,-0.97,0.22
0.17,-0.98,0.23
0.17,-0.98,0.24
0.17,-0.99,0.25
0.16,-0.99,0.25
0.15,-0.99,0.25
0.15,-0.99,0.25
0.16,-0.98,0.25
0.15,-0.97,0.26
0.14,-0.95,0.27
0.13,-0.93,0.27
0.12,-0.9,0.27
0.11,-0.89,0.27
0.12,-0.88,0.27
0.13,-0.88,0.28
0.14,-0.87,0.29
0.14,-0.87,0.29
0.14,-0.87,0.3
0.15,-0.87,0.29
0.17,-0.89,0.29
0.17,-0.9,0.29
0.18,-0.91,0.29
0.19,-0.92,0.3
0.21,-0.93,0.3
0.22,-0.94,0.29
0.23,-0.95,0.29
0.24,-0.96,0.29
0.25,-0.96,0.28
0.26,-0.96,0.27
0.27,-0.96,0.25
0.27,-0.94,0.24
0.27,-0.92,0.23
0.27,-0.9,0.23
0.28,-0.88,0.21
0.31,-0.87,0.2
0.34,-0.88,0.2
0.38,-0.94,0.21
0.41,-1.01,0.21
0.43,-1.06,0.2
0.45,-1.08,0.19
0.45,-1.08,0.17
0.45,-1.08,0.16
0.45,-1.06,0.15
0.46,-1.05,0.15
0.48,-1.04,0.14
0.51,-1.03,0.14
0.52,-1.04,0.16
0.52,-1.08,0.17
0.52,-1.11,0.17
0.54,-1.11,0.15
0.56,-1.09,0.14
0.57,-1.06,0.13
0.58,-1.02,0.13
0.59,-0.99,0.13
0.6,-0.96,0.14
0.61,-0.93,0.14
0.63,-0.9,0.13
0.64,-0.89,0.14
0.64,-0.88,0.14
0.65,-0.87,0.14
0.66,-0.87,0.14
0.66,-0.87,0.15
0.66,-0.86,0.16
0.65,-0.86,0.16
0.64,-0.85,0.17
0.63,-0.84,0.17
0.62,-0.84,0.17
0.62,-0.83,0.17
0.61,-0.83,0.16
0.6,-0.82,0.16
0.59,-0.81,0.16
0.59,-0.8,0.16
0.58,-0.79,0.16
0.58,-0.78,0.15
0.57,-0.76,0.15
0.56,-0.73,0.15
0.56,-0.73,0.15
0.56,-0.71,0.15
0.56,-0.7,0.16
0.56,-0.69,0.16
0.56,-0.68,0.15
0.56,-0.67,0.15
0.56,-0.67,0.14
0.57,-0.67,0.15
0.56,-0.67,0.15
0.56,-0.67,0.16
0.57,-0.66,0.17
0.58,-0.66,0.18
0.59,-0.67,0.18
0.59,-0.68,0.17
0.59,-0.69,0.17
0.58,-0.69,0.17
0.58,-0.7,0.16
0.58,-0.7,0.16
0.57,-0.7,0.17
0.57,-0.71,0.17
0.57,-0.71,0.17
0.57,-0.71,0.18
0.57,-0.71,0.18
0.57,-0.71,0.19
0.57,-0.71,0.2
0.57,-0.71,0.21
0.56,-0.71,0.21
0.56,-0.71,0.2
0.55,-0.71,0.2
0.54,-0.71,0.21
0.53,-0.71,0.21
0.53,-0.71,0.21
0.52,-0.72,0.21
0.52,-0.73,0.21
0.52,-0.73,0.21
0.52,-0.75,0.21
0.52,-0.75,0.21
0.52,-0.76,0.21
0.52,-0.76,0.21
0.53,-0.78,0.21
0.53,-0.82,0.22
0.53,-0.86,0.22
0.53,-0.9,0.2
0.52,-0.95,0.19
0.51,-0.99,0.17
0.5,-1.02,0.16
0.5,-1.03,0.15
0.5,-1.04,0.14
0.51,-1.06,0.14
0.53,-1.12,0.14
0.54,-1.19,0.13
0.54,-1.24,0.12
0.52,-1.27,0.13
0.5,-1.26,0.13
0.48,-1.21,0.13
0.45,-1.13,0.13
0.43,-1.03,0.13
0.42,-0.92,0.13
0.41,-0.84,0.13
0.4,-0.79,0.14
0.41,-0.79,0.14
0.42,-0.83,0.14
0.43,-0.9,0.13
0.42,-0.96,0.11
0.4,-1.01,0.09
0.37,-1.05,0.08
0.35,-1.08,0.07
0.33,-1.08,0.05
0.32,-1.06,0.05
0.3,-1.02,0.05
0.3,-0.96,0.05
0.31,-0.88,0.05
0.33,-0.81,0.08
0.34,-0.73,0.08
0.36,-0.7,0.08
0.37,-0.67,0.08
0.38,-0.64,0.08
0.39,-0.64,0.08
0.38,-0.63,0.08
0.37,-0.64,0.09
0.37,-0.66,0.11
0.37,-0.69,0.12
0.38,-0.71,0.13
0.4,-0.73,0.14
0.41,-0.75,0.15
0.41,-0.77,0.14
0.41,-0.78,0.14
0.42,-0.79,0.14
0.48,-0.8,0.15
0.54,-0.8,0.2
0.56,-0.78,0.26
0.56,-0.77,0.3
0.55,-0.77,0.32
0.53,-0.79,0.32
0.54,-0.8,0.31
0.59,-0.8,0.28
0.62,-0.8,0.27
0.62,-0.81,0.29
0.63,-0.82,0.3
0.64,-0.83,0.31
0.64,-0.82,0.32
0.64,-0.82,0.33
0.65,-0.85,0.33
0.65,-0.88,0.33
0.65,-0.9,0.33
0.64,-0.92,0.33
0.63,-0.93,0.32
0.64,-0.98,0.3
0.68,-1.06,0.28
0.71,-1.15,0.26
0.72,-1.23,0.26
0.71,-1.28,0.26
0.69,-1.29,0.27
0.66,-1.27,0.26
0.64,-1.22,0.25
0.62,-1.14,0.23
0.62,-0.99,0.21
0.6,-0.94,0.2
0.58,-0.89,0.19
0.58,-0.87,0.17
0.6,-0.88,0.14
0.6,-0.91,0.12
0.59,-0.94,0.12
0.57,-0.96,0.12
0.55,-0.97,0.12
0.52,-0.96,0.12
0.51,-0.96,0.12
0.51,-0.96,0.1
0.51,-0.96,0.09
0.5,-0.96,0.09
0.49,-0.94,0.09
0.48,-0.93,0.08
0.47,-0.93,0.07
0.46,-0.92,0.07
0.43,-0.91,0.07
0.4,-0.9,0.08
0.38,-0.89,0.09
0.37,-0.89,0.09
0.36,-0.89,0.08
0.35,-0.88,0.08
0.33,-0.88,0.08
0.33,-0.88,0.08
0.33,-0.87,0.08
0.33,-0.86,0.07
0.33,-0.84,0.07
0.33,-0.83,0.07
0.33,-0.82,0.06
0.32,-0.81,0.06
0.32,-0.8,0.06
0.31,-0.79,0.07
0.3,-0.78,0.07
0.3,-0.76,0.08
0.3,-0.75,0.09
0.31,-0.75,0.09
0.32,-0.75,0.09
0.32,-0.77,0.1
0.32,-0.78,0.1
0.31,-0.8,0.1
0.31,-0.83,0.1
0.31,-0.88,0.1
0.3,-0.95,0.1
0.3,-0.97,0.1
0.31,-0.98,0.12
0.31,-0.98,0.13
0.32,-0.98,0.14
0.34,-0.99,0.15
0.37,-1.03,0.14
0.4,-1.1,0.13
0.41,-1.19,0.12
0.39,-1.26,0.12
0.37,-1.3,0.13
0.35,-1.29,0.16
0.35,-1.26,0.17
0.36,-1.22,0.17
0.37,-1.16,0.17
0.37,-1.07,0.17
0.37,-0.98,0.17
0.39,-0.91,0.18
0.42,-0.86,0.21
0.44,-0.86,0.23
0.46,-0.89,0.24
0.45,-0.95,0.24
0.44,-1.01,0.24
0.4,-1.07,0.22
0.35,-1.11,0.2
0.31,-1.13,0.18
0.28,-1.13,0.17
0.25,-1.12,0.16
0.23,-1.09,0.15
0.23,-1.04,0.14
0.27,-0.98,0.11
0.31,-0.93,0.1
0.32,-0.89,0.1
0.33,-0.85,0.09
0.36,-0.81,0.09
0.39,-0.77,0.09
0.41,-0.74,0.09
0.41,-0.71,0.09
0.42,-0.7,0.09
0.42,-0.7,0.09
0.4,-0.7,0.1
0.39,-0.7,0.12
0.38,-0.71,0.14
0.38,-0.74,0.15
0.4,-0.77,0.17
0.41,-0.79,0.18
0.41,-0.81,0.2
0.42,-0.82,0.22
0.43,-0.83,0.24
0.43,-0.84,0.25
0.43,-0.85,0.26
0.43,-0.86,0.28
0.44,-0.87,0.29
0.45,-0.89,0.29
0.46,-0.9,0.29
0.46,-0.93,0.3
0.47,-0.95,0.29
0.48,-0.96,0.29
0.49,-0.99,0.28
0.5,-1.01,0.28
0.5,-1.04,0.28
0.49,-1.07,0.28
0.47,-1.1,0.27
0.46,-1.12,0.27
0.47,-1.15,0.26
0.49,-1.24,0.26
0.52,-1.37,0.26
0.53,-1.5,0.24
0.53,-1.57,0.24
0.52,-1.55,0.24
0.51,-1.47,0.25
0.5,-1.37,0.24
0.49,-1.3,0.22
0.47,-1.25,0.2
0.44,-1.19,0.18
0.41,-1.11,0.17
0.39,-1.04,0.16
0.38,-0.99,0.14
0.37,-0.98,0.13
0.37,-1.01,0.11
0.37,-1.05,0.09
0.38,-1.07,0.08
0.39,-1.07,0.07
0.39,-1.06,0.07
0.39,-1.05,0.06
0.37,-1.04,0.05
0.34,-1,0.05
0.32,-0.98,0.04
0.31,-0.95,0.03
0.29,-0.93,0.02
0.28,-0.91,0.02
0.28,-0.9,0.02
0.28,-0.9,0.02
0.27,-0.91,0.02
0.27,-0.91,0.01
0.27,-0.92,0
0.27,-0.92,0
0.27,-0.93,-0.01
0.28,-0.93,-0.01
0.28,-0.93,-0.01
0.28,-0.92,-0.01
0.28,-0.92,-0.01
0.27,-0.9,-0.01
0.27,-0.89,-0.01
0.27,-0.87,-0.01
0.27,-0.86,-0.01
0.28,-0.84,-0.01
0.29,-0.82,0
0.3,-0.8,0.01
0.33,-0.78,0.03
0.34,-0.76,0.05
0.34,-0.75,0.08
0.35,-0.75,0.1
0.35,-0.76,0.1
0.35,-0.76,0.11
0.34,-0.76,0.12
0.33,-0.77,0.12
0.31,-0.79,0.12
0.3,-0.8,0.12
0.3,-0.82,0.13
0.3,-0.84,0.14
0.32,-0.87,0.15
0.34,-0.88,0.16
0.35,-0.9,0.17
0.37,-0.93,0.18
0.39,-0.95,0.19
0.4,-0.97,0.21
0.41,-0.98,0.23
0.41,-1.01,0.28
0.42,-1.13,0.29
0.41,-1.23,0.28
0.39,-1.32,0.25
0.34,-1.34,0.24
0.31,-1.31,0.25
0.29,-1.24,0.28
0.29,-1.16,0.29
0.31,-1.09,0.3
0.33,-1.02,0.28
0.35,-0.95,0.27
0.37,-0.89,0.27
0.4,-0.86,0.26
0.42,-0.88,0.27
0.42,-0.93,0.27
0.41,-0.99,0.26
0.38,-1.05,0.25
0.34,-1.1,0.25
0.3,-1.12,0.24
0.26,-1.13,0.22
0.24,-1.13,0.2
0.23,-1.1,0.18
0.24,-1.05,0.16
0.25,-0.99,0.15
0.26,-0.92,0.14
0.28,-0.86,0.12
0.3,-0.81,0.11
0.33,-0.76,0.1
0.35,-0.73,0.11
0.36,-0.71,0.11
0.35,-0.69,0.11
0.33,-0.68,0.11
0.31,-0.67,0.11
0.29,-0.68,0.11
0.29,-0.69,0.11
0.3,-0.7,0.12
0.31,-0.72,0.12
0.32,-0.75,0.13
0.34,-0.77,0.15
0.36,-0.79,0.16
0.38,-0.81,0.18
0.4,-0.83,0.19
0.41,-0.85,0.21
0.43,-0.86,0.25
0.45,-0.87,0.26
0.46,-0.87,0.27
0.48,-0.89,0.27
0.49,-0.9,0.28
0.5,-0.91,0.29
0.5,-0.91,0.31
0.51,-0.92,0.33
0.52,-0.94,0.33
0.52,-0.95,0.34
0.52,-0.96,0.35
0.52,-0.97,0.35
0.52,-0.97,0.36
0.52,-0.96,0.36
0.51,-0.95,0.36
0.5,-0.95,0.35
0.48,-0.96,0.33
0.47,-0.96,0.32
0.47,-0.97,0.32
0.46,-1,0.33
0.45,-1.04,0.33
0.45,-1.07,0.32
0.45,-1.1,0.32
0.47,-1.14,0.32
0.49,-1.23,0.32
0.52,-1.35,0.32
0.53,-1.45,0.31
0.5,-1.5,0.31
0.46,-1.47,0.31
0.43,-1.39,0.3
0.41,-1.31,0.28
0.4,-1.25,0.26
0.38,-1.21,0.23
0.31,-0.97,0.17
0.31,-1,0.15
0.31,-1,0.15
0.32,-1.03,0.13
0.32,-1.05,0.11
0.3,-1.06,0.08
0.27,-1.08,0.04
0.24,-1.09,0
0.2,-1.1,-0.02
0.17,-1.11,-0.05
0.12,-1.11,-0.09
0.1,-1.07,-0.11
0.08,-1.03,-0.13
0.08,-1,-0.13
0.09,-0.98,-0.13
0.12,-0.96,-0.12
0.15,-0.95,-0.11
0.16,-0.94,-0.1
0.18,-0.96,-0.09
0.2,-1,-0.1
0.2,-1.04,-0.12
0.18,-1.04,-0.14
0.18,-1,-0.14
0.18,-0.96,-0.14
0.18,-0.92,-0.12
0.19,-0.89,-0.11
0.21,-0.86,-0.1
0.23,-0.83,-0.1
0.26,-0.81,-0.09
0.28,-0.8,-0.08
0.3,-0.8,-0.08
0.32,-0.81,-0.07
0.34,-0.82,-0.06
0.35,-0.83,-0.04
0.35,-0.84,-0.02
0.37,-0.84,-0.01
0.39,-0.85,0.01
0.39,-0.86,0.03
0.39,-0.86,0.04
0.39,-0.85,0.05
0.41,-0.85,0.05
0.44,-0.84,0.05
0.47,-0.82,0.06
0.5,-0.81,0.09
0.52,-0.81,0.11
0.53,-0.81,0.14
0.53,-0.8,0.16
0.53,-0.8,0.18
0.53,-0.8,0.18
0.53,-0.8,0.19
0.52,-0.8,0.21
0.51,-0.78,0.24
0.51,-0.77,0.25
0.52,-0.74,0.27
0.51,-0.71,0.29
0.5,-0.68,0.3
0.49,-0.63,0.31
0.46,-0.57,0.32
0.44,-0.51,0.32
0.43,-0.45,0.31
0.42,-0.4,0.3
0.42,-0.36,0.28
0.44,-0.34,0.26
0.46,-0.33,0.26
0.48,-0.33,0.27
0.49,-0.34,0.25
0.49,-0.4,0.21
0.49,-0.47,0.15
0.49,-0.54,0.09
0.48,-0.57,0.05
0.48,-0.53,0.02
0.49,-0.43,0.01
0.53,-0.3,0.06
0.58,-0.2,0.14
0.64,-0.18,0.16
0.69,-0.23,0.13
0.7,-0.3,0.09
0.68,-0.34,0.08
0.67,-0.34,0.07
0.68,-0.33,0.06
0.7,-0.34,0.04
0.74,-0.34,-0.01
0.74,-0.31,-0.02
0.74,-0.27,0.03
0.77,-0.25,0.08
0.77,-0.24,0.1
0.73,-0.23,0.11
0.7,-0.23,0.08
0.7,-0.21,0.04
0.71,-0.19,0.02
0.73,-0.17,0.02
0.74,-0.16,0.06
0.74,-0.16,0.11
0.76,-0.17,0.12
0.73,-0.13,0.11
0.64,-0.06,0.06
0.61,0.03,-0.12
0.69,0.13,-0.06
0.7,0.11,0.06
0.71,0.03,0.18
0.71,-0.09,0.24
0.66,-0.19,0.18
0.56,-0.21,0.05
0.49,-0.16,-0.13
0.6,-0.08,-0.28
0.77,0,-0.3
0.82,0.01,-0.2
0.84,-0.08,-0.04
0.88,-0.24,0.11
0.92,-0.41,0.18
0.83,-0.55,0.19
0.62,-0.62,0.11
0.48,-0.6,-0.06
0.57,-0.56,-0.35
0.81,-0.59,-0.5
0.94,-0.63,-0.38
0.74,-0.66,-0.21
0.28,-0.66,-0.18
0,-0.78,-0.28
0,-0.99,-0.16
-0.07,-1.3,-0.09
0.01,-1.53,-0.32
1.3,-2.07,-0.66
2.37,-2.72,-2.42
3.15,-3.4,-3.98
0.59,-4,-0.82
-0.84,-1.32,0.94
0.44,-0.77,-0.25
-0.09,-2.76,0.26
0.84,-2.94,1.29
-0.07,-1.58,0.72
1.25,-0.44,1.07
1.25,-0.44,1.07
1.36,-0.23,0.98
0.93,-0.54,0.81
0.97,-0.66,0.96
1.14,-0.78,1.51
1.09,-0.81,1.57
0.74,-0.48,0.92
0.59,-0.04,0.15
0.08,-0.96,-0.87
0.08,-0.96,-0.87
-0.02,-1.67,-0.8
0.01,-1.86,-0.56
0.2,-1.71,-0.03
0.57,-1.2,0.52
1.03,-0.47,0.71
1,-0.09,0.33
1.12,-0.03,-0.08
1.66,0.27,-0.59
2.03,0.77,-2.27
1.82,0.71,-2.14
0.83,-0.05,0.29
-0.45,-1.32,1.26
-1.18,-2.24,1.16
-1.19,-2.2,1.07
-1.28,-2.09,1.21
-1.02,-2.08,1.28
-0.19,-1.43,0.91
0.82,-0.55,0.59
1.36,-0.32,0.76
1.26,-0.49,1.01
1.25,-0.51,0.87
0.75,-0.49,0.65
-0.07,-0.64,0.68
0.3,-0.65,0.32
0.29,-0.7,0.52
0.29,-0.7,0.52
0.37,-0.8,0.28
0.42,-0.73,0.37
0.1,-1.02,0.2
0.2,-1,0.19
0.69,-0.94,0.13
0.88,-0.84,0.25
0.55,-0.81,0.4
0.15,-0.78,0.49
0.15,-0.78,0.49
0.15,-0.83,0.44
0.19,-0.9,0.44
0.26,-0.95,0.47
0.29,-0.84,0.48
0.29,-0.84,0.48
0.31,-0.87,0.48
0.34,-0.88,0.51
0.36,-0.85,0.56
0.34,-0.88,0.41
0.35,-0.85,0.43
0.35,-0.82,0.47
0.36,-0.84,0.47
0.37,-0.85,0.45
0.35,-0.87,0.46
0.32,-0.87,0.47
0.33,-0.85,0.45
0.33,-0.83,0.42
0.33,-0.83,0.42
0.32,-0.83,0.41
0.32,-0.83,0.41
0.31,-0.86,0.41
0.3,-0.87,0.38
0.3,-0.85,0.4
0.35,-0.85,0.43
0.35,-0.85,0.45
0.35,-0.83,0.45
0.36,-0.86,0.45
0.36,-0.87,0.45
0.34,-0.85,0.45
0.33,-0.86,0.44
0.33,-0.85,0.41
0.32,-0.82,0.41
0.35,-0.83,0.42
0.4,-0.89,0.38
0.38,-0.88,0.39
0.37,-0.84,0.44
0.38,-0.85,0.45
0.39,-0.83,0.44
0.37,-0.86,0.42
0.34,-0.87,0.41
0.34,-0.84,0.4
0.37,-0.85,0.41
0.38,-0.86,0.41
0.38,-0.84,0.41
0.36,-0.81,0.4
0.37,-0.81,0.41
0.37,-0.86,0.44
0.35,-0.88,0.46
0.35,-0.85,0.47
0.36,-0.85,0.46
0.36,-0.86,0.46
0.36,-0.86,0.45
0.35,-0.83,0.42
0.35,-0.83,0.41
0.35,-0.87,0.41
0.34,-0.87,0.42
0.35,-0.85,0.44
0.35,-0.86,0.44
0.35,-0.87,0.43
0.32,-0.85,0.46
0.32,-0.87,0.44
0.31,-0.87,0.4
0.3,-0.86,0.39
0.3,-0.88,0.41
0.28,-0.88,0.44
0.28,-0.86,0.46
0.28,-0.87,0.45
0.28,-0.87,0.45
0.29,-0.86,0.46
0.29,-0.88,0.46
0.29,-0.9,0.44
0.28,-0.89,0.43
0.27,-0.88,0.43
0.26,-0.87,0.42
0.24,-0.86,0.41
0.22,-0.86,0.4
0.21,-0.87,0.4
0.21,-0.87,0.39
0.24,-0.88,0.38
0.26,-0.88,0.44
0.28,-0.88,0.5
0.31,-0.88,0.5
0.31,-0.86,0.48
0.29,-0.86,0.47
0.27,-0.87,0.45
0.26,-0.87,0.43
0.24,-0.86,0.42
0.24,-0.86,0.4
0.25,-0.87,0.4
0.25,-0.88,0.43
0.25,-0.88,0.45
0.25,-0.88,0.45
0.25,-0.87,0.44
0.23,-0.87,0.43
0.22,-0.87,0.43
0.21,-0.87,0.42
0.21,-0.87,0.42
0.22,-0.88,0.42
0.24,-0.88,0.43
0.25,-0.88,0.43
0.24,-0.88,0.45
0.23,-0.89,0.44
0.22,-0.89,0.44
0.22,-0.88,0.43
0.22,-0.88,0.43
0.23,-0.88,0.43
0.22,-0.88,0.43
0.22,-0.88,0.43
0.24,-0.88,0.44
0.25,-0.89,0.44
0.26,-0.88,0.46
0.26,-0.87,0.46
0.25,-0.87,0.46
0.25,-0.87,0.45
0.25,-0.87,0.44
0.26,-0.87,0.44
0.26,-0.88,0.44
0.26,-0.87,0.44
0.25,-0.87,0.44
0.25,-0.88,0.45
0.25,-0.87,0.44
0.25,-0.87,0.44
0.26,-0.87,0.44
0.27,-0.87,0.45
0.27,-0.88,0.47
0.27,-0.87,0.47
0.26,-0.86,0.46
0.25,-0.86,0.46
0.25,-0.86,0.45
0.25,-0.87,0.44
0.25,-0.87,0.44
0.24,-0.87,0.43
0.24,-0.87,0.43
0.25,-0.88,0.44
0.24,-0.87,0.45
0.26,-0.86,0.46
0.27,-0.86,0.46
0.26,-0.85,0.47
0.25,-0.85,0.49
0.26,-0.86,0.48
0.27,-0.86,0.45
0.24,-0.86,0.42
0.2,-0.86,0.4
0.17,-0.87,0.39
0.16,-0.87,0.47
0.19,-0.88,0.45
0.21,-0.89,0.41
0.18,-0.89,0.39
0.15,-0.89,0.43
0.18,-0.9,0.43
0.24,-0.9,0.37
0.25,-0.88,0.38
0.28,-0.85,0.37
0.29,-0.89,0.42
0.29,-0.9,0.51
0.35,-0.9,0.49
0.37,-0.89,0.47
0.36,-0.84,0.49
0.39,-0.81,0.49
0.4,-0.8,0.47
0.38,-0.83,0.42
0.36,-0.85,0.34
0.37,-0.81,0.3
0.45,-0.82,0.36
0.55,-0.83,0.49
0.54,-0.82,0.55
0.52,-0.8,0.51
0.53,-0.8,0.47
0.52,-0.79,0.45
0.44,-0.76,0.32
0.35,-0.79,0.14
0.27,-0.89,0.06
0.25,-0.89,-0.02
0.35,-0.85,-0.05
0.48,-0.88,0.09
0.56,-0.85,0.29
0.74,-0.78,0.53
0.96,-0.78,0.68
0.98,-0.7,0.63
0.98,-0.7,0.63
0.89,-0.6,0.46
0.86,-0.71,0.41
0.43,-0.66,0.2
0.3,-0.74,-0.09
0.27,-0.82,-0.23
0.35,-0.9,-0.2
0.6,-0.95,0.07
0.83,-0.83,0.35
0.99,-0.62,0.47
0.96,-0.48,0.43
0.88,-0.61,0.45
0.63,-0.66,0.33
0.42,-0.73,0.02
0.42,-0.88,-0.15
0.49,-0.84,-0.06
0.49,-0.84,-0.06
0.55,-0.85,0.07
0.63,-0.79,0.16
0.76,-0.69,0.27
0.63,-0.94,0.33
0.58,-0.87,0.33
0.53,-0.8,0.34
0.47,-0.76,0.37
0.45,-0.75,0.42
0.48,-0.76,0.49
0.52,-0.78,0.53
0.56,-0.82,0.52
0.56,-0.89,0.5
0.53,-0.94,0.46
0.56,-0.92,0.42
0.56,-0.86,0.37
0.47,-0.85,0.34
0.41,-0.88,0.35
0.44,-0.9,0.38
0.48,-0.93,0.45
0.51,-0.95,0.53
0.52,-0.96,0.57
0.55,-0.95,0.55
0.61,-0.94,0.49
0.7,-0.92,0.4
0.67,-0.89,0.39
0.62,-0.88,0.41
0.58,-0.88,0.45
0.56,-0.88,0.47
0.53,-0.86,0.43
0.5,-0.85,0.37
0.49,-0.85,0.33
0.48,-0.86,0.31
0.48,-0.86,0.29
0.49,-0.83,0.26
0.45,-0.81,0.25
0.4,-0.82,0.26
0.36,-0.82,0.26
0.35,-0.81,0.24
0.34,-0.79,0.21
0.32,-0.76,0.19
0.31,-0.74,0.15
0.35,-0.72,0.09
0.41,-0.7,0.03
0.46,-0.67,-0.05
0.48,-0.63,-0.09
0.47,-0.61,-0.08
0.45,-0.6,-0.06
0.43,-0.6,-0.01
0.4,-0.59,0.06
0.41,-0.61,0.08
0.49,-0.64,0.03
0.56,-0.63,-0.04
0.59,-0.61,-0.07
0.6,-0.61,-0.05
0.63,-0.64,0
0.63,-0.69,0.05
0.62,-0.73,0.08
0.62,-0.94,0.23
0.62,-0.94,0.23
0.66,-0.99,0.24
0.7,-1.02,0.24
0.72,-1.04,0.23
0.72,-1,0.28
0.65,-0.96,0.21
0.66,-0.88,0.17
0.67,-0.73,0.13
0.76,-0.72,0.08
0.85,-0.77,0.11
0.79,-0.76,0.16
0.79,-0.78,0.2
0.79,-0.8,0.21
0.76,-0.84,0.19
0.75,-0.86,0.13
0.73,-0.87,0.05
0.69,-0.81,-0.04
0.65,-0.71,-0.11
0.59,-0.59,-0.11
0.52,-0.48,-0.06
0.53,-0.43,-0.05
0.56,-0.37,-0.05
0.58,-0.3,-0.07
0.62,-0.22,-0.13
0.65,-0.15,-0.21
0.71,-0.12,-0.27
0.77,-0.15,-0.28
0.79,-0.22,-0.24
0.79,-0.3,-0.17
0.8,-0.37,-0.13
0.8,-0.41,-0.16
0.82,-0.43,-0.18
0.86,-0.44,-0.18
0.9,-0.44,-0.19
0.93,-0.45,-0.21
0.95,-0.49,-0.24
0.94,-0.56,-0.31
0.94,-0.56,-0.31
0.95,-0.52,-0.32
0.95,-0.51,-0.23
0.95,-0.5,-0.17
0.92,-0.53,-0.15
0.92,-0.56,-0.15
0.91,-0.59,-0.16
0.88,-0.63,-0.17
0.86,-0.67,-0.16
0.89,-0.64,-0.11
0.87,-0.61,-0.08
0.86,-0.6,-0.06
0.86,-0.59,-0.05
0.83,-0.58,-0.05
0.81,-0.59,-0.1
0.8,-0.59,-0.12
0.77,-0.6,-0.12
0.74,-0.61,-0.1
0.72,-0.61,-0.05
0.66,-0.59,0.01
0.63,-0.59,0.02
0.6,-0.59,0.04
0.58,-0.58,0.07
0.57,-0.59,0.07
0.56,-0.67,0.01
0.56,-0.67,0.01
0.52,-0.67,0.05
0.49,-0.68,0.11
0.47,-0.68,0.17
0.45,-0.66,0.21
0.4,-0.63,0.23
0.36,-0.63,0.23
0.38,-0.66,0.21
0.44,-0.7,0.19
0.49,-0.77,0.18
0.5,-0.84,0.23
0.43,-0.88,0.26
0.4,-0.88,0.28
0.39,-0.89,0.29
0.38,-0.91,0.31
0.4,-0.93,0.32
0.42,-0.97,0.33
0.44,-1.01,0.35
0.47,-1.03,0.37
0.49,-1.04,0.37
0.5,-1.03,0.36
0.5,-1.03,0.36
0.49,-1.05,0.37
0.48,-1.09,0.38
0.46,-1.1,0.38
0.44,-1.09,0.35
0.41,-1.06,0.31
0.39,-1.04,0.27
0.37,-1.03,0.25
0.36,-1.03,0.25
0.34,-1.01,0.26
0.3,-1.01,0.27
0.25,-1.01,0.28
0.23,-0.98,0.27
0.21,-0.92,0.24
0.19,-0.85,0.2
0.18,-0.76,0.18
0.17,-0.65,0.18
0.15,-0.53,0.2
0.14,-0.42,0.23
0.13,-0.33,0.26
0.11,-0.25,0.26
0.07,-0.21,0.27
0.05,-0.2,0.28
0.03,-0.23,0.29
0.01,-0.29,0.28
-0.01,-0.36,0.27
-0.03,-0.44,0.26
-0.02,-0.54,0.23
-0.02,-0.67,0.21
0.01,-0.82,0.19
0.03,-1,0.18
0.05,-1.16,0.19
0.03,-1.3,0.21
0,-1.52,0.2
0.02,-1.59,0.16
0.03,-1.59,0.12
0,-1.53,0.1
-0.03,-1.43,0.09
-0.05,-1.29,0.09
-0.05,-1.15,0.1
-0.04,-1.04,0.12
-0.01,-0.95,0.15
0.01,-0.88,0.17
0,-0.82,0.18
-0.02,-0.78,0.18
-0.01,-0.75,0.17
0,-0.73,0.16
0.01,-0.72,0.15
0,-0.71,0.16
0,-0.72,0.17
0.03,-0.73,0.17
0.04,-0.73,0.19
0.01,-0.74,0.21
0.01,-0.76,0.22
0.03,-0.79,0.22
0.06,-0.81,0.22
0.08,-0.83,0.22
0.11,-0.86,0.22
0.15,-0.88,0.22
0.18,-0.92,0.22
0.2,-0.96,0.22
0.21,-0.99,0.23
0.21,-1.01,0.24
0.21,-1.03,0.23
0.22,-1.03,0.23
0.23,-1.03,0.22
0.24,-1.02,0.21
0.24,-1,0.2
0.25,-0.99,0.19
0.28,-0.99,0.18
0.3,-1,0.17
0.32,-1.01,0.16
0.34,-1.03,0.16
0.36,-1.04,0.16
0.37,-1.05,0.16
0.39,-1.1,0.14
0.43,-1.17,0.13
0.52,-1.38,0.13
0.52,-1.47,0.13
0.49,-1.52,0.14
0.45,-1.5,0.14
0.42,-1.43,0.13
0.4,-1.34,0.12
0.37,-1.25,0.1
0.34,-1.15,0.09
0.31,-1.05,0.07
0.29,-0.96,0.05
0.29,-0.92,0.04
0.29,-0.93,0.03
0.31,-0.99,0.03
0.34,-1.07,0.03
0.36,-1.14,0.04
0.38,-1.21,0.04
0.4,-1.27,0.04
0.4,-1.31,0.04
0.39,-1.34,0.05
0.38,-1.35,0.06
0.36,-1.35,0.06
0.35,-1.33,0.06
0.34,-1.3,0.07
0.33,-1.27,0.06
0.31,-1.22,0.06
0.28,-1.16,0.06
0.26,-1.1,0.07
0.25,-1.04,0.07
0.26,-0.99,0.07
0.27,-0.94,0.07
0.27,-0.9,0.06
0.27,-0.87,0.06
0.28,-0.85,0.06
0.28,-0.82,0.06
0.27,-0.8,0.06
0.26,-0.78,0.07
0.25,-0.75,0.08
0.26,-0.74,0.08
0.26,-0.74,0.08
0.27,-0.74,0.08
0.27,-0.74,0.1
0.28,-0.73,0.12
0.3,-0.72,0.16
0.3,-0.71,0.18
0.27,-0.71,0.19
0.25,-0.72,0.2
0.25,-0.73,0.2
0.24,-0.73,0.21
0.24,-0.75,0.23
0.23,-0.8,0.27
0.18,-0.88,0.3
0.03,-0.97,0.28
-0.24,-1.05,0.22
-0.53,-1.14,0.06
-0.61,-1.21,-0.1
-0.34,-1.22,-0.16
0.06,-1.11,-0.09
0.27,-0.96,0.17
0.16,-0.97,0.42
-0.05,-1.12,0.5
-0.15,-1.28,0.49
-0.2,-1.42,0.4
-0.19,-1.62,0.34
-0.08,-1.86,0.32
0.04,-1.98,0.3
0.14,-1.88,0.31
0.19,-1.67,0.32
0.2,-1.53,0.33
0.2,-1.55,0.35
0.22,-1.66,0.36
0.31,-1.78,0.35
0.48,-1.87,0.31
0.64,-1.89,0.28
0.69,-1.83,0.3
0.68,-1.72,0.35
0.7,-1.6,0.38
0.72,-1.48,0.36
0.74,-1.37,0.3
0.75,-1.26,0.24
0.79,-1.17,0.19
0.84,-1.09,0.18
0.91,-1.01,0.16
1,-0.91,0.15
1.06,-0.79,0.13
1.06,-0.66,0.15
1.03,-0.54,0.18
0.99,-0.38,0.22
0.89,-0.31,0.21
0.85,-0.23,0.22
0.82,-0.17,0.23
0.83,-0.13,0.25
0.83,-0.12,0.29
0.83,-0.13,0.32
0.82,-0.15,0.34
0.8,-0.18,0.34
0.77,-0.22,0.31
0.72,-0.27,0.27
0.68,-0.32,0.24
0.69,-0.47,0.23
0.8,-0.83,0.28
0.93,-1.32,0.37
0.97,-1.81,0.48
0.91,-2.24,0.53
0.79,-2.51,0.39
0.66,-2.57,0.13
0.52,-2.43,-0.09
0.4,-2.2,-0.16
0.32,-2.02,-0.13
0.32,-1.94,-0.02
0.32,-1.95,0.14
0.24,-2.08,0.22
0.12,-2.19,0.15
0.01,-2.11,0
-0.07,-1.89,-0.14
-0.15,-1.66,-0.24
-0.21,-1.44,-0.28
-0.18,-1.23,-0.25
-0.12,-1.06,-0.17
-0.06,-0.93,-0.08
-0.02,-0.84,0
-0.01,-0.78,0.05
-0.02,-0.75,0.07
-0.02,-0.76,0.05
-0.04,-0.78,0.01
-0.09,-0.76,-0.03
-0.13,-0.72,-0.08
-0.14,-0.67,-0.11
-0.13,-0.66,-0.09
-0.11,-0.7,-0.05
-0.1,-0.77,0.01
-0.07,-0.85,0.02
-0.06,-0.89,0.01
-0.08,-0.91,0
-0.09,-0.91,0
-0.11,-0.94,0
-0.12,-1.01,-0.01
-0.13,-1.09,-0.03
-0.13,-1.15,-0.06
-0.13,-1.2,-0.09
-0.12,-1.24,-0.11
-0.11,-1.25,-0.1
-0.1,-1.24,-0.08
-0.07,-1.22,-0.05
-0.02,-1.23,-0.02
0.04,-1.32,0.02
0.08,-1.47,0.02
0.09,-1.62,-0.01
0.09,-1.73,-0.05
0.1,-1.74,-0.08
0.16,-1.64,-0.07
0.23,-1.49,-0.02
0.29,-1.38,0.05
0.31,-1.31,0.14
0.3,-1.29,0.22
0.3,-1.3,0.29
0.33,-1.32,0.33
0.34,-1.33,0.33
0.31,-1.31,0.3
0.28,-1.27,0.25
0.29,-1.2,0.19
0.29,-1.12,0.14
0.29,-1.03,0.11
0.27,-0.95,0.12
0.25,-0.89,0.13
0.25,-0.84,0.13
0.27,-0.81,0.13
0.27,-0.79,0.13
0.3,-0.77,0.13
0.34,-0.75,0.14
0.34,-0.73,0.13
0.36,-0.7,0.12
0.4,-0.68,0.13
0.43,-0.67,0.12
0.47,-0.72,0.12
0.5,-0.73,0.13
0.52,-0.73,0.13
0.53,-0.74,0.12
0.55,-0.74,0.12
0.57,-0.74,0.11
0.59,-0.74,0.1
0.62,-0.75,0.12
0.66,-0.76,0.15
0.69,-0.76,0.18
0.73,-0.76,0.2
0.78,-0.77,0.21
0.82,-0.79,0.21
0.83,-0.81,0.22
0.81,-0.84,0.23
0.81,-0.88,0.22
0.82,-0.9,0.21
0.82,-0.91,0.21
0.81,-0.91,0.21
0.81,-0.93,0.21
0.84,-1.01,0.2
0.88,-1.15,0.2
0.92,-1.3,0.19
0.92,-1.42,0.19
0.9,-1.48,0.2
0.85,-1.49,0.19
0.78,-1.43,0.16
0.72,-1.32,0.13
0.69,-1.2,0.12
0.7,-1.15,0.12
0.71,-1.16,0.14
0.71,-1.19,0.15
0.71,-1.22,0.14
0.71,-1.23,0.14
0.69,-1.24,0.14
0.66,-1.25,0.14
0.63,-1.26,0.12
0.6,-1.28,0.1
0.55,-1.28,0.07
0.5,-1.26,0.04
0.45,-1.22,0.01
0.41,-1.18,0
0.38,-1.13,-0.01
0.36,-1.05,-0.03
0.31,-1.02,-0.03
0.29,-1,-0.04
0.27,-0.97,-0.04
0.26,-0.94,-0.05
0.25,-0.91,-0.06
0.24,-0.89,-0.06
0.23,-0.87,-0.08
0.23,-0.87,-0.09
0.21,-0.88,-0.1
0.19,-0.9,-0.11
0.16,-0.91,-0.12
0.13,-0.89,-0.12
0.12,-0.86,-0.12
0.12,-0.82,-0.12
0.12,-0.79,-0.11
0.13,-0.76,-0.09
0.14,-0.75,-0.08
0.15,-0.76,-0.06
0.16,-0.77,-0.05
0.16,-0.77,-0.04
0.18,-0.78,-0.03
0.19,-0.8,-0.02
0.19,-0.85,-0.01
0.19,-0.9,0.01
0.19,-0.97,0.01
0.18,-1.02,0.01
0.16,-1.05,0.01
0.15,-1.04,0.01
0.16,-1.03,0.01
0.19,-1.08,0.02
0.24,-1.18,0.02
0.27,-1.28,0.02
0.29,-1.35,0.03
0.3,-1.36,0.03
0.3,-1.33,0.04
0.29,-1.25,0.05
0.27,-1.14,0.06
0.28,-1.05,0.07
0.32,-0.99,0.11
0.37,-0.97,0.16
0.42,-0.98,0.22
0.45,-1.04,0.26
0.46,-1.12,0.29
0.43,-1.3,0.27
0.37,-1.37,0.23
0.36,-1.42,0.18
0.36,-1.44,0.12
0.38,-1.42,0.07
0.4,-1.36,0.04
0.41,-1.28,0.04
0.43,-1.19,0.04
0.46,-1.1,0.07
0.49,-1.04,0.09
0.53,-0.98,0.1
0.55,-0.92,0.11
0.55,-0.87,0.13
0.55,-0.82,0.14
0.57,-0.78,0.12
0.59,-0.76,0.09
0.59,-0.75,0.06
0.58,-0.74,0.03
0.58,-0.71,0.02
0.59,-0.69,0.01
0.61,-0.68,0.01
0.63,-0.66,0.02
0.64,-0.64,0.02
0.64,-0.62,0.03
0.65,-0.61,0.03
0.67,-0.6,0.03
0.68,-0.6,0.03
0.71,-0.6,0.02
0.75,-0.59,0.03
0.76,-0.59,0.04
0.77,-0.59,0.05
0.78,-0.59,0.05
0.77,-0.59,0.07
0.76,-0.62,0.08
0.75,-0.66,0.08
0.77,-0.68,0.07
0.8,-0.69,0.08
0.82,-0.69,0.08
0.83,-0.7,0.09
0.81,-0.71,0.11
0.79,-0.75,0.12
0.8,-0.82,0.11
0.86,-0.92,0.1
0.92,-1.05,0.15
0.93,-1.25,0.19
0.89,-1.3,0.21
0.86,-1.31,0.22
0.83,-1.26,0.23
0.81,-1.19,0.24
0.8,-1.14,0.23
0.8,-1.12,0.2
0.79,-1.1,0.18
0.77,-1.1,0.17
0.74,-1.14,0.2
0.7,-1.19,0.23
0.65,-1.21,0.24
0.59,-1.2,0.26
0.55,-1.15,0.27
0.51,-1.08,0.29
0.46,-1,0.28
0.4,-0.92,0.26
0.34,-0.85,0.24
0.3,-0.79,0.22
0.26,-0.75,0.2
0.24,-0.73,0.18
0.21,-0.72,0.15
0.21,-0.71,0.11
0.24,-0.7,0.08
0.27,-0.69,0.07
0.28,-0.67,0.08
0.28,-0.62,0.1
0.26,-0.6,0.1
0.26,-0.59,0.11
0.29,-0.61,0.12
0.32,-0.64,0.12
0.33,-0.67,0.1
0.37,-0.68,0.07
0.44,-0.68,0.06
0.5,-0.68,0.07
0.51,-0.65,0.1
0.48,-0.62,0.15
0.47,-0.6,0.19
0.5,-0.59,0.21
0.54,-0.59,0.23
0.59,-0.6,0.25
0.63,-0.63,0.27
0.65,-0.67,0.29
0.63,-0.65,0.27
0.6,-0.66,0.26
0.67,-0.68,0.28
0.72,-0.71,0.36
0.72,-0.75,0.44
0.7,-0.77,0.48
0.69,-0.78,0.5
0.67,-0.76,0.48
0.64,-0.74,0.46
0.57,-0.72,0.42
0.54,-0.71,0.39
0.56,-0.72,0.4
0.58,-0.73,0.44
0.6,-0.78,0.51
0.59,-0.79,0.57
0.54,-0.78,0.63
0.52,-0.79,0.69
0.53,-0.76,0.73
0.52,-0.73,0.74
0.48,-0.75,0.76
0.48,-0.81,0.78
0.48,-0.85,0.8
0.46,-0.81,0.79
0.43,-0.7,0.78
0.47,-0.63,0.79
0.52,-0.59,0.81
0.54,-0.59,0.83
0.53,-0.59,0.84
0.48,-0.58,0.84
0.44,-0.58,0.81
0.4,-0.57,0.78
0.38,-0.57,0.74
0.37,-0.56,0.72
0.37,-0.55,0.71
0.36,-0.53,0.72
0.36,-0.5,0.73
0.35,-0.48,0.73
0.33,-0.45,0.72
0.3,-0.41,0.71
0.28,-0.38,0.69
0.27,-0.36,0.64
0.31,-0.37,0.64
0.37,-0.4,0.71
0.42,-0.47,0.9
0.47,-0.48,1.02
0.46,-0.47,1.06
0.47,-0.48,1.02
0.44,-0.47,0.97
0.4,-0.46,0.9
0.39,-0.43,0.85
0.41,-0.38,0.82
0.44,-0.34,0.79
0.48,-0.31,0.79
0.5,-0.26,0.81
0.48,-0.22,0.82
0.45,-0.21,0.82
0.44,-0.19,0.81
0.44,-0.16,0.8
0.43,-0.12,0.81
0.41,-0.07,0.82
0.39,-0.03,0.86
0.41,0.01,0.92
0.43,0.01,0.97
0.46,0.01,1.03
0.48,0.03,1.08
0.5,0.04,1.06
0.49,0.04,0.98
0.45,0.02,0.89
0.41,0,0.82
0.38,-0.02,0.84
0.37,-0.04,0.9
0.4,-0.04,0.98
0.41,0.02,1.06
0.41,0.1,1.13
0.4,0.18,1.18
0.39,0.24,1.18
0.37,0.29,1.13
0.33,0.34,1.04
0.29,0.36,0.95
0.29,0.35,0.89
0.34,0.26,0.88
0.39,0.14,0.88
0.44,0.05,0.89
0.5,0,0.91
0.52,-0.03,0.94
0.5,-0.05,0.96
0.45,-0.06,0.97
0.36,-0.04,0.95
0.34,-0.01,0.91
0.32,0.05,0.89
0.35,0.09,0.89
0.41,0.12,0.9
0.46,0.17,0.91
0.45,0.23,0.93
0.37,0.27,0.95
0.28,0.3,0.95
0.23,0.32,0.91
0.22,0.33,0.86
0.26,0.35,0.85
0.32,0.36,0.86
0.37,0.35,0.88
0.37,0.32,0.9
0.36,0.28,0.92
0.34,0.26,0.93
0.33,0.24,0.94
0.32,0.22,0.94
0.31,0.2,0.95
0.29,0.17,0.96
0.27,0.14,0.96
0.29,0.09,0.94
0.35,0.05,0.91
0.39,0.02,0.89
0.37,-0.01,0.89
0.36,-0.04,0.88
0.4,-0.05,0.86
0.45,-0.06,0.81
0.46,-0.05,0.78
0.44,-0.05,0.77
0.39,-0.05,0.79
0.35,-0.04,0.82
0.33,-0.04,0.85
0.32,-0.05,0.86
0.32,-0.07,0.86
0.34,-0.11,0.85
0.38,-0.17,0.85
0.42,-0.2,0.83
0.47,-0.18,0.81
0.56,-0.13,0.81
0.61,-0.09,0.8
0.58,-0.1,0.86
0.54,-0.06,0.91
0.53,-0.01,0.93
0.54,0.02,0.93
0.52,0.06,0.9
0.53,0.19,0.92
0.55,0.31,0.92
0.54,0.28,0.87
0.57,0.28,0.89
0.65,0.34,0.93
0.73,0.34,0.94
0.71,0.35,0.92
0.65,0.36,0.9
0.58,0.34,0.87
0.53,0.35,0.8
0.54,0.39,0.78
0.55,0.39,0.78
0.53,0.39,0.77
0.52,0.36,0.79
0.51,0.31,0.8
0.51,0.28,0.79
0.51,0.29,0.78
0.5,0.28,0.78
0.53,0.25,0.78
0.58,0.22,0.78
0.6,0.21,0.79
0.6,0.2,0.79
0.6,0.2,0.78
0.61,0.21,0.77
0.62,0.22,0.76
0.63,0.22,0.75
0.61,0.23,0.74
0.6,0.24,0.74
0.59,0.25,0.74
0.6,0.25,0.75
0.6,0.25,0.76
0.62,0.27,0.77
0.63,0.22,0.74
0.59,0.22,0.73
0.61,0.27,0.74
0.61,0.27,0.74
0.61,0.27,0.74
0.61,0.27,0.75
0.61,0.27,0.75
0.62,0.27,0.75
0.61,0.27,0.75
0.59,0.27,0.75
0.6,0.26,0.74
0.61,0.26,0.75
0.62,0.27,0.76
0.61,0.25,0.74
0.6,0.26,0.75
0.62,0.28,0.76
0.61,0.27,0.74
0.6,0.28,0.72
0.6,0.29,0.73
0.6,0.29,0.72
0.61,0.28,0.73
0.61,0.28,0.74
0.61,0.29,0.74
0.62,0.29,0.74
0.62,0.28,0.74
0.61,0.28,0.74
0.61,0.27,0.74
0.61,0.27,0.75
0.59,0.26,0.75
0.58,0.26,0.75
0.59,0.26,0.75
0.59,0.26,0.75
0.59,0.26,0.75
0.6,0.26,0.75
0.61,0.27,0.74
0.61,0.24,0.73
0.63,0.28,0.74
0.62,0.3,0.75
0.6,0.27,0.73
0.6,0.29,0.74
0.61,0.29,0.74
0.61,0.29,0.74
0.6,0.3,0.75
0.6,0.29,0.75
0.6,0.29,0.74
0.6,0.28,0.74
0.6,0.28,0.74
0.6,0.27,0.75
0.6,0.27,0.75
0.6,0.27,0.74
0.6,0.26,0.74
0.6,0.26,0.75
0.59,0.25,0.75
0.6,0.25,0.75
0.6,0.26,0.74
0.6,0.26,0.74
0.6,0.27,0.74
0.6,0.27,0.74
0.6,0.28,0.74
0.6,0.28,0.74
0.6,0.28,0.75
0.6,0.28,0.75
0.6,0.29,0.74
0.61,0.29,0.74
0.6,0.29,0.74
0.6,0.29,0.74
0.6,0.28,0.74
0.6,0.28,0.74
0.6,0.27,0.74
0.6,0.27,0.74
0.61,0.27,0.74
0.61,0.27,0.74
0.61,0.26,0.74
0.6,0.26,0.74
0.6,0.27,0.74
0.6,0.27,0.75
0.59,0.27,0.75
0.59,0.28,0.74
0.6,0.28,0.74
0.6,0.28,0.75
0.6,0.27,0.75
0.61,0.27,0.74
