Acc_x,Acc_y,Acc_z
-1.31,0.57,0.44
-1.28,0.53,0.48
-1.24,0.49,0.5
-1.22,0.47,0.5
-1.17,0.47,0.47
-1.13,0.45,0.45
-1.11,0.43,0.44
-1.11,0.44,0.44
-1.09,0.47,0.44
-1.07,0.48,0.44
-1.02,0.49,0.45
-0.97,0.5,0.45
-0.93,0.49,0.57
-0.88,0.51,0.56
-0.8,0.48,0.46
-0.76,0.56,0.5
-0.74,0.53,0.51
-0.66,0.47,0.44
-0.59,0.51,0.42
-0.55,0.52,0.45
-0.51,0.47,0.4
-0.5,0.42,0.34
-0.5,0.43,0.41
-0.41,0.36,0.39
-0.33,0.29,0.3
-0.36,0.32,0.35
-0.35,0.29,0.34
-0.26,0.26,0.19
-0.19,0.23,0.11
-0.14,0.2,0.04
-0.11,0.25,0.05
-0.02,0.24,0.15
0.02,0.18,0.09
0.06,0.14,-0.1
0.09,0.13,-0.14
0.09,0.14,-0.1
0.19,0.11,-0.14
0.24,0.01,-0.12
0.21,-0.08,-0.18
0.25,-0.13,-0.16
0.32,-0.17,-0.17
0.4,-0.22,-0.15
0.43,-0.27,-0.11
0.5,-0.28,-0.13
0.57,-0.3,-0.17
0.56,-0.35,-0.18
0.58,-0.34,-0.18
0.59,-0.35,-0.17
0.63,-0.36,-0.2
0.69,-0.38,-0.23
0.72,-0.41,-0.21
0.79,-0.46,-0.17
0.85,-0.5,-0.13
0.87,-0.5,-0.15
0.9,-0.48,-0.19
0.9,-0.47,-0.17
0.93,-0.49,-0.13
0.99,-0.54,-0.12
0.99,-0.64,-0.07
1.02,-0.77,-0.02
1.07,-0.89,0.01
1.07,-0.88,0.04
1.09,-0.73,0.05
1.16,-0.58,0
1.22,-0.51,-0.07
1.31,-0.63,-0.06
1.38,-0.66,-0.04
1.36,-0.68,-0.04
1.28,-0.69,-0.06
1.27,-0.66,-0.06
1.3,-0.58,-0.07
1.36,-0.52,-0.12
1.4,-0.61,-0.18
1.39,-0.8,-0.2
1.41,-0.97,-0.17
1.49,-1.01,-0.1
1.55,-0.89,-0.07
1.56,-0.73,-0.11
1.56,-0.6,-0.13
1.49,-0.56,-0.13
1.39,-0.63,-0.12
1.34,-0.87,-0.08
1.34,-1.14,-0.06
1.32,-1.22,-0.02
1.41,-1.19,-0.04
1.53,-1.15,-0.04
1.59,-1.01,0.02
1.54,-0.86,0.02
1.37,-0.87,0.03
1.23,-0.92,0.01
1.08,-1.07,-0.07
1.12,-1.46,0.05
1.35,-1.47,0.15
1.39,-1.37,0.2
1.31,-1.33,0.21
1.21,-1.31,0.2
1.11,-1.28,0.11
1.04,-1.3,0.03
1.03,-1.44,0.03
1.11,-1.59,0.05
1.2,-1.66,0.07
1.25,-1.66,0.17
1.47,-1.5,0.28
1.79,-1.2,0.22
1.89,-0.95,0.11
1.82,-0.67,0.14
1.77,-0.48,0.22
1.71,-0.44,0.14
1.5,-0.62,-0.14
1.24,-0.88,-0.38
1.11,-0.88,-0.35
1.02,-0.81,-0.22
0.94,-0.79,-0.1
0.85,-0.81,-0.03
0.76,-0.81,0
0.66,-0.78,0.02
0.58,-0.78,0
0.5,-0.88,-0.11
0.46,-0.91,-0.18
0.49,-0.94,-0.22
0.46,-0.98,-0.2
0.39,-1.02,-0.18
0.35,-1.02,-0.17
0.32,-0.97,-0.15
0.31,-0.93,-0.14
0.32,-0.88,-0.14
0.31,-0.82,-0.14
0.3,-0.77,-0.15
0.33,-0.74,-0.15
0.37,-0.72,-0.13
0.39,-0.7,-0.12
0.4,-0.71,-0.11
0.41,-0.71,-0.12
0.42,-0.72,-0.12
0.43,-0.73,-0.12
0.45,-0.75,-0.12
0.45,-0.77,-0.12
0.47,-0.8,-0.13
0.49,-0.84,-0.12
0.5,-0.86,-0.12
0.52,-0.87,-0.11
0.55,-0.86,-0.1
0.57,-0.86,-0.09
0.58,-0.85,-0.06
0.59,-0.85,-0.04
0.59,-0.86,-0.04
0.6,-0.86,-0.05
0.62,-0.84,-0.04
0.65,-0.83,-0.04
0.67,-0.84,-0.03
0.7,-0.85,-0.01
0.69,-0.87,0.01
0.69,-0.88,0.01
0.7,-0.87,0
0.69,-0.87,0
0.68,-0.86,0.02
0.69,-0.84,0.03
0.71,-0.83,0.02
0.71,-0.83,0.02
0.72,-0.83,0.02
0.74,-0.84,0.02
0.75,-0.85,0.02
0.74,-0.86,0.02
0.73,-0.87,0.02
0.72,-0.88,0.02
0.71,-0.89,0.03
0.71,-0.9,0.04
0.71,-0.89,0.04
0.7,-0.87,0.02
0.69,-0.85,0.02
0.67,-0.87,0.03
0.65,-0.87,0.02
0.62,-0.87,0.01
0.61,-0.87,0
0.6,-0.87,-0.01
0.58,-0.87,-0.01
0.57,-0.87,0
0.56,-0.87,-0.01
0.55,-0.86,-0.01
0.53,-0.85,-0.01
0.52,-0.84,-0.03
0.52,-0.83,-0.04
0.53,-0.83,-0.06
0.53,-0.83,-0.06
0.53,-0.84,-0.06
0.52,-0.82,-0.05
0.52,-0.81,-0.05
0.51,-0.81,-0.06
0.52,-0.81,-0.08
0.53,-0.79,-0.09
0.54,-0.77,-0.09
0.54,-0.76,-0.09
0.55,-0.76,-0.09
0.56,-0.76,-0.09
0.57,-0.77,-0.09
0.59,-0.77,-0.11
0.58,-0.78,-0.12
0.57,-0.77,-0.12
0.58,-0.75,-0.13
0.56,-0.74,-0.16
0.56,-0.74,-0.18
0.59,-0.75,-0.2
0.66,-0.74,-0.22
0.72,-0.73,-0.23
0.76,-0.73,-0.22
0.79,-0.73,-0.23
0.84,-0.73,-0.24
0.89,-0.72,-0.22
0.94,-0.71,-0.21
0.96,-0.69,-0.2
0.96,-0.69,-0.2
0.97,-0.71,-0.21
1,-0.73,-0.21
1.02,-0.76,-0.21
1.06,-0.78,-0.21
1.1,-0.78,-0.22
1.17,-0.76,-0.22
1.23,-0.77,-0.22
1.27,-0.79,-0.2
1.28,-0.82,-0.2
1.27,-0.85,-0.21
1.29,-0.85,-0.25
1.35,-0.84,-0.27
1.41,-0.84,-0.28
1.45,-0.83,-0.28
1.46,-0.82,-0.29
1.46,-0.84,-0.33
1.48,-0.88,-0.36
1.51,-0.91,-0.37
1.51,-0.91,-0.37
1.5,-0.91,-0.39
1.5,-0.93,-0.43
1.54,-0.96,-0.47
1.54,-0.98,-0.51
1.52,-0.97,-0.53
1.52,-0.97,-0.54
1.54,-0.99,-0.56
1.55,-1.02,-0.57
1.54,-1.06,-0.57
1.52,-1.1,-0.58
1.48,-1.1,-0.58
1.45,-1.07,-0.57
1.45,-1.03,-0.57
1.41,-1.01,-0.56
1.36,-1.02,-0.57
1.32,-1.01,-0.58
1.29,-0.99,-0.55
1.24,-0.96,-0.53
1.12,-0.98,-0.53
1.08,-0.97,-0.51
1.05,-0.92,-0.48
0.99,-0.87,-0.46
0.96,-0.83,-0.46
0.93,-0.76,-0.46
0.9,-0.72,-0.45
0.9,-0.71,-0.45
0.9,-0.62,-0.41
0.86,-0.56,-0.41
0.75,-0.65,-0.47
0.64,-0.55,-0.57
0.69,-0.45,-0.49
0.7,-0.52,-0.38
0.71,-0.49,-0.42
0.71,-0.39,-0.42
0.6,-0.28,-0.45
0.52,-0.26,-0.44
0.46,-0.27,-0.46
0.36,-0.26,-0.49
0.31,-0.21,-0.47
0.33,-0.17,-0.4
0.31,-0.13,-0.33
0.26,-0.11,-0.31
0.19,-0.14,-0.24
0.1,-0.15,-0.14
0.02,0.06,-0.03
-0.08,0.02,-0.03
-0.23,-0.07,-0.05
-0.2,0.14,0.05
-0.36,0.16,0.13
-0.63,0.15,0.22
-0.81,0.2,0.21
-0.9,0.3,0.23
-0.84,0.49,0.32
-0.81,0.48,0.33
-0.84,0.46,0.37
-0.85,0.5,0.41
-0.85,0.6,0.43
-0.8,0.7,0.47
-0.53,0.98,0.56
-0.52,0.93,0.58
-0.7,0.59,0.5
-0.62,0.62,0.54
-0.56,0.62,0.64
-0.5,0.62,0.67
-0.49,0.6,0.71
-0.48,0.61,0.73
-0.31,0.87,0.65
-0.43,0.83,0.62
-0.63,0.64,0.67
-0.55,0.74,0.68
-0.43,0.71,0.67
-0.38,0.68,0.66
-0.37,0.66,0.66
-0.38,0.69,0.66
-0.42,0.77,0.68
-0.43,0.81,0.69
-0.37,0.79,0.68
-0.31,0.75,0.64
-0.29,0.72,0.61
-0.28,0.71,0.6
-0.27,0.75,0.6
-0.22,0.77,0.58
-0.18,0.75,0.57
-0.16,0.73,0.56
-0.14,0.72,0.55
-0.16,0.68,0.56
-0.19,0.66,0.55
-0.15,0.67,0.51
-0.13,0.66,0.46
-0.16,0.65,0.42
-0.17,0.69,0.38
-0.15,0.69,0.37
-0.15,0.65,0.37
-0.14,0.63,0.34
-0.12,0.6,0.27
-0.11,0.57,0.26
-0.21,0.5,0.31
-0.2,0.53,0.28
-0.22,0.54,0.27
-0.22,0.5,0.29
-0.14,0.5,0.29
-0.09,0.49,0.26
-0.1,0.44,0.23
-0.12,0.35,0.22
-0.06,0.32,0.18
0.01,0.29,0.13
0.08,0.23,0.13
0.18,0.22,0.12
0.24,0.2,0.11
0.24,0.13,0.07
0.25,0.09,0.07
0.31,0.1,0.08
0.38,0.08,0.05
0.43,0.04,0.02
0.46,-0.03,-0.02
0.47,-0.08,-0.07
0.49,-0.08,-0.13
0.5,-0.14,-0.18
0.51,-0.18,-0.19
0.55,-0.14,-0.21
0.63,-0.08,-0.23
0.74,-0.05,-0.25
0.81,-0.14,-0.39
0.87,-0.25,-0.49
0.88,-0.36,-0.59
0.89,-0.41,-0.63
0.93,-0.4,-0.62
0.98,-0.39,-0.57
1.11,-0.34,-0.5
1.3,-0.36,-0.45
1.43,-0.45,-0.44
1.44,-0.47,-0.48
1.39,-0.49,-0.55
1.31,-0.52,-0.64
1.22,-0.58,-0.72
1.27,-0.63,-0.7
1.46,-0.55,-0.61
1.63,-0.45,-0.58
1.73,-0.43,-0.55
1.76,-0.44,-0.52
1.72,-0.48,-0.53
1.61,-0.55,-0.59
1.49,-0.61,-0.65
1.49,-0.62,-0.68
1.61,-0.6,-0.66
1.76,-0.6,-0.57
1.87,-0.61,-0.43
1.96,-0.62,-0.31
1.93,-0.65,-0.5
1.68,-0.75,-0.55
1.34,-0.71,-0.46
1.23,-0.59,-0.35
1.45,-0.69,-0.28
1.63,-0.77,-0.21
1.72,-0.81,-0.15
1.66,-0.88,-0.19
1.57,-0.81,-0.19
1.45,-0.74,-0.21
1.36,-0.78,-0.26
1.29,-0.81,-0.23
1.26,-0.85,-0.19
1.36,-0.82,-0.13
1.32,-0.8,-0.07
1.23,-0.83,-0.05
1.24,-0.82,-0.02
1.17,-0.83,-0.05
1.09,-0.87,-0.11
1,-0.85,-0.06
0.94,-0.79,0
0.95,-0.79,-0.02
0.97,-0.8,0.01
0.98,-0.82,0.1
0.96,-0.83,0.17
0.94,-0.83,0.16
0.88,-0.82,0.05
0.72,-0.85,0.09
0.7,-0.83,0.13
0.65,-0.82,0.14
0.63,-0.84,0.08
0.57,-0.86,0.08
0.52,-0.85,0.14
0.55,-0.87,0.13
0.6,-0.88,0.22
0.61,-0.82,0.31
0.6,-0.79,0.28
0.64,-0.83,0.29
0.64,-0.86,0.32
0.54,-0.78,0.29
0.45,-0.79,0.24
0.49,-0.8,0.31
0.5,-0.73,0.45
0.57,-0.78,0.54
0.68,-0.85,0.56
0.72,-0.89,0.56
0.79,-0.95,0.52
0.86,-0.96,0.51
0.93,-0.93,0.52
1.02,-0.88,0.54
1.11,-0.87,0.56
1.2,-0.87,0.6
1.28,-0.89,0.68
1.32,-1,0.66
1.26,-1.04,0.64
1.21,-1.03,0.65
1.24,-1.01,0.69
1.3,-1.01,0.76
1.34,-1.06,0.79
1.27,-1.16,0.76
1.14,-1.23,0.72
1.17,-1.29,0.7
1.12,-1.25,0.78
1.04,-1.2,0.85
1.17,-1.22,0.86
1.24,-1.27,0.86
1.16,-1.35,0.81
1.1,-1.35,0.76
1,-1.36,0.75
0.91,-1.36,0.79
0.94,-1.34,0.84
0.99,-1.39,0.86
0.95,-1.46,0.86
0.91,-1.46,0.8
0.92,-1.4,0.74
0.94,-1.33,0.79
0.96,-1.33,0.87
0.98,-1.35,0.9
0.97,-1.37,0.79
0.83,-1.35,0.8
0.71,-1.31,0.85
0.65,-1.24,0.89
0.59,-1.21,0.94
0.52,-1.22,0.93
0.45,-1.18,0.89
0.34,-1.14,0.87
0.23,-1.09,0.82
0.12,-1.01,0.8
0.11,-0.9,0.76
0.09,-0.89,0.63
-0.01,-0.74,0.56
-0.05,-0.5,0.62
-0.11,-0.49,0.64
-0.24,-0.51,0.56
-0.13,-0.09,0.65
-0.09,0.16,0.68
-0.28,-0.25,0.4
-0.18,-0.45,0.35
-0.21,-0.23,0.52
-0.26,0.05,0.5
-0.18,0.09,0.36
-0.23,-0.06,0.31
-0.24,0,0.36
-0.23,0.18,0.36
-0.28,0.07,0.09
-0.24,0.27,0.14
-0.18,0.26,0.06
-0.19,0.23,0.03
-0.17,0.5,0.04
-0.08,0.58,0.09
-0.09,0.41,0.13
-0.1,0.33,0.11
-0.13,0.4,0.06
-0.23,0.39,-0.05
-0.31,0.36,-0.1
-0.32,0.56,-0.12
-0.37,0.63,-0.18
-0.41,0.65,-0.2
-0.35,0.66,-0.25
-0.32,0.69,-0.27
-0.29,0.84,-0.27
-0.3,0.8,-0.34
-0.36,0.73,-0.39
-0.4,0.84,-0.42
-0.42,0.83,-0.52
-0.41,0.79,-0.56
-0.41,0.84,-0.56
-0.42,0.88,-0.58
-0.41,0.89,-0.6
-0.38,0.9,-0.59
-0.34,0.85,-0.58
-0.29,0.86,-0.53
-0.3,0.89,-0.5
-0.29,0.94,-0.45
-0.27,0.97,-0.4
-0.23,0.98,-0.36
-0.22,0.97,-0.31
-0.2,0.98,-0.26
-0.18,0.98,-0.21
-0.17,0.98,-0.17
-0.15,0.97,-0.12
-0.11,0.98,-0.05
-0.06,0.99,0.03
-0.02,0.99,0.09
-0.01,0.98,0.14
-0.03,0.95,0.16
-0.03,0.95,0.19
-0.01,0.98,0.23
0.04,0.96,0.25
0.06,0.93,0.26
0.04,0.93,0.29
0.03,0.95,0.33
0.05,0.95,0.36
0.06,0.95,0.37
0.03,0.95,0.35
-0.01,0.96,0.33
-0.04,0.96,0.32
-0.06,0.94,0.31
-0.07,0.96,0.31
-0.07,0.98,0.31
-0.06,0.98,0.3
-0.05,0.97,0.29
-0.03,0.95,0.27
-0.03,0.93,0.24
-0.04,0.93,0.22
-0.05,0.93,0.21
-0.06,0.91,0.2
-0.09,0.9,0.19
-0.11,0.89,0.17
-0.16,0.88,0.16
-0.19,0.84,0.13
-0.23,0.84,0.1
-0.29,0.85,0.11
-0.32,0.81,0.1
-0.36,0.79,0.1
-0.39,0.78,0.12
-0.4,0.77,0.11
-0.42,0.74,0.1
-0.45,0.71,0.1
-0.46,0.68,0.1
-0.5,0.65,0.11
-0.5,0.62,0.09
-0.46,0.6,0.04
-0.46,0.53,0.05
-0.42,0.52,0.04
-0.41,0.52,0.02
-0.51,0.56,0.02
-0.57,0.61,0.02
-0.51,0.61,0
-0.46,0.58,-0.02
-0.48,0.56,0.03
-0.52,0.53,0.06
-0.47,0.46,0.03
-0.38,0.41,0
-0.35,0.37,0
-0.38,0.3,0.04
-0.33,0.32,0.07
-0.24,0.38,0.15
-0.17,0.38,0.23
-0.1,0.33,0.29
-0.06,0.26,0.33
-0.05,0.17,0.35
-0.05,0.1,0.34
-0.06,0.06,0.34
-0.05,0.03,0.35
-0.02,0,0.39
0.04,-0.06,0.44
0.13,-0.16,0.47
0.18,-0.24,0.49
0.31,-0.37,0.57
0.42,-0.42,0.57
0.54,-0.46,0.54
0.66,-0.51,0.52
0.71,-0.55,0.53
0.7,-0.54,0.61
0.66,-0.52,0.69
0.67,-0.62,0.66
0.81,-0.77,0.6
1.01,-0.81,0.63
1.21,-0.82,0.67
1.39,-0.84,0.69
1.52,-0.83,0.74
1.46,-0.86,0.85
1.36,-0.84,0.86
1.39,-0.76,0.76
1.42,-0.75,0.72
1.52,-0.76,0.79
1.63,-0.74,0.83
1.67,-0.74,0.83
1.64,-0.74,0.84
1.55,-0.74,0.88
1.49,-0.68,0.93
1.47,-0.61,0.96
1.47,-0.55,0.96
1.46,-0.51,0.95
1.44,-0.6,0.97
1.31,-0.71,0.96
1.25,-0.78,0.96
1.26,-0.82,0.98
1.29,-0.85,0.95
1.28,-0.87,0.89
1.27,-0.83,0.91
1.26,-0.88,1.02
1.1,-0.92,1.07
0.96,-0.91,1.04
0.84,-0.96,0.97
0.67,-1.03,0.91
0.57,-0.99,0.92
0.56,-0.92,0.97
0.61,-0.95,1
0.63,-0.96,0.96
0.6,-0.87,0.86
0.64,-0.98,0.83
0.59,-1.17,0.71
0.52,-1,0.64
0.57,-0.93,0.65
0.54,-0.94,0.65
0.47,-0.92,0.64
0.49,-0.95,0.61
0.47,-0.96,0.59
0.46,-0.97,0.61
0.51,-0.93,0.54
0.45,-0.91,0.51
0.41,-0.91,0.48
0.41,-0.93,0.46
0.41,-0.95,0.46
0.4,-0.99,0.44
0.38,-1,0.43
0.38,-0.94,0.47
0.37,-0.91,0.51
0.38,-0.95,0.51
0.35,-0.97,0.51
0.31,-0.97,0.5
0.28,-0.96,0.46
0.25,-0.95,0.45
0.22,-0.94,0.46
0.19,-0.94,0.48
0.16,-0.94,0.52
0.14,-0.94,0.55
0.12,-0.93,0.58
0.09,-0.92,0.6
0.08,-0.92,0.61
0.09,-0.93,0.6
0.09,-0.92,0.59
0.12,-0.93,0.63
0.17,-0.96,0.69
0.22,-0.99,0.73
0.25,-0.96,0.79
0.3,-0.94,0.82
0.31,-0.96,0.86
0.29,-1.01,0.91
0.28,-1.07,0.93
0.26,-1.13,0.92
0.24,-1.15,0.94
0.27,-1.14,0.99
0.39,-1.14,1.03
0.53,-1.15,1
0.7,-1.11,0.93
0.87,-1.1,0.82
1,-1.07,0.72
1.1,-1.08,0.67
1.2,-1.11,0.61
1.28,-1.07,0.55
1.31,-1.03,0.51
1.38,-0.95,0.55
1.42,-0.99,0.54
1.43,-1.04,0.51
1.48,-1.01,0.53
1.49,-1.04,0.5
1.44,-1.09,0.45
1.4,-1.11,0.43
1.34,-1.13,0.42
1.31,-1.12,0.44
1.29,-1.11,0.49
1.24,-1.15,0.49
1.2,-1.15,0.48
1.2,-1.15,0.49
1.23,-1.16,0.51
1.24,-1.16,0.53
1.24,-1.13,0.52
1.23,-1.11,0.51
1.2,-1.1,0.52
1.17,-1.09,0.54
1.15,-1.08,0.54
1.11,-1.06,0.56
1.04,-1.07,0.56
0.93,-1.05,0.53
0.82,-1,0.53
0.74,-0.94,0.56
0.7,-0.88,0.59
0.66,-0.8,0.61
0.63,-0.74,0.62
0.58,-0.67,0.64
0.49,-0.61,0.63
0.39,-0.54,0.6
0.39,-0.41,0.58
0.38,-0.37,0.58
0.27,-0.48,0.54
0.21,-0.49,0.52
0.46,0.18,0.63
0.26,-0.06,0.53
0.22,-0.06,0.44
0.22,-0.04,0.42
0.34,0.11,0.5
0.28,0.2,0.39
0.2,0,0.24
0.21,-0.1,0.33
0.18,0.06,0.35
0.08,0.15,0.29
0.06,0.19,0.3
0.05,0.29,0.29
0.09,0.52,0.45
0.01,0.37,0.36
-0.1,0.19,0.2
-0.01,0.4,0.33
0.01,0.42,0.33
-0.03,0.41,0.26
-0.01,0.46,0.25
-0.01,0.5,0.28
-0.03,0.55,0.3
-0.1,0.5,0.26
-0.15,0.52,0.23
-0.16,0.55,0.19
-0.23,0.43,0.11
-0.26,0.48,0.12
-0.31,0.56,0.08
-0.47,0.69,0.08
-0.49,0.73,0.08
-0.48,0.73,0.07
-0.49,0.64,0.02
-0.58,0.59,-0.04
-0.61,0.68,-0.09
-0.62,0.69,-0.15
-0.69,0.68,-0.2
-0.7,0.71,-0.28
-0.66,0.75,-0.34
-0.62,0.75,-0.39
-0.57,0.76,-0.42
-0.53,0.76,-0.43
-0.53,0.74,-0.41
-0.52,0.76,-0.39
-0.52,0.82,-0.38
-0.52,0.87,-0.37
-0.5,0.87,-0.37
-0.48,0.86,-0.35
-0.45,0.86,-0.3
-0.41,0.86,-0.25
-0.39,0.88,-0.21
-0.35,0.95,-0.19
-0.29,1,-0.19
-0.22,1,-0.15
-0.13,0.96,0.05
-0.03,0.89,0.13
-0.02,0.88,0.16
-0.05,0.9,0.17
-0.06,0.96,0.18
-0.02,1.05,0.2
0.02,1.09,0.22
0.06,1.06,0.22
0.08,1.02,0.2
0.08,0.99,0.2
0.1,1,0.2
0.13,1.03,0.22
0.16,1.05,0.26
0.19,1.04,0.28
0.2,1.03,0.29
0.21,1.03,0.28
0.22,1.02,0.25
0.23,1.02,0.23
0.23,1.01,0.22
0.23,0.99,0.21
0.22,0.97,0.21
0.2,0.96,0.19
0.19,0.97,0.16
0.18,0.98,0.14
0.17,0.98,0.13
0.15,0.99,0.13
0.12,0.99,0.11
0.07,0.96,0.08
0.05,0.96,0.06
0.05,0.96,0.07
0.04,0.96,0.09
0.01,0.97,0.1
-0.01,0.98,0.1
-0.02,0.99,0.09
-0.03,0.98,0.09
-0.05,0.96,0.09
-0.06,0.94,0.09
-0.08,0.92,0.09
-0.1,0.91,0.09
-0.12,0.89,0.08
-0.15,0.88,0.07
-0.17,0.88,0.05
-0.2,0.89,0.03
-0.22,0.89,0.02
-0.25,0.87,0.01
-0.29,0.85,0.02
-0.31,0.82,0.02
-0.34,0.8,0.02
-0.38,0.79,0.01
-0.41,0.77,0
-0.43,0.76,-0.01
-0.46,0.75,-0.03
-0.49,0.74,-0.07
-0.49,0.71,-0.08
-0.51,0.71,-0.07
-0.51,0.73,-0.08
-0.47,0.73,-0.09
-0.42,0.71,-0.11
-0.4,0.68,-0.12
-0.4,0.66,-0.12
-0.38,0.62,-0.12
-0.36,0.6,-0.09
-0.25,0.58,-0.06
-0.21,0.54,-0.06
-0.24,0.48,-0.04
-0.21,0.43,-0.02
-0.2,0.38,0.01
-0.2,0.33,0.07
-0.17,0.31,0.14
-0.12,0.26,0.22
-0.08,0.2,0.28
-0.05,0.16,0.3
-0.02,0.13,0.28
0.03,0.09,0.25
0.08,0.05,0.24
0.13,-0.02,0.28
0.19,-0.08,0.37
0.27,-0.12,0.43
0.32,-0.13,0.46
0.36,-0.13,0.42
0.4,-0.15,0.41
0.45,-0.22,0.41
0.49,-0.23,0.51
0.56,-0.28,0.64
0.62,-0.4,0.72
0.65,-0.38,0.8
0.65,-0.39,0.71
0.61,-0.43,0.64
0.6,-0.48,0.69
0.64,-0.56,0.78
0.71,-0.63,0.88
0.78,-0.69,0.97
0.86,-0.72,0.99
0.89,-0.73,0.93
0.89,-0.69,0.81
0.91,-0.64,0.69
0.97,-0.62,0.68
1.05,-0.72,0.77
1.17,-0.84,0.89
1.27,-0.91,1.01
1.28,-0.96,1.02
1.3,-0.85,0.93
1.27,-0.74,0.85
1.2,-0.73,0.85
1.22,-0.77,0.92
1.24,-1.02,1
1.26,-1.08,1.03
1.29,-1.07,1.05
1.29,-0.89,1.05
1.28,-0.73,1.02
1.27,-0.69,1
1.27,-0.73,0.98
1.2,-0.79,0.94
1.1,-0.82,0.91
1.06,-0.85,0.94
1.06,-0.88,0.99
1.07,-0.86,0.98
1.04,-0.79,0.94
1.01,-0.75,0.95
1.01,-0.75,0.93
0.99,-0.77,0.9
0.95,-0.79,0.88
0.93,-0.85,0.84
0.95,-0.86,0.86
0.95,-0.82,0.87
0.95,-0.81,0.82
0.88,-0.83,0.74
0.83,-0.87,0.7
0.81,-0.82,0.74
0.74,-0.72,0.72
0.72,-0.8,0.62
0.74,-0.85,0.54
0.67,-0.79,0.51
0.65,-0.74,0.55
0.66,-0.8,0.56
0.64,-0.88,0.52
0.62,-0.81,0.5
0.54,-0.78,0.48
0.48,-0.87,0.42
0.45,-0.89,0.4
0.45,-0.8,0.41
0.44,-0.78,0.4
0.42,-0.83,0.36
0.41,-0.9,0.32
0.43,-0.91,0.36
0.43,-0.83,0.41
0.41,-0.76,0.4
0.39,-0.81,0.34
0.36,-0.86,0.32
0.35,-0.87,0.32
0.35,-0.88,0.3
0.36,-0.91,0.31
0.35,-0.94,0.29
0.35,-0.93,0.34
0.36,-0.87,0.4
0.35,-0.85,0.37
0.35,-0.9,0.32
0.35,-0.94,0.3
0.35,-0.89,0.34
0.36,-0.87,0.37
0.37,-0.9,0.4
0.36,-0.91,0.47
0.38,-0.92,0.52
0.4,-0.94,0.51
0.38,-0.94,0.51
0.36,-0.94,0.51
0.37,-0.96,0.52
0.38,-0.94,0.55
0.38,-0.93,0.54
0.41,-0.97,0.52
0.41,-0.97,0.49
0.41,-0.95,0.45
0.39,-0.93,0.42
0.38,-0.92,0.39
0.37,-0.9,0.37
0.38,-0.89,0.35
0.38,-0.89,0.31
0.38,-0.88,0.29
0.37,-0.87,0.28
0.37,-0.86,0.28
0.38,-0.85,0.28
0.39,-0.85,0.28
0.4,-0.86,0.27
0.39,-0.86,0.24
0.38,-0.85,0.24
0.38,-0.84,0.25
0.38,-0.84,0.26
0.39,-0.84,0.26
0.39,-0.85,0.29
0.39,-0.87,0.33
0.39,-0.88,0.36
0.38,-0.89,0.37
0.36,-0.89,0.38
0.36,-0.91,0.39
0.34,-0.92,0.41
0.32,-0.94,0.45
0.31,-0.95,0.49
0.28,-0.96,0.58
0.23,-0.98,0.69
0.19,-0.98,0.75
0.13,-1,0.79
0.04,-1.02,0.81
-0.01,-1.04,0.86
-0.02,-1.08,0.95
-0.01,-1.14,1.02
0.04,-1.18,1.06
0.08,-1.19,1.1
0.09,-1.22,1.16
0.1,-1.27,1.2
0.11,-1.34,1.17
0.14,-1.49,1.16
0.17,-1.56,1.15
0.2,-1.65,1.15
0.24,-1.71,1.15
0.31,-1.74,1.16
0.36,-1.78,1.19
0.36,-1.85,1.23
0.34,-1.92,1.2
0.33,-1.96,1.14
0.34,-1.93,1.13
0.36,-1.9,1.13
0.41,-1.88,1.13
0.46,-1.83,1.14
0.5,-1.78,1.15
0.52,-1.71,1.15
0.56,-1.62,1.11
0.6,-1.53,1.07
0.59,-1.48,1.05
0.59,-1.46,1.01
0.58,-1.42,0.96
0.6,-1.33,0.92
0.65,-1.22,0.91
0.7,-1.12,0.9
0.75,-1.05,0.89
0.77,-0.99,0.87
0.77,-0.96,0.74
0.82,-0.88,0.71
0.85,-0.82,0.7
0.84,-0.78,0.66
0.82,-0.76,0.64
0.79,-0.76,0.65
0.82,-0.74,0.64
0.87,-0.75,0.61
0.85,-0.76,0.58
0.84,-0.73,0.5
0.8,-0.69,0.49
0.78,-0.65,0.55
0.79,-0.67,0.51
0.78,-0.69,0.46
0.75,-0.71,0.43
0.69,-0.7,0.42
0.57,-0.52,0.46
0.59,-0.59,0.37
0.62,-0.79,0.25
0.5,-0.7,0.24
0.51,-0.54,0.22
0.61,-0.52,0.08
0.6,-0.51,0.06
0.54,-0.48,0.13
0.44,-0.43,0.26
0.34,-0.35,0.17
0.19,-0.45,0.03
0.11,-0.27,0.11
0.08,-0.21,0.17
0.05,-0.21,0.21
0.03,-0.2,0.15
0.09,-0.02,0.01
0.07,0.07,-0.01
0.2,0.13,-0.03
0.31,0.11,-0.04
0.27,0.11,0.03
0.2,0.13,0.09
0.12,0.12,0.09
0.1,0.16,0.07
0.07,0.24,0.05
-0.06,0.3,0
-0.25,0.25,-0.05
-0.39,0.26,0
-0.48,0.32,0.06
-0.62,0.33,0.1
-0.79,0.37,0.13
-0.91,0.5,0.1
-1.08,0.61,0.11
-1.24,0.64,0.16
-1.2,0.66,0.19
-1.11,0.69,0.22
-1.1,0.68,0.26
-1.12,0.64,0.36
-1.03,0.63,0.41
-0.97,0.61,0.44
-0.92,0.59,0.46
-0.9,0.6,0.47
-0.93,0.65,0.47
-0.97,0.7,0.45
-0.95,0.7,0.43
-0.88,0.68,0.43
-0.82,0.65,0.46
-0.8,0.67,0.48
-0.77,0.72,0.47
-0.73,0.78,0.46
-0.67,0.79,0.46
-0.59,0.75,0.44
-0.51,0.69,0.42
-0.44,0.65,0.41
-0.41,0.63,0.41
-0.4,0.62,0.38
-0.4,0.64,0.35
-0.37,0.64,0.32
-0.32,0.61,0.3
-0.27,0.55,0.29
-0.23,0.54,0.27
-0.25,0.5,0.27
-0.23,0.49,0.24
-0.16,0.47,0.25
-0.08,0.4,0.2
-0.1,0.39,0.14
-0.15,0.37,0.07
-0.11,0.3,0.01
-0.06,0.27,0.01
0,0.25,-0.02
0.03,0.23,-0.06
0.05,0.23,-0.06
0.08,0.2,-0.03
0.12,0.18,-0.05
0.13,0.14,-0.08
0.09,0.05,-0.11
0.09,-0.01,-0.15
0.13,-0.07,-0.14
0.18,-0.14,-0.14
0.26,-0.16,-0.11
0.34,-0.18,-0.01
0.41,-0.22,0.07
0.47,-0.27,0.06
0.5,-0.33,0
0.49,-0.37,-0.06
0.51,-0.44,-0.11
0.53,-0.56,-0.11
0.53,-0.67,-0.08
0.54,-0.72,-0.03
0.62,-0.68,0
0.74,-0.62,-0.05
0.91,-0.72,-0.09
1.02,-0.84,-0.11
1.11,-0.89,-0.13
1.12,-0.92,-0.17
1.07,-0.9,-0.14
1.09,-0.78,-0.05
1.18,-0.58,-0.08
1.22,-0.41,-0.08
1.26,-0.49,-0.02
1.34,-0.69,-0.01
1.38,-0.79,0.03
1.38,-0.83,0.03
1.42,-0.85,0
1.54,-0.82,0.01
1.65,-0.66,0.06
1.67,-0.54,0.1
1.69,-0.62,0.11
1.67,-0.82,0.09
1.61,-1.02,0.12
1.64,-1.16,0.17
1.73,-1.15,0.25
1.84,-0.88,0.4
1.87,-0.66,0.44
1.78,-0.51,0.35
1.68,-0.47,0.27
1.6,-1.07,0.24
1.54,-1.36,0.33
1.56,-1.47,0.31
1.54,-1.3,0.34
1.56,-1,0.5
1.55,-0.81,0.48
1.42,-0.77,0.38
1.35,-0.94,0.33
1.35,-1.06,0.44
1.29,-1.09,0.52
1.26,-1.17,0.5
1.27,-1.18,0.59
1.19,-1.12,0.71
1.12,-1.08,0.73
1.05,-1.18,0.62
0.94,-1.27,0.56
0.82,-1.28,0.64
0.73,-1.36,0.67
0.74,-1.48,0.62
0.78,-1.53,0.55
0.78,-1.57,0.48
0.76,-1.55,0.47
0.71,-1.42,0.49
0.7,-1.24,0.54
0.71,-1.09,0.55
0.7,-0.9,0.51
0.64,-0.65,0.43
0.63,-0.59,0.4
0.65,-0.57,0.37
0.66,-0.58,0.34
0.66,-0.59,0.32
0.65,-0.61,0.34
0.63,-0.65,0.35
0.61,-0.71,0.3
0.59,-0.75,0.25
0.55,-0.79,0.21
0.52,-0.83,0.18
0.51,-0.9,0.14
0.51,-0.94,0.11
0.5,-0.97,0.08
0.48,-1.05,0.06
0.47,-1.03,0.1
0.47,-0.94,0.19
0.49,-0.92,0.17
0.45,-0.86,0.14
0.44,-0.85,0.12
0.52,-0.92,0.06
0.53,-0.85,0.09
0.5,-0.78,0.15
0.51,-0.76,0.2
0.55,-0.74,0.26
0.59,-0.73,0.29
0.6,-0.78,0.28
0.66,-0.77,0.35
0.67,-0.79,0.4
0.67,-0.81,0.39
0.7,-0.85,0.38
0.7,-0.87,0.37
0.68,-0.87,0.36
0.64,-0.9,0.33
0.61,-0.92,0.27
0.6,-0.93,0.27
0.55,-0.92,0.26
0.5,-0.89,0.25
0.48,-0.87,0.26
0.5,-0.87,0.24
0.51,-0.87,0.21
0.51,-0.85,0.19
0.5,-0.84,0.18
0.51,-0.82,0.17
0.5,-0.8,0.17
0.49,-0.81,0.15
0.5,-0.81,0.14
0.48,-0.81,0.16
0.5,-0.81,0.16
0.52,-0.82,0.16
0.5,-0.82,0.16
0.49,-0.83,0.18
0.48,-0.83,0.21
0.5,-0.85,0.21
0.5,-0.85,0.22
0.49,-0.86,0.23
0.51,-0.87,0.24
0.51,-0.88,0.25
0.51,-0.88,0.27
0.52,-0.88,0.31
0.49,-0.89,0.33
0.47,-0.91,0.33
0.46,-0.9,0.31
0.43,-0.9,0.26
0.42,-0.89,0.26
0.4,-0.89,0.28
0.38,-0.9,0.29
0.41,-0.89,0.29
0.43,-0.89,0.28
0.44,-0.89,0.27
0.44,-0.9,0.26
0.44,-0.89,0.26
0.43,-0.89,0.25
0.42,-0.88,0.25
0.41,-0.87,0.25
0.41,-0.86,0.24
0.42,-0.86,0.25
0.43,-0.87,0.24
0.43,-0.88,0.24
0.43,-0.89,0.24
0.43,-0.89,0.24
0.44,-0.89,0.24
0.44,-0.88,0.25
0.44,-0.87,0.26
0.44,-0.87,0.27
0.44,-0.87,0.26
0.44,-0.87,0.26
0.45,-0.86,0.26
0.46,-0.86,0.25
0.46,-0.88,0.25
0.47,-0.89,0.25
0.47,-0.88,0.25
0.47,-0.89,0.25
0.47,-0.89,0.24
0.46,-0.9,0.24
0.46,-0.9,0.24
0.46,-0.9,0.24
0.46,-0.9,0.25
0.46,-0.9,0.25
0.45,-0.9,0.25
0.45,-0.9,0.24
0.45,-0.9,0.24
0.45,-0.9,0.24
0.44,-0.9,0.24
0.43,-0.9,0.25
0.43,-0.89,0.25
0.43,-0.89,0.25
0.43,-0.89,0.25
0.43,-0.89,0.25
0.43,-0.89,0.26
0.43,-0.88,0.25
0.43,-0.88,0.25
0.43,-0.89,0.25
0.43,-0.9,0.26
0.42,-0.9,0.26
0.42,-0.9,0.25
0.41,-0.9,0.25
0.41,-0.9,0.24
0.41,-0.89,0.24
0.41,-0.9,0.25
0.42,-0.9,0.26
0.41,-0.91,0.26
0.41,-0.91,0.26
0.4,-0.91,0.25
0.4,-0.91,0.25
0.4,-0.91,0.25
0.41,-0.91,0.25
0.41,-0.9,0.26
0.4,-0.9,0.25
0.4,-0.9,0.25
0.4,-0.9,0.25
0.4,-0.9,0.25
0.4,-0.9,0.26
0.41,-0.9,0.27
0.41,-0.9,0.29
0.42,-0.91,0.31
0.42,-0.92,0.31
0.41,-0.93,0.31
0.41,-0.93,0.32
0.4,-0.93,0.41
0.42,-0.97,0.53
0.42,-1.01,0.6
0.36,-1.05,0.63
0.28,-1.07,0.65
0.22,-1.08,0.7
0.15,-1.11,0.75
0.16,-1.1,0.85
0.23,-1.08,1.01
0.32,-1.09,1.18
0.44,-1.1,1.27
0.51,-1.12,1.31
0.48,-1.12,1.37
0.41,-1.08,1.43
0.41,-1.11,1.44
0.44,-1.17,1.41
0.44,-1.23,1.4
0.44,-1.32,1.33
0.52,-1.4,1.28
0.6,-1.43,1.2
0.67,-1.45,1.1
0.73,-1.46,1.03
0.8,-1.48,0.95
0.88,-1.45,0.87
0.93,-1.43,0.8
0.93,-1.46,0.69
0.94,-1.44,0.58
0.95,-1.36,0.5
0.96,-1.34,0.44
0.94,-1.37,0.4
0.93,-1.37,0.34
0.98,-1.27,0.33
1.05,-1.13,0.3
1.06,-1.05,0.23
1.06,-0.97,0.18
1.08,-0.92,0.17
1.06,-0.96,0.15
1.03,-0.97,0.11
0.98,-0.96,0.08
0.93,-0.92,0.05
0.91,-0.81,0.05
0.88,-0.73,0.04
0.86,-0.7,0.04
0.88,-0.71,0.06
0.94,-0.67,0.05
0.92,-0.65,0.04
0.9,-0.62,0.08
0.91,-0.57,0.13
0.91,-0.5,0.15
0.92,-0.45,0.19
0.92,-0.49,0.21
0.91,-0.5,0.23
0.92,-0.39,0.29
0.9,-0.32,0.32
0.86,-0.31,0.29
0.83,-0.34,0.33
0.76,-0.32,0.38
0.71,-0.31,0.41
0.65,-0.29,0.47
0.59,-0.22,0.53
0.55,-0.16,0.54
0.48,-0.11,0.54
0.44,0.03,0.51
0.48,0.11,0.48
0.57,0.14,0.47
0.51,0.17,0.4
0.38,0.24,0.34
0.29,0.25,0.28
0.26,0.23,0.23
0.25,0.18,0.22
0.16,0.12,0.35
0.03,0.05,0.39
0.1,0.26,0.3
0.24,0.64,0.17
0.24,0.75,0.17
0.21,0.72,0.11
0.14,0.7,0.1
0.09,0.63,0.15
0.09,0.59,0.17
0.06,0.63,0.19
0.1,0.83,0.13
0.1,0.84,0.18
-0.01,0.66,0.23
-0.06,0.64,0.21
-0.09,0.69,0.22
-0.14,0.72,0.22
-0.13,0.76,0.21
-0.18,0.67,0.22
-0.24,0.55,0.25
-0.24,0.56,0.3
-0.31,0.55,0.33
-0.39,0.6,0.34
-0.5,0.64,0.36
-0.55,0.67,0.33
-0.53,0.54,0.33
-0.66,0.49,0.49
-0.75,0.57,0.52
-0.77,0.46,0.58
-0.87,0.43,0.61
-0.81,0.46,0.57
-0.78,0.46,0.57
-0.77,0.44,0.58
-0.76,0.48,0.62
-0.75,0.49,0.63
-0.76,0.48,0.64
-0.77,0.49,0.64
-0.75,0.52,0.65
-0.69,0.48,0.66
-0.71,0.42,0.67
-0.68,0.49,0.7
-0.59,0.55,0.69
-0.58,0.55,0.65
-0.62,0.57,0.65
-0.62,0.6,0.65
-0.58,0.63,0.65
-0.54,0.64,0.64
-0.5,0.66,0.62
-0.48,0.68,0.6
-0.46,0.69,0.59
-0.41,0.66,0.56
-0.34,0.62,0.53
-0.27,0.58,0.49
-0.23,0.5,0.42
-0.21,0.48,0.39
-0.21,0.5,0.36
-0.21,0.53,0.32
-0.2,0.54,0.3
-0.19,0.49,0.21
-0.14,0.5,0.13
-0.07,0.56,0.12
-0.03,0.52,0.09
0,0.47,0.05
0.02,0.54,0.04
0.06,0.41,-0.04
0.09,0.33,-0.08
0.05,0.41,-0.04
0.03,0.41,-0.07
0.14,0.46,-0.12
0.17,0.4,-0.18
0.13,0.3,-0.24
0.15,0.24,-0.27
0.21,0.18,-0.23
0.29,0.11,-0.32
0.37,0.07,-0.37
0.43,0.05,-0.32
0.47,0,-0.34
0.5,-0.04,-0.33
0.52,-0.06,-0.31
0.55,-0.01,-0.33
0.71,0.03,-0.37
0.74,-0.01,-0.4
0.72,-0.1,-0.39
0.72,-0.19,-0.39
0.74,-0.27,-0.42
0.72,-0.3,-0.42
0.77,-0.27,-0.45
0.98,-0.18,-0.51
1.11,-0.12,-0.53
1.14,-0.18,-0.56
1.24,-0.33,-0.62
1.3,-0.45,-0.64
1.31,-0.55,-0.64
1.33,-0.6,-0.59
1.36,-0.59,-0.55
1.42,-0.51,-0.53
1.51,-0.42,-0.52
1.57,-0.45,-0.53
1.58,-0.59,-0.55
1.55,-0.7,-0.51
1.48,-0.69,-0.46
1.41,-0.64,-0.49
1.4,-0.55,-0.54
1.45,-0.46,-0.51
1.56,-0.5,-0.5
1.75,-0.65,-0.41
2,-0.97,-0.19
1.96,-0.91,0.02
1.61,-0.76,0.05
1.17,-0.67,0.02
0.96,-0.69,0.04
1.1,-0.79,0.1
1.45,-0.83,0.3
1.76,-0.88,0.48
1.81,-0.96,0.47
1.52,-0.93,0.41
1.23,-0.85,0.34
1.17,-0.84,0.38
1.32,-0.89,0.46
1.5,-0.86,0.49
1.58,-0.77,0.51
1.56,-0.73,0.56
1.52,-0.73,0.58
1.47,-0.73,0.6
1.42,-0.72,0.64
1.41,-0.73,0.66
1.42,-0.75,0.65
1.43,-0.76,0.64
1.44,-0.76,0.63
1.45,-0.77,0.62
1.48,-0.78,0.63
1.47,-0.79,0.61
1.38,-0.85,0.55
1.35,-0.88,0.5
1.34,-0.89,0.45
1.37,-0.9,0.43
1.39,-0.9,0.44
1.39,-0.89,0.45
1.4,-0.9,0.46
1.41,-0.89,0.48
1.44,-0.89,0.47
1.45,-0.89,0.45
1.37,-0.85,0.46
1.32,-0.8,0.47
1.33,-0.77,0.51
1.37,-0.76,0.55
1.45,-0.77,0.55
1.52,-0.73,0.54
1.5,-0.67,0.53
1.48,-0.67,0.46
1.52,-0.66,0.4
1.43,-0.69,0.38
1.3,-0.76,0.38
1.22,-0.8,0.39
1.15,-0.8,0.39
1.17,-0.79,0.36
1.23,-0.79,0.33
1.2,-0.78,0.26
1.11,-0.77,0.22
1.05,-0.74,0.21
0.97,-0.69,0.22
0.91,-0.63,0.21
0.84,-0.56,0.19
0.8,-0.51,0.18
0.79,-0.47,0.19
0.82,-0.4,0.22
0.86,-0.32,0.23
0.91,-0.22,0.21
0.92,-0.14,0.18
0.87,-0.12,0.14
0.78,-0.13,0.18
0.62,-0.11,0.26
0.5,-0.07,0.28
0.53,0.01,0.22
0.63,0.04,0.16
0.71,0,0.16
0.75,-0.02,0.18
0.77,0.02,0.18
0.66,-0.02,0.28
0.6,0.01,0.27
0.61,0.13,0.16
0.57,0.2,0.18
0.57,0.2,0.2
0.61,0.23,0.17
0.63,0.32,0.19
0.61,0.36,0.24
0.53,0.34,0.2
0.49,0.37,0.21
0.46,0.35,0.19
0.39,0.33,0.2
0.33,0.36,0.24
0.33,0.41,0.25
0.34,0.47,0.24
0.38,0.56,0.23
0.39,0.64,0.23
0.38,0.63,0.25
0.33,0.52,0.21
0.32,0.55,0.22
0.35,0.69,0.26
0.35,0.7,0.27
0.31,0.68,0.28
0.3,0.65,0.27
0.31,0.63,0.26
0.31,0.62,0.24
0.31,0.61,0.24
0.29,0.62,0.23
0.25,0.62,0.21
0.23,0.62,0.22
0.22,0.65,0.26
0.23,0.67,0.28
0.21,0.74,0.31
0.18,0.78,0.33
0.17,0.81,0.35
0.18,0.81,0.38
0.17,0.8,0.4
0.13,0.81,0.42
0.09,0.82,0.44
0.02,0.82,0.47
-0.04,0.85,0.49
-0.07,0.86,0.5
-0.09,0.84,0.51
-0.1,0.82,0.52
-0.11,0.81,0.51
-0.11,0.85,0.48
-0.1,0.91,0.51
-0.03,1.05,0.58
-0.09,0.95,0.51
-0.15,0.91,0.5
-0.04,1.06,0.48
-0.1,0.98,0.46
-0.17,0.98,0.54
-0.1,1.03,0.51
0.02,1.1,0.49
0.09,1.1,0.49
0.03,1.01,0.49
0.01,1.05,0.52
0.05,1.02,0.53
-0.02,0.89,0.54
0.01,0.87,0.55
0.07,0.9,0.59
0.03,0.92,0.58
-0.01,0.9,0.55
0.02,0.97,0.51
-0.11,0.91,0.45
-0.2,0.8,0.48
-0.11,0.82,0.52
-0.12,0.74,0.5
-0.17,0.71,0.5
-0.13,0.79,0.5
-0.06,0.81,0.46
-0.12,0.74,0.4
-0.19,0.72,0.36
-0.22,0.71,0.32
-0.29,0.67,0.26
-0.4,0.6,0.25
-0.44,0.59,0.33
-0.39,0.61,0.38
-0.42,0.59,0.38
-0.46,0.56,0.38
-0.47,0.53,0.35
-0.51,0.46,0.33
-0.53,0.41,0.35
-0.79,0.34,0.37
-0.81,0.42,0.41
-0.82,0.43,0.42
-0.81,0.39,0.43
-0.81,0.36,0.43
-0.8,0.36,0.43
-0.83,0.36,0.43
-0.88,0.43,0.45
-0.92,0.51,0.47
-0.95,0.56,0.49
-0.96,0.59,0.53
-0.94,0.6,0.56
-0.95,0.6,0.57
-0.96,0.58,0.6
-0.98,0.55,0.62
-0.98,0.52,0.65
-0.94,0.47,0.66
-0.89,0.44,0.67
-0.82,0.45,0.67
-0.74,0.5,0.68
-0.67,0.54,0.67
-0.63,0.57,0.64
-0.62,0.59,0.6
-0.61,0.57,0.54
-0.55,0.56,0.51
-0.47,0.52,0.49
-0.39,0.45,0.47
-0.15,0.43,0.4
-0.06,0.46,0.4
-0.01,0.46,0.34
0.03,0.48,0.32
-0.02,0.52,0.31
-0.07,0.51,0.26
0.01,0.53,0.26
0.08,0.53,0.25
0.07,0.49,0.26
0.04,0.43,0.21
0.11,0.4,0.16
0.18,0.39,0.16
0.22,0.37,0.14
0.22,0.35,0.12
0.18,0.3,0.1
0.2,0.29,0.08
0.21,0.27,0.08
0.25,0.27,0.1
0.32,0.25,0.07
0.32,0.2,0.06
0.31,0.15,0.1
0.31,0.08,0.13
0.32,0.01,0.12
0.34,0.02,0.14
0.38,0.02,0.17
0.42,-0.06,0.13
0.57,-0.11,0.14
0.64,-0.18,0.16
0.72,-0.24,0.18
0.78,-0.26,0.2
0.82,-0.24,0.21
0.89,-0.24,0.19
0.98,-0.3,0.22
1.04,-0.39,0.29
1.1,-0.44,0.3
1.14,-0.48,0.24
1.06,-0.62,0.14
0.98,-0.5,0.2
1.03,-0.33,0.3
1.18,-0.51,0.33
1.33,-0.68,0.41
1.41,-0.69,0.41
1.39,-0.67,0.33
1.33,-0.7,0.24
1.26,-0.7,0.23
1.26,-0.65,0.34
1.32,-0.67,0.48
1.4,-0.72,0.53
1.44,-0.71,0.49
1.36,-0.69,0.47
1.24,-0.71,0.47
1.15,-1.03,0.52
1.1,-1.1,0.59
1.19,-1.05,0.67
1.34,-0.95,0.74
1.36,-0.97,0.75
1.34,-0.9,0.84
1.37,-0.81,0.85
1.36,-0.9,0.73
1.24,-1.01,0.72
1.18,-1.07,0.89
1.26,-1.05,1.07
1.37,-1.01,1.07
1.41,-0.95,1.05
1.37,-0.82,1.09
1.29,-0.77,1.09
1.17,-0.79,1.06
1.09,-0.78,1.08
1.08,-0.79,1.14
1.08,-0.8,1.24
1.06,-0.79,1.34
1.06,-0.8,1.39
1.01,-0.78,1.38
0.89,-0.76,1.36
0.79,-0.75,1.38
0.67,-0.75,1.37
0.56,-0.79,1.38
0.53,-0.84,1.45
0.51,-0.92,1.55
0.49,-0.91,1.62
0.49,-0.85,1.63
0.54,-0.88,1.55
0.61,-0.89,1.52
0.66,-0.88,1.5
0.69,-0.91,1.43
0.78,-0.95,1.31
0.88,-0.97,1.2
0.87,-0.96,1.14
0.8,-0.95,1.12
0.73,-0.94,1.1
0.71,-0.96,1.09
0.72,-0.98,1.03
0.71,-0.98,0.94
0.68,-1.03,0.84
0.72,-1.02,0.79
0.78,-0.88,0.81
0.76,-0.82,0.82
0.79,-0.84,0.77
0.82,-0.84,0.69
0.78,-0.79,0.62
0.74,-0.74,0.57
0.72,-0.68,0.59
0.72,-0.63,0.6
0.71,-0.58,0.51
0.66,-0.49,0.46
0.65,-0.47,0.47
0.68,-0.44,0.52
0.7,-0.42,0.52
0.7,-0.39,0.52
0.7,-0.34,0.52
0.69,-0.3,0.52
0.68,-0.27,0.5
0.67,-0.23,0.51
0.67,-0.2,0.54
0.66,-0.15,0.56
0.65,-0.07,0.58
0.66,0.03,0.62
0.72,0.14,0.65
0.83,0.2,0.69
0.99,0.17,0.75
1.12,0.05,0.86
1.14,-0.06,0.94
1.11,-0.1,0.9
1.09,-0.08,0.81
1.07,-0.06,0.8
1,-0.06,0.84
0.94,-0.06,0.85
0.94,-0.05,0.83
0.93,-0.03,0.82
0.87,0.02,0.75
0.66,0.1,0.71
0.56,0.12,0.69
0.47,0.15,0.66
0.4,0.18,0.65
0.35,0.22,0.65
0.35,0.27,0.64
0.35,0.28,0.66
0.35,0.32,0.7
0.34,0.3,0.72
0.28,0.25,0.69
0.2,0.23,0.63
0.14,0.21,0.56
0.05,0.24,0.53
0.03,0.16,0.51
0.07,0.22,0.52
0.12,0.42,0.56
0.12,0.48,0.55
0.07,0.45,0.5
0.09,0.43,0.46
0.08,0.45,0.42
0.05,0.44,0.4
0.02,0.48,0.41
-0.02,0.56,0.41
0.01,0.63,0.4
0.04,0.67,0.4
0.04,0.65,0.43
0.03,0.66,0.41
0.01,0.65,0.41
0.08,0.73,0.4
0.09,0.79,0.37
0.05,0.75,0.37
0.07,0.7,0.39
0.05,0.71,0.4
0.07,0.73,0.41
0.09,0.72,0.41
0.09,0.74,0.4
0.08,0.73,0.39
0.04,0.71,0.37
0.02,0.73,0.35
0.03,0.79,0.35
-0.01,0.79,0.35
0,0.81,0.34
0.01,0.82,0.35
0.02,0.79,0.38
0.03,0.77,0.39
-0.01,0.77,0.4
-0.04,0.78,0.39
-0.08,0.79,0.37
-0.12,0.81,0.37
-0.15,0.82,0.38
-0.17,0.83,0.39
-0.17,0.83,0.34
-0.17,0.81,0.34
-0.17,0.79,0.37
-0.17,0.8,0.37
-0.18,0.82,0.36
-0.19,0.84,0.35
-0.2,0.84,0.32
-0.2,0.86,0.28
-0.23,0.88,0.27
-0.26,0.87,0.26
-0.29,0.82,0.27
-0.32,0.8,0.28
-0.34,0.81,0.25
-0.38,0.79,0.22
-0.43,0.78,0.21
-0.45,0.78,0.19
-0.46,0.76,0.18
-0.5,0.74,0.15
-0.52,0.74,0.15
-0.55,0.74,0.15
-0.57,0.73,0.15
-0.6,0.71,0.14
-0.63,0.69,0.12
-0.67,0.7,0.1
-0.69,0.71,0.09
-0.68,0.72,0.09
-0.68,0.73,0.15
-0.66,0.69,0.18
-0.68,0.62,0.18
-0.73,0.57,0.17
-0.79,0.58,0.14
-0.83,0.66,0.11
-0.83,0.76,0.1
-0.79,0.81,0.12
-0.75,0.79,0.16
-0.73,0.73,0.2
-0.74,0.69,0.22
-0.75,0.67,0.23
-0.77,0.7,0.22
-0.8,0.76,0.21
-0.78,0.82,0.19
-0.72,0.86,0.19
-0.66,0.86,0.21
-0.61,0.83,0.24
-0.59,0.8,0.27
-0.59,0.78,0.29
-0.58,0.76,0.31
-0.56,0.74,0.31
-0.52,0.72,0.31
-0.49,0.72,0.31
-0.48,0.75,0.31
-0.47,0.82,0.3
-0.48,0.88,0.27
-0.4,0.82,0.29
-0.39,0.79,0.32
-0.39,0.78,0.34
-0.38,0.76,0.34
-0.38,0.76,0.33
-0.39,0.78,0.33
-0.38,0.81,0.33
-0.34,0.82,0.33
-0.31,0.82,0.32
-0.29,0.82,0.33
-0.27,0.81,0.34
-0.25,0.82,0.36
-0.24,0.84,0.35
-0.23,0.84,0.34
-0.21,0.83,0.34
-0.19,0.82,0.33
-0.17,0.84,0.33
-0.13,0.85,0.33
-0.09,0.84,0.33
-0.06,0.83,0.32
-0.04,0.82,0.32
-0.01,0.82,0.32
0.02,0.83,0.31
0.05,0.85,0.31
0.09,0.87,0.29
0.12,0.88,0.28
0.14,0.85,0.29
0.21,0.83,0.3
0.24,0.82,0.32
0.25,0.82,0.34
0.26,0.83,0.35
0.29,0.83,0.35
0.32,0.81,0.36
0.34,0.78,0.37
0.36,0.77,0.39
0.38,0.77,0.4
0.4,0.76,0.41
0.41,0.74,0.43
0.4,0.75,0.46
0.41,0.8,0.47
0.44,0.85,0.46
0.47,0.86,0.43
0.49,0.82,0.43
0.49,0.77,0.44
0.48,0.73,0.46
0.46,0.7,0.47
0.45,0.72,0.47
0.45,0.76,0.44
0.44,0.79,0.43
0.45,0.76,0.44
0.47,0.7,0.46
0.44,0.65,0.44
0.37,0.62,0.41
0.29,0.63,0.39
0.27,0.65,0.35
0.26,0.64,0.32
0.29,0.62,0.31
0.3,0.65,0.31
0.31,0.67,0.3
0.32,0.71,0.27
0.34,0.74,0.25
0.35,0.7,0.26
0.38,0.63,0.31
0.41,0.58,0.35
0.42,0.55,0.33
0.37,0.57,0.31
0.34,0.6,0.29
0.35,0.59,0.26
0.36,0.52,0.29
0.39,0.43,0.34
0.42,0.38,0.35
0.43,0.36,0.32
0.42,0.36,0.29
0.43,0.36,0.25
0.43,0.34,0.22
0.42,0.33,0.22
0.45,0.31,0.2
0.47,0.27,0.19
0.47,0.15,0.19
0.44,0.1,0.18
0.43,0.05,0.18
0.42,0.05,0.18
0.45,0.09,0.16
0.49,0.1,0.14
0.51,0.08,0.17
0.53,0.03,0.18
0.53,-0.04,0.17
0.52,-0.12,0.18
0.52,-0.19,0.22
0.53,-0.25,0.26
0.55,-0.31,0.31
0.59,-0.35,0.37
0.65,-0.4,0.35
0.7,-0.43,0.29
0.65,-0.47,0.23
0.67,-0.54,0.25
0.75,-0.67,0.42
0.85,-0.77,0.59
0.97,-0.76,0.66
1.03,-0.76,0.72
1.07,-0.75,0.78
1,-0.71,0.77
0.85,-0.72,0.71
0.74,-0.81,0.69
0.7,-0.94,1.19
0.77,-1.07,1.2
0.81,-1.03,1.17
0.76,-0.94,1.15
0.69,-0.87,1.07
0.6,-0.83,0.95
0.56,-0.89,0.98
0.71,-1.05,1.19
0.93,-1.12,1.29
1.05,-1.07,1.32
1.05,-1.01,1.33
0.93,-0.93,1.32
0.78,-0.83,1.35
0.65,-0.83,1.39
0.59,-0.92,1.56
0.63,-1.01,1.77
0.72,-1.02,1.89
0.75,-0.98,1.99
0.73,-0.89,2.08
0.69,-0.81,2.12
0.64,-0.75,2.14
0.65,-0.74,2.15
0.74,-0.76,2.16
0.83,-0.8,2.13
0.89,-0.82,2.06
0.89,-0.84,1.97
0.87,-0.86,1.71
0.86,-0.91,1.56
0.87,-0.95,1.44
0.86,-0.99,1.33
0.86,-1.03,1.22
0.89,-1.05,1.14
0.92,-1.06,1.04
0.92,-1.04,0.94
0.91,-1,0.84
0.91,-0.98,0.78
0.91,-0.98,0.75
0.89,-0.97,0.71
0.85,-0.95,0.66
0.84,-0.9,0.63
0.83,-0.85,0.62
0.82,-0.81,0.6
0.81,-0.77,0.58
0.79,-0.75,0.58
0.81,-0.75,0.59
0.81,-0.74,0.58
0.81,-0.71,0.59
0.82,-0.67,0.61
0.82,-0.63,0.6
0.82,-0.61,0.59
0.8,-0.59,0.56
0.79,-0.55,0.55
0.77,-0.52,0.56
0.72,-0.45,0.58
0.7,-0.42,0.61
0.69,-0.38,0.64
0.7,-0.32,0.63
0.71,-0.28,0.64
0.73,-0.26,0.64
0.73,-0.23,0.61
0.72,-0.2,0.62
0.69,-0.15,0.66
0.62,-0.11,0.69
0.56,-0.08,0.69
0.52,-0.06,0.71
0.46,-0.03,0.72
0.42,0.02,0.68
0.43,0.05,0.64
0.45,0.07,0.63
0.47,0.08,0.58
0.46,0.12,0.52
0.43,0.11,0.53
0.42,0.14,0.52
0.44,0.2,0.46
0.43,0.27,0.44
0.39,0.33,0.45
0.36,0.33,0.44
0.38,0.42,0.4
0.41,0.49,0.36
0.56,0.58,0.31
0.58,0.53,0.32
0.64,0.52,0.36
0.69,0.62,0.4
0.7,0.67,0.43
0.73,0.63,0.44
0.68,0.56,0.47
0.61,0.51,0.53
0.6,0.54,0.51
0.58,0.54,0.44
0.54,0.49,0.4
0.46,0.47,0.42
0.42,0.46,0.45
0.43,0.48,0.45
0.43,0.52,0.43
0.43,0.52,0.39
0.43,0.51,0.35
0.41,0.51,0.33
0.34,0.53,0.33
0.25,0.58,0.32
0.17,0.68,0.26
0.11,0.77,0.19
0.01,0.76,0.18
-0.05,0.74,0.26
-0.02,0.72,0.36
0.07,0.67,0.31
0.11,0.66,0.31
0.11,0.67,0.32
0.1,0.67,0.32
0.06,0.67,0.34
0.04,0.67,0.39
0.06,0.65,0.44
0.05,0.62,0.43
0.04,0.61,0.41
0,0.59,0.45
-0.06,0.56,0.47
-0.1,0.55,0.5
-0.12,0.58,0.49
-0.15,0.61,0.48
-0.17,0.64,0.47
-0.18,0.63,0.46
-0.26,0.58,0.46
-0.36,0.57,0.46
-0.44,0.56,0.42
-0.57,0.53,0.35
-0.68,0.54,0.31
-0.76,0.62,0.27
-0.8,0.73,0.27
-0.78,0.82,0.35
-0.77,0.88,0.41
-0.83,0.89,0.42
-0.94,0.86,0.47
-1.04,0.68,0.53
-1.07,0.61,0.58
-1.1,0.6,0.61
-1.11,0.64,0.63
-1.1,0.68,0.65
-1.08,0.7,0.66
-1.06,0.7,0.65
-1.02,0.67,0.66
-1,0.64,0.66
-0.98,0.61,0.66
-0.95,0.57,0.64
-0.92,0.53,0.62
-0.87,0.49,0.59
-0.8,0.51,0.55
-0.73,0.58,0.51
-0.67,0.64,0.45
-0.6,0.64,0.39
-0.56,0.6,0.35
-0.52,0.55,0.33
-0.47,0.48,0.31
-0.42,0.43,0.29
-0.37,0.38,0.28
-0.33,0.37,0.27
-0.32,0.38,0.25
-0.32,0.4,0.22
-0.31,0.4,0.18
-0.21,0.27,0.06
-0.14,0.22,0.01
-0.06,0.18,-0.01
0.05,0.15,-0.01
0.14,0.14,-0.01
0.18,0.16,-0.02
0.2,0.19,-0.04
0.21,0.23,-0.05
0.21,0.27,-0.08
0.2,0.28,-0.11
0.17,0.29,-0.12
0.17,0.28,-0.14
0.2,0.21,-0.15
0.3,0.11,-0.12
0.5,0.02,-0.09
0.71,-0.04,-0.09
0.82,-0.06,-0.11
0.82,-0.11,-0.11
0.78,-0.18,-0.06
0.76,-0.26,0.01
0.74,-0.34,0.08
0.73,-0.4,0.13
0.78,-0.42,0.17
0.95,-0.45,0.22
1.14,-0.49,0.24
1.31,-0.51,0.24
1.44,-0.57,0.29
1.37,-0.64,0.33
1.31,-0.66,0.42
1.26,-0.59,0.52
1.27,-0.54,0.5
1.54,-0.52,0.46
1.81,-0.53,0.43
1.87,-0.57,0.42
1.85,-0.57,0.42
1.77,-0.55,0.43
1.66,-0.53,0.44
1.55,-0.55,0.44
1.48,-0.6,0.42
1.43,-0.6,0.41
1.39,-0.57,0.4
1.39,-0.54,0.43
1.48,-0.49,0.44
1.56,-0.41,0.37
1.54,-0.35,0.33
1.51,-0.38,0.3
1.47,-0.5,0.32
1.38,-0.64,0.38
1.27,-0.71,0.42
1.16,-0.72,0.42
1.1,-0.69,0.42
1.09,-0.67,0.45
1.03,-0.62,0.44
1,-0.65,0.4
0.96,-0.79,0.35
0.87,-0.98,0.34
0.77,-1.05,0.37
0.72,-1.03,0.41
0.71,-0.99,0.43
0.75,-0.92,0.45
0.77,-0.64,0.52
0.82,-0.7,0.48
0.92,-0.97,0.49
0.89,-1,0.55
0.8,-1.06,0.53
0.74,-1.04,0.56
0.66,-1.01,0.58
0.64,-1,0.63
0.7,-0.99,0.67
0.77,-0.96,0.69
0.81,-0.92,0.73
0.82,-0.9,0.76
0.8,-0.89,0.76
0.77,-0.88,0.77
0.76,-0.88,0.76
0.75,-0.88,0.76
0.74,-0.89,0.77
0.74,-0.9,0.8
0.75,-0.91,0.79
0.75,-0.9,0.76
0.75,-0.89,0.73
0.75,-0.88,0.7
0.74,-0.88,0.67
0.74,-0.88,0.65
0.73,-0.89,0.63
0.72,-0.89,0.6
0.7,-0.9,0.57
0.67,-0.9,0.56
0.66,-0.9,0.55
0.66,-0.91,0.51
0.67,-0.9,0.48
0.65,-0.89,0.46
0.63,-0.88,0.41
0.66,-0.88,0.38
0.66,-0.88,0.37
0.65,-0.88,0.36
0.64,-0.86,0.35
0.63,-0.85,0.32
0.62,-0.83,0.3
0.61,-0.82,0.29
0.62,-0.81,0.29
0.62,-0.81,0.28
0.63,-0.81,0.27
0.63,-0.81,0.27
0.62,-0.81,0.27
0.63,-0.8,0.28
0.61,-0.77,0.27
0.62,-0.78,0.26
0.67,-0.79,0.27
0.71,-0.79,0.27
0.71,-0.81,0.27
0.7,-0.8,0.27
0.72,-0.78,0.29
0.69,-0.77,0.32
0.66,-0.78,0.36
0.66,-0.82,0.4
0.67,-0.88,0.46
0.69,-0.92,0.51
0.69,-0.91,0.54
0.69,-0.83,0.57
0.72,-0.73,0.58
0.77,-0.66,0.58
0.85,-0.64,0.61
0.92,-0.63,0.62
0.94,-0.61,0.61
0.95,-0.61,0.61
0.95,-0.61,0.6
0.95,-0.62,0.61
0.97,-0.61,0.58
1,-0.61,0.55
1.02,-0.61,0.45
1.06,-0.62,0.39
1.08,-0.63,0.35
1.1,-0.63,0.34
1.12,-0.64,0.32
1.12,-0.64,0.27
1.12,-0.63,0.23
1.14,-0.59,0.19
1.14,-0.54,0.14
1.16,-0.51,0.12
1.18,-0.51,0.08
1.16,-0.5,0.01
1.13,-0.46,-0.03
1.14,-0.44,-0.03
1.16,-0.43,-0.03
1.17,-0.4,-0.04
1.18,-0.38,-0.05
1.18,-0.39,-0.08
1.16,-0.4,-0.08
1.13,-0.39,-0.08
1.09,-0.36,-0.08
1.07,-0.34,-0.07
1.08,-0.35,0
1.11,-0.38,0.09
1.09,-0.4,0.16
1.07,-0.38,0.19
1.04,-0.33,0.2
0.98,-0.23,0.23
0.98,-0.21,0.27
0.99,-0.21,0.3
1.01,-0.2,0.32
1.02,-0.18,0.34
1,-0.15,0.34
0.98,-0.13,0.34
0.94,-0.12,0.35
0.88,-0.11,0.38
0.85,-0.09,0.41
0.83,-0.07,0.43
0.78,-0.04,0.44
0.75,-0.01,0.45
0.73,0.02,0.45
0.73,0.05,0.44
0.75,0.08,0.43
0.78,0.12,0.4
0.84,0.19,0.41
0.87,0.23,0.44
0.85,0.25,0.43
0.82,0.28,0.43
0.76,0.31,0.39
0.7,0.32,0.35
0.66,0.35,0.37
0.64,0.36,0.39
0.66,0.38,0.42
0.83,0.43,0.4
0.84,0.43,0.38
0.79,0.41,0.35
0.71,0.37,0.34
0.61,0.39,0.37
0.52,0.44,0.37
0.47,0.48,0.34
0.42,0.46,0.34
0.39,0.49,0.38
0.41,0.57,0.4
0.5,0.61,0.36
0.56,0.59,0.35
0.55,0.59,0.38
0.53,0.61,0.39
0.49,0.64,0.39
0.47,0.66,0.38
0.41,0.66,0.41
0.35,0.68,0.46
0.32,0.69,0.49
0.32,0.68,0.49
0.37,0.69,0.48
0.4,0.63,0.5
0.4,0.6,0.5
0.42,0.68,0.49
0.4,0.71,0.47
0.33,0.74,0.47
0.25,0.9,0.48
0.22,0.87,0.49
0.26,0.87,0.49
0.31,0.85,0.48
0.28,0.76,0.48
0.24,0.72,0.49
0.23,0.73,0.48
0.21,0.75,0.45
0.18,0.74,0.41
0.13,0.72,0.38
0.09,0.68,0.4
0.1,0.65,0.43
0.12,0.64,0.44
0.08,0.67,0.41
0,0.73,0.34
-0.05,0.79,0.26
-0.07,0.87,0.25
-0.06,0.91,0.3
-0.02,0.9,0.36
0.05,0.88,0.39
0.11,0.85,0.38
0.09,0.82,0.32
0.01,0.8,0.29
-0.09,0.79,0.29
-0.15,0.77,0.32
-0.15,0.81,0.36
-0.14,0.82,0.41
-0.19,0.76,0.4
-0.25,0.73,0.37
-0.27,0.72,0.33
-0.29,0.7,0.32
-0.3,0.66,0.32
-0.28,0.63,0.3
-0.33,0.6,0.24
-0.38,0.55,0.16
-0.38,0.5,0.08
-0.39,0.48,0.06
-0.4,0.52,0.04
-0.51,0.38,0.02
-0.64,0.32,0.04
-0.54,0.48,0.05
-0.41,0.56,0.05
-0.31,0.4,0.04
-0.37,0.3,0.05
-0.43,0.43,0.09
-0.34,0.38,0.13
-0.38,0.28,0.21
-0.5,0.23,0.28
-0.59,0.22,0.32
-0.66,0.26,0.35
-0.69,0.25,0.36
-0.71,0.23,0.39
-0.73,0.29,0.47
-0.78,0.3,0.52
-0.78,0.29,0.57
-0.79,0.26,0.63
-0.82,0.21,0.69
-0.87,0.17,0.74
-0.91,0.13,0.76
-0.98,0.14,0.75
-1.09,0.21,0.74
-1.18,0.28,0.76
-1.21,0.28,0.77
-1.15,0.24,0.75
-1.03,0.19,0.72
-0.92,0.15,0.71
-0.84,0.12,0.72
-0.75,0.1,0.72
-0.67,0.08,0.7
-0.61,0.07,0.69
-0.58,0.06,0.65
-0.59,0.07,0.59
-0.65,0.1,0.55
-0.69,0.11,0.53
-0.68,0.1,0.51
-0.62,0.08,0.52
-0.54,0.07,0.54
-0.45,0.06,0.53
-0.35,0.09,0.51
-0.24,0.13,0.47
-0.19,0.16,0.42
-0.13,0.16,0.36
-0.06,0.14,0.34
0.01,0.13,0.33
0.06,0.13,0.33
0.15,0.16,0.35
0.25,0.2,0.36
0.34,0.25,0.37
0.43,0.3,0.38
0.52,0.32,0.39
0.59,0.26,0.42
0.63,0.17,0.43
0.66,0.1,0.42
0.69,0.07,0.4
0.77,0.09,0.38
0.94,0.12,0.35
1.16,0.15,0.36
1.33,0.17,0.44
1.38,0.17,0.53
1.33,0.14,0.6
1.26,0.08,0.63
1.18,0.07,0.63
1.13,0.13,0.6
1.16,0.2,0.59
1.23,0.25,0.67
1.33,0.2,0.73
1.36,0.12,0.81
1.36,0.05,0.84
1.38,0.01,0.81
1.38,-0.01,0.78
1.34,-0.03,0.77
1.28,-0.04,0.79
1.23,-0.08,0.82
1.18,-0.16,0.85
1.15,-0.25,0.88
1.14,-0.36,0.93
1.16,-0.47,0.96
1.2,-0.58,0.92
1.24,-0.65,0.83
1.24,-0.7,0.72
1.22,-0.75,0.68
1.2,-0.81,0.7
1.07,-0.81,0.82
0.97,-0.74,0.97
0.95,-0.85,1.01
0.86,-0.98,1.02
0.79,-1.01,1.05
0.7,-1.06,1.08
0.6,-1.04,1.11
0.51,-1.04,1.16
0.43,-1.02,1.28
0.27,-1.16,1.33
0.29,-1.36,1.31
0.27,-1.31,1.33
0.22,-1.13,1.31
0.22,-0.97,1.24
0.23,-0.9,1.21
0.27,-0.89,1.25
0.31,-0.9,1.32
0.33,-0.93,1.36
0.34,-0.95,1.35
0.37,-0.94,1.31
0.41,-0.94,1.27
0.44,-0.97,1.27
0.45,-1.02,1.27
0.45,-1.06,1.23
0.51,-1.1,1.19
0.58,-1.11,1.1
0.62,-1.1,1
0.64,-1.06,0.94
0.59,-1.05,0.89
0.63,-1.03,0.87
0.71,-1.05,0.81
0.77,-1.04,0.73
0.8,-1.02,0.69
0.81,-1.02,0.63
0.87,-0.96,0.52
0.96,-0.91,0.53
0.96,-0.85,0.52
0.96,-0.8,0.43
0.91,-0.75,0.39
0.86,-0.7,0.41
0.81,-0.69,0.4
0.78,-0.67,0.38
0.81,-0.61,0.34
0.85,-0.58,0.3
0.89,-0.56,0.26
0.93,-0.54,0.24
0.95,-0.52,0.27
0.93,-0.49,0.25
0.91,-0.45,0.2
0.9,-0.41,0.2
0.88,-0.39,0.21
0.87,-0.39,0.22
0.89,-0.38,0.23
0.88,-0.36,0.24
0.87,-0.35,0.23
0.9,-0.32,0.18
0.95,-0.28,0.17
0.97,-0.25,0.19
0.95,-0.23,0.21
0.89,-0.2,0.22
0.81,-0.19,0.21
0.56,-0.23,0.25
0.47,-0.24,0.33
0.47,-0.21,0.39
0.49,-0.15,0.43
0.5,-0.06,0.47
0.46,0.03,0.52
0.45,0.1,0.56
0.48,0.14,0.56
0.52,0.16,0.56
0.55,0.14,0.58
0.56,0.1,0.61
0.56,0.09,0.65
0.52,0.12,0.71
0.44,0.17,0.74
0.39,0.22,0.77
0.36,0.26,0.79
0.36,0.27,0.81
0.41,0.29,0.83
0.56,0.34,0.83
0.55,0.36,0.86
0.48,0.35,0.91
0.52,0.37,0.94
0.52,0.4,0.97
0.51,0.41,0.98
0.5,0.41,0.92
0.55,0.4,0.79
0.77,0.32,0.67
0.62,0.33,0.61
0.26,0.32,0.63
0.04,0.32,0.74
-0.06,0.42,0.82
0.04,0.54,0.75
0.12,0.53,0.71
0.14,0.51,0.73
0.16,0.57,0.73
0.14,0.56,0.73
0.11,0.57,0.76
0.11,0.64,0.77
0.04,0.61,0.74
-0.09,0.58,0.71
-0.17,0.63,0.71
-0.18,0.72,0.68
-0.15,0.74,0.63
-0.13,0.74,0.63
-0.09,0.76,0.63
-0.04,0.81,0.64
0.04,0.9,0.63
0.06,0.87,0.61
-0.04,0.8,0.62
-0.11,0.81,0.62
-0.15,0.81,0.63
-0.18,0.78,0.64
-0.2,0.79,0.64
-0.13,0.75,0.61
-0.05,0.76,0.59
0.02,0.8,0.53
0.02,0.81,0.5
-0.04,0.79,0.5
-0.16,0.76,0.51
-0.28,0.76,0.53
-0.3,0.76,0.52
-0.27,0.76,0.52
-0.21,0.81,0.52
-0.16,0.86,0.47
-0.11,0.85,0.43
-0.09,0.82,0.43
-0.12,0.79,0.49
-0.23,0.74,0.57
-0.37,0.7,0.57
-0.43,0.64,0.49
-0.47,0.61,0.36
-0.5,0.58,0.27
-0.47,0.54,0.23
-0.4,0.51,0.21
-0.31,0.51,0.19
-0.25,0.48,0.14
-0.32,0.45,0.03
-0.39,0.51,-0.13
-0.48,0.51,-0.1
-0.59,0.36,0
-0.58,0.34,0.02
-0.42,0.36,-0.07
-0.42,0.29,-0.13
-0.45,0.24,-0.14
-0.5,0.26,-0.11
-0.57,0.24,-0.02
-0.72,0.15,0.02
-0.85,0.08,0.03
-0.86,0.08,0.02
-0.84,0.13,-0.04
-0.83,0.11,-0.07
-0.85,0.1,-0.07
-0.85,0.12,-0.07
-0.87,0.12,-0.04
-0.88,0.1,0.03
-0.88,0.06,0.07
-0.89,0.04,0.12
-0.93,0.03,0.17
-0.98,0.02,0.2
-1.03,0.02,0.23
-1.06,0.02,0.27
-1.1,0,0.3
-1.15,0,0.3
-1.2,0.03,0.3
-1.25,0.08,0.34
-1.25,0.08,0.36
-1.24,0.08,0.37
-1.2,0.09,0.37
-1.14,0.09,0.36
-1.05,0.08,0.36
-0.94,0.09,0.36
-0.83,0.1,0.36
-0.71,0.11,0.37
-0.61,0.12,0.36
-0.56,0.12,0.34
-0.51,0.12,0.33
-0.47,0.14,0.32
-0.44,0.14,0.35
-0.41,0.15,0.38
-0.37,0.15,0.42
-0.34,0.14,0.45
-0.3,0.13,0.47
-0.26,0.13,0.46
-0.22,0.14,0.45
-0.14,0.19,0.46
-0.02,0.24,0.52
0.09,0.24,0.6
0.16,0.19,0.64
0.18,0.15,0.66
0.17,0.11,0.66
0.18,0.08,0.58
0.26,0.14,0.61
0.38,0.18,0.61
0.66,0.18,0.58
0.95,0.18,0.55
1.1,0.17,0.55
1.07,0.14,0.61
0.98,0.09,0.66
0.91,0.06,0.65
0.85,0.05,0.62
0.84,0.07,0.59
0.91,0.09,0.6
0.93,0.01,0.63
1,-0.09,0.61
1.26,-0.17,0.63
1.46,-0.23,0.72
1.49,-0.22,0.75
1.47,-0.21,0.77
1.41,-0.18,0.81
1.31,-0.16,0.85
1.25,-0.18,0.87
1.23,-0.24,0.89
1.26,-0.28,0.9
1.3,-0.28,0.91
1.33,-0.31,0.94
1.35,-0.34,0.98
1.38,-0.43,0.99
1.49,-0.49,1.01
1.52,-0.54,1.01
1.53,-0.58,1.01
1.53,-0.6,1.03
1.53,-0.55,1
1.52,-0.48,0.92
1.48,-0.46,0.87
1.4,-0.44,0.86
1.36,-0.42,0.86
1.32,-0.42,0.87
1.28,-0.42,0.86
1.22,-0.42,0.83
1.14,-0.42,0.76
1.07,-0.43,0.66
1.03,-0.44,0.59
0.98,-0.47,0.58
0.94,-0.53,0.65
0.91,-0.52,0.69
0.9,-0.46,0.67
0.9,-0.45,0.59
0.88,-0.48,0.51
0.82,-0.52,0.46
0.78,-0.52,0.44
0.74,-0.51,0.44
0.71,-0.57,0.42
0.71,-0.61,0.46
0.65,-0.64,0.53
0.67,-0.7,0.57
0.73,-0.7,0.53
0.71,-0.73,0.45
0.67,-0.77,0.4
0.67,-0.79,0.37
0.69,-0.73,0.4
0.67,-0.44,0.57
0.65,-0.55,0.59
0.73,-0.96,0.53
0.74,-0.99,0.6
0.65,-0.91,0.62
0.63,-0.84,0.64
0.66,-0.77,0.62
0.6,-0.58,0.75
0.59,-0.4,0.82
0.81,-0.65,0.66
0.77,-1.06,0.48
0.61,-0.98,0.5
0.68,-0.65,0.67
0.25,-0.71,0.41
-0.07,-0.79,0.42
0.4,-0.57,0.64
0.67,-0.58,0.55
0.58,-0.71,0.54
0.5,-0.71,0.62
0.58,-0.69,0.6
0.63,-0.67,0.57
0.63,-0.65,0.51
0.63,-0.64,0.43
0.62,-0.63,0.37
0.61,-0.62,0.36
0.59,-0.6,0.39
0.55,-0.58,0.41
0.51,-0.57,0.43
0.48,-0.55,0.45
0.48,-0.54,0.46
0.51,-0.54,0.47
0.56,-0.55,0.48
0.61,-0.54,0.5
0.61,-0.52,0.5
0.57,-0.49,0.5
0.52,-0.48,0.52
0.47,-0.47,0.53
0.43,-0.47,0.55
0.44,-0.48,0.58
0.46,-0.49,0.65
0.49,-0.48,0.72
0.54,-0.48,0.75
0.59,-0.48,0.76
0.63,-0.47,0.75
0.65,-0.46,0.72
0.67,-0.44,0.69
0.7,-0.44,0.69
0.73,-0.43,0.7
0.76,-0.43,0.7
0.76,-0.44,0.71
0.75,-0.47,0.72
0.74,-0.49,0.71
0.72,-0.49,0.71
0.69,-0.5,0.69
0.68,-0.51,0.67
0.67,-0.51,0.65
0.66,-0.51,0.64
0.64,-0.52,0.62
0.63,-0.52,0.6
0.63,-0.53,0.58
0.63,-0.54,0.55
0.63,-0.55,0.53
0.63,-0.55,0.53
0.63,-0.56,0.54
0.62,-0.58,0.57
0.64,-0.61,0.6
0.62,-0.63,0.62
0.6,-0.63,0.63
0.61,-0.63,0.63
0.59,-0.62,0.63
0.58,-0.61,0.58
0.58,-0.6,0.56
0.59,-0.6,0.54
0.61,-0.61,0.52
0.62,-0.6,0.51
0.62,-0.59,0.51
0.63,-0.6,0.5
0.63,-0.6,0.5
0.63,-0.61,0.5
0.62,-0.61,0.5
0.62,-0.61,0.51
0.62,-0.63,0.51
0.62,-0.63,0.51
0.62,-0.64,0.51
0.63,-0.63,0.51
0.63,-0.63,0.5
0.64,-0.64,0.49
0.63,-0.63,0.47
0.63,-0.64,0.46
0.64,-0.65,0.46
0.64,-0.66,0.47
0.64,-0.67,0.48
0.64,-0.67,0.48
0.63,-0.67,0.49
0.63,-0.67,0.49
0.62,-0.67,0.49
0.62,-0.67,0.5
0.61,-0.66,0.5
0.6,-0.65,0.49
0.61,-0.65,0.5
0.61,-0.65,0.49
0.62,-0.65,0.5
0.62,-0.65,0.5
0.62,-0.64,0.51
0.62,-0.63,0.51
0.62,-0.63,0.52
0.61,-0.63,0.52
0.61,-0.63,0.52
0.61,-0.62,0.52
0.62,-0.62,0.51
0.62,-0.62,0.51
0.63,-0.62,0.52
0.63,-0.62,0.52
0.63,-0.62,0.52
0.63,-0.62,0.52
0.63,-0.61,0.51
0.63,-0.62,0.51
0.63,-0.62,0.51
0.63,-0.62,0.51
0.63,-0.62,0.5
0.64,-0.62,0.5
0.64,-0.61,0.5
0.64,-0.61,0.52
0.64,-0.61,0.52
0.64,-0.61,0.52
0.63,-0.61,0.53
0.63,-0.61,0.53
0.63,-0.6,0.53
0.64,-0.6,0.52
0.64,-0.6,0.51
0.65,-0.6,0.51
0.66,-0.59,0.5
0.67,-0.59,0.51
0.67,-0.59,0.51
0.67,-0.59,0.51
0.66,-0.59,0.52
0.66,-0.59,0.52
0.65,-0.59,0.53
0.65,-0.59,0.53
0.64,-0.59,0.53
0.64,-0.59,0.53
0.64,-0.59,0.53
0.65,-0.59,0.53
0.65,-0.59,0.52
0.66,-0.59,0.51
0.66,-0.59,0.51
0.66,-0.59,0.51
0.66,-0.59,0.51
0.66,-0.59,0.51
0.65,-0.59,0.52
0.65,-0.59,0.52
0.65,-0.59,0.52
0.65,-0.59,0.52
0.65,-0.59,0.51
0.66,-0.59,0.51
0.66,-0.59,0.51
0.66,-0.59,0.51
0.66,-0.59,0.51
0.66,-0.59,0.52
0.65,-0.59,0.52
0.66,-0.59,0.52
0.65,-0.59,0.52
0.65,-0.59,0.52
0.65,-0.58,0.53
0.65,-0.58,0.53
0.65,-0.58,0.52
0.66,-0.58,0.51
0.67,-0.58,0.5
0.67,-0.59,0.5
0.67,-0.59,0.5
0.68,-0.59,0.5
0.68,-0.59,0.5
0.67,-0.58,0.5
0.67,-0.58,0.5
0.67,-0.58,0.5
0.66,-0.58,0.51
0.67,-0.57,0.51
0.66,-0.57,0.52
0.67,-0.57,0.52
0.67,-0.57,0.52
0.67,-0.57,0.52
0.66,-0.57,0.52
0.66,-0.58,0.52
0.66,-0.58,0.51
0.66,-0.58,0.52
0.66,-0.58,0.52
0.66,-0.58,0.52
0.66,-0.58,0.52
0.66,-0.59,0.51
0.66,-0.59,0.51
0.66,-0.59,0.51
0.66,-0.58,0.51
0.66,-0.58,0.51
0.66,-0.58,0.51
0.66,-0.58,0.51
0.66,-0.58,0.51
0.66,-0.58,0.51
0.66,-0.58,0.52
0.66,-0.58,0.51
0.67,-0.58,0.51
0.66,-0.58,0.52
0.66,-0.58,0.52
0.66,-0.58,0.51
0.66,-0.58,0.51
0.66,-0.58,0.51
0.66,-0.59,0.51
0.66,-0.59,0.52
0.66,-0.59,0.52
0.66,-0.58,0.52
0.65,-0.58,0.52
0.66,-0.58,0.52
0.66,-0.58,0.52
0.66,-0.58,0.52
0.66,-0.58,0.51
0.66,-0.58,0.51
0.66,-0.58,0.51
0.66,-0.58,0.51
0.66,-0.58,0.51
0.66,-0.58,0.51
0.66,-0.58,0.51
0.66,-0.58,0.51
0.66,-0.58,0.51
0.67,-0.58,0.51
0.66,-0.58,0.52
0.66,-0.58,0.51
0.66,-0.58,0.51
0.66,-0.58,0.51
0.66,-0.58,0.52
0.66,-0.58,0.52
0.66,-0.58,0.52
0.66,-0.57,0.52
0.66,-0.57,0.52
0.67,-0.57,0.52
0.67,-0.58,0.52
0.66,-0.58,0.52
0.66,-0.58,0.52
0.66,-0.58,0.52
0.66,-0.58,0.52
0.66,-0.58,0.52
0.66,-0.58,0.52
0.66,-0.58,0.51
0.66,-0.58,0.51
0.66,-0.58,0.51
0.66,-0.58,0.51
0.66,-0.58,0.51
0.66,-0.58,0.52
0.66,-0.58,0.52
0.66,-0.58,0.52
0.66,-0.58,0.52
0.66,-0.58,0.51
0.66,-0.58,0.51
0.66,-0.58,0.51
0.66,-0.58,0.51
0.67,-0.58,0.51
0.67,-0.58,0.51
0.67,-0.58,0.52
0.67,-0.58,0.52
0.67,-0.58,0.52
0.67,-0.58,0.51
0.67,-0.57,0.51
0.66,-0.58,0.51
0.66,-0.58,0.52
0.66,-0.58,0.52
0.66,-0.57,0.52
0.66,-0.58,0.52
