Acc_x,Acc_y,Acc_z
0.44,0.63,0.52
0.31,0.66,0.56
0.3,0.78,0.6
0.27,0.82,0.63
0.27,0.85,0.54
0.24,0.85,0.44
0.2,0.75,0.4
0.17,0.74,0.35
0.09,0.68,0.35
0.1,0.66,0.39
0.16,0.69,0.43
0.21,0.67,0.45
0.27,0.68,0.47
0.2,0.67,0.49
0.16,0.65,0.5
0.11,0.64,0.48
0.05,0.65,0.43
0,0.66,0.39
-0.03,0.71,0.41
-0.03,0.77,0.44
0.03,0.86,0.44
0.09,0.92,0.41
0.07,0.84,0.38
-0.05,0.67,0.33
-0.15,0.65,0.24
-0.15,0.69,0.14
-0.13,0.58,0.03
-0.03,0.47,0.08
-0.06,0.29,0.17
-0.23,0.12,0.29
-0.27,0.13,0.38
-0.22,0.11,0.4
-0.23,0.05,0.43
-0.3,0.02,0.39
-0.33,0.05,0.39
-0.35,0.05,0.47
-0.31,0.1,0.51
-0.28,0.17,0.57
-0.32,0.2,0.79
-0.48,0.12,0.86
-0.59,0.05,0.94
-0.65,0.18,0.99
-0.69,0.27,0.99
-0.79,0.29,1
-0.87,0.34,1
-0.93,0.37,0.97
-0.96,0.4,0.95
-0.95,0.4,0.96
-0.94,0.41,1.01
-0.93,0.41,1.05
-0.94,0.4,1.07
-0.95,0.4,1.08
-0.96,0.37,1.07
-0.94,0.34,1.05
-0.93,0.33,1.03
-0.9,0.32,1.03
-0.86,0.3,1.03
-0.83,0.28,1.02
-0.8,0.26,0.98
-0.78,0.22,0.93
-0.75,0.2,0.88
-0.71,0.17,0.83
-0.66,0.16,0.79
-0.6,0.17,0.75
-0.51,0.19,0.68
-0.34,0.19,0.65
-0.27,0.16,0.61
-0.21,0.12,0.57
-0.18,0.1,0.53
-0.16,0.11,0.49
-0.12,0.13,0.46
-0.07,0.13,0.43
-0.04,0.12,0.38
0,0.08,0.33
0.04,0.04,0.28
0.09,0.02,0.24
0.12,0.02,0.21
0.14,0.03,0.18
0.18,0.06,0.17
0.25,0.07,0.14
0.35,0.07,0.11
0.43,0.06,0.09
0.47,0.04,0.06
0.51,0,0.02
0.54,-0.06,0
0.57,-0.1,-0.01
0.59,-0.1,0
0.61,-0.06,0.01
0.68,-0.03,-0.02
0.8,-0.08,-0.05
0.92,-0.2,-0.05
1.07,-0.4,-0.05
1.12,-0.42,-0.04
1.17,-0.38,-0.02
1.22,-0.34,0
1.29,-0.35,0.02
1.31,-0.41,0.04
1.31,-0.52,0.03
1.35,-0.62,-0.05
1.42,-0.63,-0.11
1.53,-0.56,-0.07
1.65,-0.51,-0.03
1.68,-0.52,-0.03
1.67,-0.53,-0.04
1.65,-0.58,-0.04
1.64,-0.69,0.05
1.64,-0.77,0.13
1.67,-0.78,0.15
1.69,-0.72,0.19
1.63,-0.66,0.32
1.59,-0.64,0.46
1.63,-0.67,0.53
1.68,-0.79,0.57
1.72,-0.97,0.67
1.72,-1.07,0.76
1.67,-1.07,0.68
1.57,-1.08,0.67
1.47,-0.96,0.76
1.45,-0.88,0.78
1.43,-0.9,0.78
1.39,-0.95,0.78
1.3,-0.95,0.78
1.22,-0.91,0.78
1.2,-0.87,0.78
1.18,-0.85,0.8
1.16,-0.83,0.81
1.13,-0.83,0.79
1.08,-0.84,0.77
1.05,-0.85,0.77
1.02,-0.86,0.77
0.97,-0.88,0.79
0.94,-0.89,0.82
0.92,-0.89,0.83
0.9,-0.9,0.84
0.88,-0.88,0.84
0.87,-0.86,0.84
0.87,-0.87,0.83
0.86,-0.9,0.86
0.86,-0.91,0.89
0.86,-0.93,0.89
0.83,-0.97,0.93
0.82,-0.98,0.94
0.84,-0.98,0.89
0.9,-0.96,0.85
0.93,-0.96,0.81
0.92,-0.99,0.77
0.93,-0.99,0.76
0.94,-0.98,0.74
0.92,-1.01,0.71
0.89,-1.01,0.68
0.86,-0.99,0.66
0.84,-0.97,0.65
0.84,-0.93,0.62
0.84,-0.91,0.58
0.85,-0.9,0.53
0.85,-0.87,0.49
0.86,-0.85,0.49
0.89,-0.82,0.48
0.9,-0.78,0.47
0.88,-0.78,0.45
0.86,-0.79,0.45
0.86,-0.74,0.48
0.88,-0.66,0.49
0.88,-0.59,0.48
0.87,-0.56,0.48
0.85,-0.55,0.49
0.84,-0.57,0.49
0.82,-0.57,0.47
0.77,-0.55,0.37
0.62,-0.5,0.32
0.54,-0.46,0.26
0.48,-0.4,0.24
0.45,-0.34,0.22
0.48,-0.29,0.19
0.5,-0.26,0.16
0.51,-0.25,0.11
0.49,-0.22,0.08
0.45,-0.2,0.09
0.43,-0.18,0.09
0.45,-0.16,0.08
0.45,-0.12,0.08
0.47,-0.08,0.1
0.51,-0.05,0.13
0.56,-0.02,0.16
0.61,0.01,0.21
0.68,0.03,0.27
0.73,0.06,0.33
0.76,0.1,0.39
0.8,0.13,0.43
0.84,0.14,0.49
0.88,0.16,0.55
0.91,0.17,0.62
0.93,0.19,0.65
0.95,0.2,0.67
0.99,0.19,0.69
1.01,0.12,0.7
0.99,0.07,0.72
0.97,0.07,0.75
0.96,0.12,0.73
0.98,0.2,0.67
1.02,0.26,0.61
1.07,0.25,0.58
1.1,0.22,0.57
1.12,0.2,0.57
1.1,0.2,0.53
1.05,0.23,0.49
1.02,0.27,0.45
1,0.28,0.41
0.98,0.28,0.38
0.94,0.29,0.35
0.9,0.29,0.33
0.86,0.31,0.31
0.83,0.33,0.3
0.81,0.35,0.31
0.78,0.37,0.31
0.76,0.39,0.31
0.73,0.42,0.3
0.7,0.45,0.28
0.68,0.47,0.27
0.66,0.48,0.29
0.64,0.48,0.31
0.61,0.55,0.37
0.57,0.6,0.36
0.55,0.59,0.33
0.53,0.59,0.34
0.5,0.63,0.34
0.51,0.66,0.34
0.54,0.65,0.38
0.56,0.64,0.4
0.56,0.64,0.42
0.56,0.65,0.44
0.56,0.67,0.44
0.55,0.7,0.43
0.54,0.7,0.41
0.53,0.66,0.42
0.51,0.65,0.45
0.52,0.65,0.48
0.57,0.66,0.52
0.59,0.68,0.55
0.58,0.7,0.55
0.58,0.7,0.54
0.53,0.65,0.54
0.47,0.63,0.58
0.42,0.64,0.63
0.4,0.66,0.67
0.41,0.72,0.66
0.44,0.78,0.64
0.47,0.7,0.61
0.45,0.66,0.62
0.45,0.66,0.61
0.44,0.69,0.59
0.42,0.72,0.58
0.38,0.72,0.57
0.37,0.79,0.55
0.37,0.83,0.57
0.39,0.8,0.56
0.4,0.76,0.54
0.37,0.77,0.53
0.37,0.86,0.56
0.38,0.85,0.54
0.34,0.8,0.51
0.28,0.79,0.52
0.22,0.76,0.53
0.18,0.75,0.55
0.16,0.77,0.55
0.14,0.73,0.51
0.1,0.68,0.49
0.07,0.63,0.5
0.06,0.57,0.51
0.03,0.55,0.51
0.01,0.53,0.52
0.01,0.53,0.53
0,0.53,0.53
-0.03,0.61,0.45
-0.16,0.63,0.4
-0.23,0.65,0.36
-0.26,0.66,0.32
-0.26,0.69,0.29
-0.24,0.71,0.29
-0.25,0.71,0.28
-0.28,0.74,0.26
-0.3,0.75,0.24
-0.37,0.7,0.28
-0.4,0.69,0.33
-0.39,0.67,0.33
-0.46,0.59,0.32
-0.55,0.56,0.31
-0.6,0.53,0.31
-0.65,0.48,0.37
-0.71,0.51,0.39
-0.82,0.54,0.38
-0.91,0.54,0.4
-0.95,0.57,0.44
-0.99,0.56,0.48
-1.03,0.55,0.52
-1.06,0.54,0.54
-1.09,0.53,0.52
-1.12,0.54,0.51
-1.15,0.54,0.5
-1.17,0.54,0.49
-1.16,0.55,0.48
-1.15,0.54,0.48
-1.11,0.53,0.47
-1.07,0.52,0.47
-1.02,0.5,0.46
-0.96,0.49,0.44
-0.9,0.5,0.41
-0.83,0.5,0.37
-0.77,0.51,0.33
-0.71,0.51,0.29
-0.66,0.51,0.26
-0.58,0.48,0.23
-0.51,0.46,0.21
-0.46,0.45,0.21
-0.4,0.44,0.21
-0.34,0.43,0.2
-0.27,0.4,0.19
-0.23,0.37,0.18
-0.21,0.35,0.17
-0.19,0.32,0.15
-0.17,0.3,0.12
-0.14,0.28,0.09
-0.09,0.26,0.06
-0.05,0.24,0.04
-0.02,0.23,0.02
0,0.21,0.03
0.06,0.2,0.04
0.11,0.2,0.06
0.15,0.18,0.08
0.18,0.14,0.09
0.22,0.08,0.1
0.27,0.03,0.14
0.36,0.02,0.17
0.47,0.03,0.21
0.57,0,0.26
0.67,-0.05,0.3
0.72,-0.13,0.3
0.75,-0.2,0.32
0.79,-0.24,0.36
0.86,-0.26,0.39
0.91,-0.3,0.45
0.95,-0.36,0.5
0.99,-0.42,0.54
1.01,-0.48,0.59
1.01,-0.53,0.64
1,-0.55,0.66
1,-0.56,0.67
1.04,-0.49,0.7
1.13,-0.37,0.77
1.25,-0.32,0.82
1.36,-0.32,0.85
1.36,-0.36,0.93
1.24,-0.5,0.92
1.16,-0.56,0.91
1.09,-0.6,0.92
1.05,-0.6,0.98
1.1,-0.52,1.01
1.17,-0.42,0.98
1.19,-0.43,0.94
1.16,-0.51,0.92
1.09,-0.58,0.89
1.01,-0.64,0.81
0.95,-0.67,0.75
0.99,-0.67,0.81
1.11,-0.62,0.87
1.2,-0.55,0.86
1.24,-0.53,0.85
1.24,-0.58,0.86
1.22,-0.63,0.86
1.16,-0.64,0.84
1.06,-0.64,0.83
0.97,-0.63,0.83
0.95,-0.61,0.83
0.97,-0.63,0.83
0.98,-0.67,0.84
0.99,-0.73,0.84
0.97,-0.8,0.78
0.93,-0.88,0.69
0.86,-0.96,0.65
0.87,-0.94,0.69
0.92,-0.85,0.75
0.94,-0.82,0.77
0.94,-0.85,0.79
0.92,-0.85,0.86
0.92,-0.82,0.93
0.94,-0.79,0.97
0.94,-0.8,1.04
0.98,-0.81,1.16
1.06,-0.82,1.3
1.12,-0.84,1.43
1.15,-0.83,1.51
1.12,-0.78,1.51
1.06,-0.71,1.49
1.03,-0.7,1.52
1.04,-0.76,1.55
1.05,-0.85,1.55
1.07,-0.92,1.55
1.1,-0.96,1.53
1.11,-0.96,1.46
1.1,-0.96,1.37
1.09,-0.98,1.29
1.08,-1.02,1.22
1.07,-1.06,1.14
1.04,-1.08,0.97
1.01,-1.16,0.94
1.01,-1.18,0.89
0.98,-1.16,0.83
0.94,-1.13,0.77
0.91,-1.1,0.7
0.88,-1.08,0.65
0.85,-1.04,0.61
0.83,-1,0.55
0.8,-0.95,0.53
0.79,-0.89,0.53
0.78,-0.86,0.5
0.78,-0.83,0.49
0.79,-0.78,0.48
0.81,-0.73,0.44
0.8,-0.68,0.39
0.76,-0.64,0.35
0.73,-0.59,0.33
0.71,-0.56,0.33
0.71,-0.53,0.36
0.71,-0.48,0.39
0.72,-0.42,0.39
0.73,-0.36,0.38
0.75,-0.34,0.36
0.79,-0.35,0.36
0.81,-0.34,0.37
0.8,-0.28,0.42
0.73,-0.16,0.43
0.69,-0.14,0.43
0.65,-0.18,0.44
0.64,-0.16,0.45
0.64,-0.06,0.46
0.65,0.07,0.44
0.65,0.18,0.42
0.67,0.22,0.44
0.7,0.21,0.52
0.69,0.16,0.6
0.67,0.11,0.59
0.61,0.1,0.59
0.56,0.16,0.55
0.52,0.25,0.4
0.45,0.33,0.32
0.39,0.32,0.32
0.35,0.23,0.3
0.42,0.31,0.35
0.45,0.26,0.37
0.46,0.29,0.38
0.51,0.47,0.36
0.55,0.46,0.27
0.55,0.44,0.26
0.51,0.45,0.27
0.44,0.47,0.29
0.41,0.5,0.32
0.43,0.62,0.35
0.43,0.67,0.33
0.44,0.71,0.34
0.48,0.7,0.39
0.52,0.67,0.43
0.54,0.64,0.42
0.52,0.66,0.39
0.51,0.69,0.36
0.51,0.69,0.35
0.49,0.71,0.33
0.44,0.69,0.31
0.38,0.68,0.28
0.33,0.73,0.29
0.27,0.74,0.32
0.22,0.74,0.3
0.18,0.72,0.27
0.12,0.69,0.21
0.07,0.71,0.11
0.06,0.77,0
0.02,0.74,-0.07
-0.09,0.67,-0.08
-0.21,0.62,-0.04
-0.31,0.56,0.03
-0.42,0.55,0.09
-0.48,0.59,0.09
-0.45,0.61,0.05
-0.39,0.6,0.06
-0.31,0.59,0.11
-0.34,0.59,0.22
-0.37,0.58,0.31
-0.4,0.58,0.37
-0.46,0.57,0.44
-0.52,0.57,0.5
-0.58,0.6,0.53
-0.67,0.63,0.54
-0.75,0.68,0.57
-0.81,0.67,0.59
-0.84,0.65,0.61
-0.85,0.69,0.66
-0.86,0.72,0.7
-0.88,0.73,0.71
-0.9,0.73,0.7
-0.92,0.74,0.7
-0.88,0.74,0.7
-0.81,0.71,0.7
-0.74,0.67,0.67
-0.69,0.65,0.65
-0.65,0.64,0.63
-0.62,0.64,0.6
-0.58,0.64,0.58
-0.55,0.62,0.56
-0.52,0.61,0.53
-0.51,0.59,0.42
-0.47,0.55,0.39
-0.44,0.51,0.36
-0.39,0.48,0.34
-0.33,0.46,0.32
-0.26,0.45,0.29
-0.21,0.45,0.25
-0.15,0.45,0.21
-0.1,0.43,0.17
-0.06,0.41,0.15
-0.03,0.39,0.12
0.02,0.37,0.1
0.08,0.35,0.09
0.12,0.33,0.09
0.15,0.31,0.08
0.17,0.27,0.07
0.18,0.22,0.05
0.2,0.19,0.04
0.25,0.18,0.06
0.31,0.2,0.07
0.36,0.2,0.08
0.39,0.18,0.07
0.43,0.13,0.03
0.44,0.04,-0.01
0.43,-0.06,-0.02
0.45,-0.12,0.02
0.54,-0.11,0.09
0.76,-0.06,0.03
0.84,-0.07,-0.01
0.88,-0.15,-0.05
0.89,-0.25,-0.09
0.91,-0.35,-0.11
0.97,-0.41,-0.09
1.01,-0.43,-0.02
1.03,-0.42,-0.01
1.15,-0.4,-0.03
1.32,-0.44,-0.09
1.38,-0.53,-0.13
1.4,-0.6,-0.11
1.44,-0.64,-0.09
1.46,-0.69,-0.06
1.43,-0.75,-0.01
1.42,-0.8,0.02
1.47,-0.82,0.06
1.51,-0.83,0.12
1.54,-0.81,0.16
1.52,-0.79,0.15
1.47,-0.79,0.16
1.44,-0.76,0.2
1.47,-0.73,0.25
1.55,-0.78,0.29
1.6,-0.86,0.32
1.6,-0.9,0.19
1.39,-0.85,0.11
1.21,-0.84,0.04
1.16,-0.9,-0.05
1.36,-1.05,-0.01
1.66,-1.21,0.24
1.8,-1.18,0.42
1.82,-1.01,0.27
1.71,-0.87,0.06
1.4,-0.84,0.04
1.14,-0.97,0.08
1.1,-1.1,0.16
1.24,-0.9,0.22
1.4,-0.85,0.22
1.45,-1.07,0.28
1.45,-1.07,0.36
1.41,-1.01,0.43
1.3,-0.95,0.44
1.13,-0.87,0.46
0.99,-0.89,0.46
0.93,-0.97,0.41
0.89,-0.97,0.49
0.94,-0.89,0.59
1.25,-0.96,0.78
1.71,-1.01,1.14
1.28,-0.56,1.5
0.99,-0.4,0.5
1.14,-0.92,0.24
0.81,-1.18,0.13
0.4,-1.29,0.19
0.1,-1.17,0.33
-0.06,-0.93,0.44
0.02,-0.77,0.45
0.2,-0.73,0.38
0.37,-0.65,0.33
0.44,-0.61,0.25
0.41,-0.71,0.14
0.43,-0.79,0.08
0.45,-0.8,0.03
0.44,-0.78,0.02
0.43,-0.78,0.03
0.43,-0.78,0.04
0.41,-0.77,0.07
0.41,-0.76,0.11
0.4,-0.72,0.18
0.42,-0.56,0.25
0.39,-0.43,0.22
0.38,-0.71,0.2
0.54,-1.07,0.18
0.81,-1.26,0.05
1,-1.21,0.03
1.01,-0.9,0.26
0.8,-0.76,0.27
0.68,-0.86,0.26
0.68,-0.87,0.23
0.6,-0.86,0.2
0.59,-0.85,0.18
0.63,-0.86,0.17
0.59,-0.86,0.17
0.58,-0.86,0.14
0.6,-0.85,0.11
0.63,-0.85,0.1
0.66,-0.84,0.13
0.63,-0.84,0.15
0.61,-0.84,0.16
0.6,-0.84,0.16
0.54,-0.84,0.17
0.49,-0.83,0.18
0.45,-0.83,0.19
0.46,-0.83,0.21
0.51,-0.83,0.19
0.58,-0.83,0.17
0.61,-0.84,0.16
0.6,-0.85,0.16
0.59,-0.85,0.16
0.58,-0.84,0.18
0.56,-0.85,0.17
0.6,-0.85,0.19
0.6,-0.85,0.2
0.54,-0.87,0.22
0.54,-0.87,0.23
0.54,-0.86,0.23
0.51,-0.86,0.24
0.49,-0.87,0.24
0.49,-0.85,0.24
0.5,-0.84,0.23
0.48,-0.86,0.22
0.47,-0.88,0.23
0.47,-0.88,0.24
0.48,-0.87,0.25
0.47,-0.88,0.25
0.45,-0.89,0.25
0.44,-0.88,0.25
0.45,-0.88,0.26
0.45,-0.88,0.25
0.45,-0.88,0.26
0.45,-0.88,0.26
0.45,-0.89,0.27
0.44,-0.88,0.27
0.44,-0.88,0.27
0.44,-0.88,0.26
0.44,-0.89,0.26
0.45,-0.9,0.25
0.44,-0.89,0.25
0.44,-0.88,0.26
0.47,-0.88,0.25
0.47,-0.87,0.25
0.46,-0.86,0.25
0.46,-0.87,0.25
0.47,-0.87,0.24
0.48,-0.87,0.24
0.49,-0.87,0.24
0.49,-0.86,0.24
0.49,-0.86,0.24
0.49,-0.86,0.24
0.49,-0.86,0.24
0.49,-0.86,0.23
0.5,-0.86,0.23
0.5,-0.86,0.23
0.5,-0.86,0.23
0.5,-0.86,0.24
0.5,-0.87,0.23
0.51,-0.87,0.23
0.51,-0.86,0.23
0.5,-0.86,0.23
0.5,-0.86,0.23
0.5,-0.87,0.23
0.5,-0.88,0.24
0.49,-0.88,0.24
0.5,-0.87,0.25
0.49,-0.87,0.25
0.48,-0.88,0.26
0.48,-0.88,0.26
0.47,-0.88,0.27
0.47,-0.89,0.28
0.46,-0.9,0.29
0.46,-0.91,0.3
0.47,-0.92,0.33
0.46,-0.92,0.38
0.45,-0.93,0.47
0.43,-0.94,0.56
0.42,-0.94,0.63
0.4,-0.94,0.71
0.39,-0.98,0.8
0.38,-1.04,0.89
0.41,-1.06,1
0.37,-1.06,1.05
0.26,-1.01,1.11
0.22,-0.97,1.15
0.24,-1,1.09
0.35,-1,1.04
0.42,-1,1.08
0.4,-1.03,1.16
0.42,-1.1,1.17
0.45,-1.16,1.11
0.53,-1.2,1.03
0.62,-1.19,0.97
0.62,-1.25,0.83
0.66,-1.28,0.78
0.72,-1.29,0.72
0.79,-1.3,0.65
0.85,-1.26,0.57
0.91,-1.24,0.5
0.94,-1.22,0.44
0.97,-1.19,0.37
0.99,-1.14,0.32
0.99,-1.07,0.26
0.98,-1.01,0.18
1.01,-0.93,0.12
1.08,-0.9,0.06
1.1,-0.91,0.01
1.09,-0.88,-0.01
1.14,-0.81,0
1.15,-0.78,-0.01
1.12,-0.79,-0.02
1.12,-0.77,0
1.1,-0.76,-0.02
1.1,-0.73,-0.01
1.11,-0.7,0.02
1.1,-0.66,0.02
1.07,-0.61,0.03
1.04,-0.57,0.02
1.03,-0.52,0.01
1.04,-0.48,0.09
1.07,-0.45,0.13
1.05,-0.41,0.13
1.03,-0.36,0.12
1.02,-0.3,0.12
1.03,-0.25,0.14
1.05,-0.2,0.17
1.07,-0.16,0.18
1.09,-0.18,0.16
1.09,-0.22,0.12
1.08,-0.21,0.12
1.08,-0.16,0.13
1.1,-0.13,0.13
1.1,-0.14,0.14
1.06,-0.16,0.17
1.02,-0.14,0.19
1,-0.13,0.18
1.03,-0.1,0.11
1.07,-0.06,0.03
1.11,-0.05,0.02
1.14,-0.06,0.03
1.07,-0.06,0.04
0.99,0,0.02
0.95,0.08,-0.03
0.91,0.19,-0.05
0.87,0.17,-0.06
0.85,0.11,-0.02
0.71,0.31,0
0.69,0.33,-0.03
0.76,0.15,-0.05
0.74,0.2,-0.01
0.63,0.38,-0.02
0.59,0.43,-0.03
0.53,0.32,-0.01
0.43,0.29,0
0.39,0.36,0.04
0.37,0.4,0.09
0.31,0.38,0.17
0.25,0.4,0.21
0.23,0.49,0.19
0.13,0.51,0.17
0.02,0.52,0.18
-0.01,0.62,0.18
-0.06,0.66,0.19
-0.1,0.72,0.23
-0.04,0.76,0.24
-0.02,0.58,0.27
-0.07,0.53,0.34
-0.04,0.58,0.36
-0.03,0.57,0.32
-0.04,0.58,0.31
-0.06,0.62,0.34
-0.1,0.61,0.34
-0.25,0.49,0.37
-0.29,0.49,0.41
-0.33,0.47,0.45
-0.39,0.46,0.48
-0.46,0.47,0.51
-0.52,0.51,0.53
-0.6,0.55,0.54
-0.68,0.58,0.56
-0.74,0.6,0.62
-0.79,0.62,0.7
-0.84,0.63,0.77
-0.87,0.63,0.82
-0.91,0.61,0.82
-0.98,0.64,0.8
-0.98,0.63,0.81
-0.92,0.58,0.82
-0.85,0.56,0.79
-0.79,0.53,0.79
-0.74,0.48,0.78
-0.71,0.45,0.76
-0.69,0.43,0.74
-0.67,0.41,0.73
-0.67,0.41,0.71
-0.69,0.42,0.7
-0.7,0.43,0.68
-0.67,0.44,0.62
-0.61,0.44,0.58
-0.57,0.45,0.53
-0.52,0.45,0.47
-0.48,0.45,0.43
-0.44,0.44,0.39
-0.4,0.42,0.34
-0.36,0.4,0.3
-0.32,0.39,0.26
-0.29,0.37,0.23
-0.25,0.35,0.22
-0.2,0.34,0.21
-0.14,0.31,0.18
-0.09,0.27,0.15
-0.05,0.25,0.11
0,0.24,0.06
0.04,0.22,0.03
0.08,0.22,0
0.14,0.2,-0.03
0.19,0.17,-0.03
0.23,0.12,-0.04
0.26,0.06,-0.05
0.26,0.02,-0.06
0.26,0.03,-0.05
0.31,0.05,-0.03
0.43,0.06,-0.05
0.49,0.05,-0.15
0.64,-0.22,-0.23
0.75,-0.25,-0.24
0.73,-0.15,-0.22
0.8,-0.16,-0.22
0.93,-0.16,-0.13
1.09,-0.2,-0.12
1.19,-0.25,-0.18
1.18,-0.28,-0.16
1.16,-0.34,-0.17
1.18,-0.38,-0.21
1.22,-0.42,-0.25
1.27,-0.44,-0.23
1.34,-0.41,-0.18
1.43,-0.42,-0.15
1.54,-0.47,-0.12
1.63,-0.52,-0.08
1.65,-0.52,-0.07
1.61,-0.46,-0.12
1.57,-0.32,-0.17
1.56,-0.27,-0.16
1.6,-0.4,0
1.66,-0.54,0.18
1.7,-0.53,0.28
1.72,-0.51,0.25
1.66,-0.55,0.18
1.49,-0.6,0.31
1.26,-0.69,0.36
1.37,-0.66,0.43
1.5,-0.57,0.5
1.59,-0.47,0.51
1.65,-0.46,0.5
1.66,-0.53,0.55
1.63,-0.56,0.65
1.61,-0.57,0.74
1.63,-0.58,0.8
1.63,-0.56,0.84
1.71,-0.52,0.88
1.83,-0.48,0.92
1.87,-0.48,0.92
1.87,-0.53,0.92
1.85,-0.61,0.92
1.81,-0.68,0.91
1.74,-0.73,0.9
1.69,-0.76,0.91
1.66,-0.8,0.91
1.62,-0.84,0.88
1.58,-0.87,0.83
1.56,-0.91,0.84
1.55,-0.94,0.85
1.54,-0.97,0.85
1.53,-1.02,0.84
1.53,-1.09,0.85
1.56,-1.21,0.88
1.57,-1.24,0.93
1.56,-1.26,0.99
1.55,-1.27,1.01
1.52,-1.24,1.03
1.48,-1.19,1.05
1.43,-1.16,1.03
1.39,-1.12,1
1.38,-1.07,0.97
1.4,-1.05,0.92
1.4,-1.04,0.86
1.37,-0.97,0.8
1.35,-0.91,0.76
1.35,-0.89,0.71
1.36,-0.88,0.63
1.39,-0.86,0.54
1.42,-0.84,0.49
1.42,-0.84,0.47
1.38,-0.83,0.42
1.34,-0.8,0.35
1.32,-0.73,0.3
1.31,-0.65,0.24
1.27,-0.57,0.18
1.22,-0.5,0.13
1.22,-0.46,0.09
1.24,-0.41,0.06
1.28,-0.36,0
1.26,-0.37,-0.01
1.25,-0.39,-0.04
1.24,-0.43,-0.09
1.21,-0.43,-0.13
1.13,-0.42,-0.18
1.02,-0.48,-0.19
0.93,-0.54,-0.17
0.84,-0.61,-0.19
0.78,-0.68,-0.25
0.76,-0.64,-0.31
0.78,-0.56,-0.37
0.82,-0.55,-0.39
0.81,-0.58,-0.36
0.71,-0.63,-0.29
0.57,-0.65,-0.19
0.48,-0.59,-0.15
0.43,-0.46,-0.16
0.41,-0.33,-0.22
0.39,-0.28,-0.26
0.35,-0.29,-0.21
0.36,-0.26,-0.15
0.32,-0.19,-0.09
0.15,-0.12,-0.1
-0.07,-0.08,-0.11
-0.19,0.02,0
-0.33,-0.08,0.13
-0.17,0.07,0.24
-0.03,0.13,0.23
0.05,0.08,0.22
0.06,0.05,0.2
0.02,0.08,0.16
-0.03,0.19,0.17
-0.07,0.28,0.22
-0.14,0.2,0.3
-0.25,0.15,0.39
-0.31,0.18,0.4
-0.35,0.19,0.4
-0.38,0.26,0.44
-0.44,0.28,0.46
-0.61,0.21,0.5
-0.77,0.26,0.55
-0.94,0.3,0.58
-1.15,0.32,0.54
-1.27,0.37,0.51
-1.27,0.36,0.52
-1.21,0.32,0.61
-1.17,0.27,0.68
-1.11,0.23,0.71
-1.05,0.22,0.73
-1.02,0.23,0.72
-0.99,0.23,0.69
-1,0.22,0.61
-0.95,0.19,0.58
-0.87,0.15,0.57
-0.78,0.09,0.55
-0.68,0.03,0.52
-0.6,0,0.47
-0.55,-0.01,0.42
-0.53,0,0.35
-0.49,0.02,0.33
-0.47,0.03,0.34
-0.46,0.02,0.3
-0.4,-0.02,0.24
-0.35,-0.04,0.19
-0.31,-0.06,0.16
-0.29,0.02,0.23
-0.2,0.06,0.08
-0.08,-0.06,-0.03
-0.1,-0.07,0.07
-0.12,-0.01,0.11
-0.02,0.02,0.13
0.11,-0.02,0.07
0.07,-0.14,0.1
0.2,-0.07,0.18
0.53,-0.09,0.17
0.82,-0.18,0.05
1.04,-0.13,0.05
1.03,-0.13,0.14
0.98,-0.19,0.19
1,-0.24,0.19
1.03,-0.25,0.18
1.16,-0.25,0.13
1.42,-0.21,0.07
1.63,-0.17,0.09
1.77,-0.16,0.17
1.83,-0.15,0.23
1.76,-0.16,0.29
1.64,-0.2,0.41
1.56,-0.36,0.5
1.59,-0.53,0.56
1.6,-0.57,0.64
1.59,-0.52,0.68
1.64,-0.43,0.72
1.72,-0.43,0.77
1.74,-0.48,0.79
1.71,-0.56,0.78
1.68,-0.64,0.77
1.67,-0.73,0.8
1.69,-0.8,0.86
1.74,-0.8,0.85
1.77,-0.73,0.78
1.77,-0.67,0.78
1.74,-0.65,0.82
1.67,-0.59,0.85
1.62,-0.48,0.82
1.59,-0.5,0.77
1.55,-0.5,0.75
1.51,-0.48,0.71
1.47,-0.47,0.68
1.44,-0.49,0.64
1.41,-0.53,0.6
1.37,-0.55,0.61
1.39,-0.54,0.59
1.45,-0.54,0.54
1.47,-0.56,0.53
1.44,-0.59,0.54
1.39,-0.6,0.52
1.31,-0.6,0.48
1.21,-0.61,0.43
1.17,-0.61,0.38
1.17,-0.6,0.38
1.21,-0.6,0.4
1.25,-0.6,0.4
1.27,-0.54,0.4
1.25,-0.47,0.4
1.22,-0.43,0.4
1.17,-0.44,0.41
1.1,-0.48,0.37
1.04,-0.51,0.33
0.99,-0.53,0.33
0.97,-0.56,0.31
0.98,-0.53,0.3
1,-0.5,0.31
1.01,-0.51,0.29
1,-0.54,0.28
0.99,-0.57,0.3
0.98,-0.57,0.31
0.99,-0.57,0.32
1.01,-0.57,0.33
1.02,-0.58,0.36
1.06,-0.57,0.39
1.1,-0.58,0.42
1.15,-0.62,0.45
1.2,-0.64,0.51
1.24,-0.64,0.57
1.29,-0.65,0.64
1.31,-0.66,0.69
1.3,-0.66,0.7
1.3,-0.68,0.68
1.32,-0.74,0.7
1.36,-0.83,0.78
1.4,-0.92,0.86
1.42,-0.98,0.88
1.44,-1,0.87
1.48,-1,0.88
1.51,-1.03,0.75
1.52,-1.12,0.73
1.52,-1.14,0.75
1.53,-1.13,0.77
1.54,-1.08,0.76
1.54,-1,0.72
1.52,-0.92,0.68
1.49,-0.89,0.61
1.48,-0.86,0.56
1.46,-0.78,0.53
1.45,-0.73,0.49
1.47,-0.71,0.47
1.47,-0.69,0.49
1.44,-0.65,0.49
1.4,-0.6,0.47
1.41,-0.55,0.44
1.43,-0.54,0.41
1.42,-0.55,0.38
1.4,-0.57,0.38
1.36,-0.54,0.38
1.3,-0.46,0.34
1.22,-0.39,0.28
1.17,-0.34,0.25
1.16,-0.32,0.26
1.17,-0.33,0.28
1.21,-0.37,0.3
1.21,-0.39,0.28
1.16,-0.38,0.25
1.09,-0.38,0.26
1.03,-0.4,0.28
0.99,-0.44,0.31
0.94,-0.46,0.32
0.88,-0.47,0.3
0.83,-0.48,0.29
0.78,-0.47,0.32
0.77,-0.47,0.39
0.82,-0.47,0.45
0.87,-0.44,0.45
0.88,-0.37,0.38
0.81,-0.3,0.28
0.66,-0.26,0.2
0.56,-0.28,0.19
0.55,-0.29,0.26
0.54,-0.29,0.35
0.46,-0.36,0.39
0.37,-0.36,0.34
0.34,-0.17,0.28
0.3,-0.12,0.16
0.25,-0.17,0.08
0.38,0.13,0.15
0.32,0.05,0.19
0.02,-0.21,0.23
-0.02,-0.17,0.12
-0.1,0.06,0.17
-0.36,-0.07,0.09
-0.36,0.17,0.14
-0.35,0.36,0.26
-0.5,0.21,0.17
-0.55,0.16,0.23
-0.54,0.01,0.22
-0.48,0.19,0.22
-0.4,0.42,0.26
-0.34,0.39,0.26
-0.36,0.37,0.33
-0.36,0.49,0.38
-0.43,0.44,0.35
-0.53,0.43,0.46
-0.57,0.56,0.55
-0.63,0.55,0.58
-0.64,0.54,0.65
-0.7,0.5,0.67
-0.79,0.48,0.69
-0.88,0.48,0.73
-0.95,0.47,0.77
-1.01,0.45,0.77
-1.1,0.46,0.79
-1.15,0.47,0.82
-1.15,0.44,0.8
-1.13,0.42,0.73
-1.06,0.39,0.69
-0.99,0.36,0.64
-0.92,0.36,0.6
-0.86,0.33,0.55
-0.81,0.29,0.49
-0.73,0.27,0.45
-0.67,0.26,0.4
-0.62,0.24,0.35
-0.58,0.22,0.31
-0.53,0.18,0.27
-0.45,0.12,0.25
-0.36,0.07,0.21
-0.29,0.02,0.17
-0.25,-0.03,0.15
-0.23,-0.07,0.12
-0.2,-0.1,0.08
-0.15,-0.13,0.02
-0.11,-0.15,-0.02
-0.08,-0.15,-0.02
-0.07,-0.17,-0.04
-0.02,-0.23,-0.08
0.16,-0.31,-0.04
0.29,-0.33,-0.02
0.25,-0.35,-0.08
0.2,-0.37,-0.06
0.2,-0.37,-0.02
0.29,-0.41,-0.08
0.38,-0.5,-0.01
0.28,-0.56,-0.01
0.4,-0.53,-0.16
0.68,-0.52,-0.21
0.81,-0.6,-0.16
0.88,-0.6,-0.2
0.94,-0.61,-0.17
0.99,-0.63,-0.11
1.1,-0.55,-0.13
1.2,-0.56,-0.2
1.2,-0.63,-0.22
1.2,-0.7,-0.22
1.29,-0.82,-0.22
1.48,-0.82,-0.23
1.59,-0.68,-0.23
1.61,-0.58,-0.22
1.66,-0.52,-0.21
1.74,-0.47,-0.21
1.78,-0.52,-0.22
1.79,-0.59,-0.17
1.87,-0.6,-0.14
2,-0.57,-0.13
2.11,-0.54,-0.13
2.14,-0.52,-0.15
2.04,-0.54,-0.18
1.94,-0.54,-0.17
1.99,-0.54,-0.16
2.05,-0.58,-0.16
2.04,-0.62,-0.16
1.97,-0.64,-0.18
1.84,-0.67,-0.2
1.74,-0.71,-0.24
1.74,-0.8,-0.25
1.72,-0.97,-0.22
1.73,-1.14,-0.24
1.81,-1.36,-0.29
1.78,-1.6,-0.3
1.71,-1.72,-0.28
1.67,-1.56,-0.31
1.5,-1.24,-0.3
1.4,-0.97,-0.24
1.39,-0.52,-0.28
1.5,-0.5,-0.39
1.6,-0.6,-0.29
1.6,-0.31,-0.13
1.6,-0.15,-0.15
1.48,-0.15,-0.14
1.41,-0.28,-0.07
1.36,-0.4,-0.01
1.25,-0.44,0.01
1.15,-0.47,-0.01
1.05,-0.49,-0.08
0.96,-0.56,-0.1
0.95,-0.63,-0.11
0.96,-0.7,-0.1
0.95,-0.78,-0.06
0.94,-0.81,-0.06
0.92,-0.86,-0.09
0.87,-0.97,-0.12
0.81,-0.99,-0.18
0.73,-0.95,-0.2
0.7,-0.95,-0.19
0.74,-0.9,-0.2
0.79,-0.9,-0.23
0.83,-0.87,-0.19
0.84,-0.49,0.05
0.73,-0.21,0.26
0.76,-0.41,0.31
1.23,-0.81,0.3
1.58,-1,0.19
1.43,-0.89,0.03
1.03,-0.7,0.09
0.66,-0.69,0.22
0.62,-0.71,0.13
0.57,-0.75,0.25
0.33,-0.87,0.36
0.37,-0.89,0.28
0.43,-0.91,0.31
0.45,-0.89,0.27
0.49,-0.87,0.22
0.51,-0.86,0.21
0.52,-0.87,0.19
0.52,-0.88,0.15
0.5,-0.88,0.17
0.48,-0.87,0.19
0.47,-0.86,0.19
0.46,-0.86,0.21
0.44,-0.86,0.21
0.44,-0.87,0.21
0.44,-0.86,0.23
0.46,-0.85,0.25
0.48,-0.85,0.26
0.5,-0.84,0.26
0.49,-0.83,0.25
0.5,-0.83,0.26
0.53,-0.83,0.28
0.53,-0.83,0.3
0.52,-0.83,0.33
0.52,-0.84,0.35
0.52,-0.85,0.35
0.52,-0.84,0.33
0.51,-0.83,0.29
0.52,-0.82,0.27
0.53,-0.83,0.27
0.53,-0.85,0.28
0.53,-0.87,0.33
0.54,-0.88,0.39
0.54,-0.87,0.42
0.5,-0.87,0.43
0.45,-0.85,0.39
0.45,-0.84,0.42
0.5,-0.87,0.54
0.59,-0.92,0.67
0.69,-0.97,0.85
0.77,-1,0.96
0.82,-0.97,0.94
0.81,-0.87,0.92
0.79,-0.8,0.93
0.84,-0.81,0.96
0.95,-0.85,1.02
1.03,-0.87,1.06
1.09,-0.91,1.08
1.16,-0.98,1.04
1.24,-1.03,0.94
1.27,-1.04,0.8
1.26,-1.02,0.69
1.26,-1.01,0.62
1.29,-1.02,0.58
1.31,-1.05,0.57
1.31,-1.1,0.59
1.26,-1.12,0.54
1.24,-1.05,0.49
1.24,-0.97,0.45
1.25,-0.95,0.44
1.28,-0.97,0.46
1.3,-1,0.47
1.29,-1,0.42
1.29,-1,0.39
1.29,-1.02,0.39
1.28,-1.02,0.41
1.26,-0.97,0.41
1.24,-0.91,0.41
1.26,-0.86,0.4
1.28,-0.85,0.35
1.27,-0.86,0.29
1.21,-0.86,0.27
1.17,-0.82,0.26
1.16,-0.74,0.22
1.18,-0.65,0.17
1.16,-0.57,0.12
1.14,-0.5,0.06
1.14,-0.46,0
1.14,-0.43,0.04
1.14,-0.42,0.06
1.12,-0.4,0.02
1.12,-0.33,-0.08
1.03,-0.22,-0.15
1.01,-0.12,-0.12
0.93,-0.16,-0.13
0.9,-0.19,-0.14
0.86,-0.11,-0.12
0.82,-0.06,-0.13
0.8,-0.14,-0.15
0.79,-0.08,-0.1
0.75,0.03,-0.06
0.74,0.09,-0.08
0.79,0.05,-0.07
0.78,0.01,-0.03
0.71,0.18,0.02
0.67,0.3,0.03
0.75,0.33,0
0.79,0.51,0.02
0.76,0.59,-0.01
0.75,0.48,0.04
0.64,0.45,0.17
0.55,0.35,0.19
0.48,0.28,0.2
0.42,0.36,0.19
0.41,0.38,0.2
0.37,0.35,0.22
0.32,0.24,0.17
0.28,0.12,0.18
0.11,0.24,0.18
0.04,0.18,0.17
-0.03,0.15,0.21
-0.13,0.3,0.24
-0.27,0.32,0.24
-0.4,0.29,0.29
-0.47,0.31,0.27
-0.5,0.34,0.25
-0.55,0.39,0.29
-0.48,0.43,0.33
-0.55,0.43,0.3
-0.79,0.31,0.32
-0.84,0.23,0.45
-0.83,0.37,0.49
-0.79,0.58,0.51
-0.76,0.54,0.51
-0.83,0.47,0.56
-0.87,0.49,0.64
-0.86,0.42,0.68
-1,0.38,0.7
-1.12,0.45,0.7
-1.14,0.51,0.72
-1.21,0.47,0.75
-1.26,0.49,0.74
-1.28,0.52,0.73
-1.31,0.5,0.78
-1.3,0.48,0.79
-1.26,0.45,0.78
-1.22,0.42,0.76
-1.17,0.38,0.72
-1.12,0.34,0.67
-1.07,0.34,0.61
-1,0.31,0.52
-0.91,0.29,0.46
-0.81,0.31,0.43
-0.71,0.28,0.37
-0.63,0.19,0.27
-0.55,0.18,0.25
-0.47,0.21,0.27
-0.39,0.14,0.19
-0.42,0.07,0.09
-0.38,0.09,0.07
-0.25,0.07,0.05
-0.19,0.05,-0.02
-0.11,0.06,-0.04
-0.03,0.05,-0.06
0.03,0.07,-0.06
0.04,0.04,-0.07
0.06,-0.05,-0.05
0.13,-0.09,-0.08
0.18,-0.1,-0.14
0.26,-0.12,-0.19
0.33,-0.2,-0.24
0.36,-0.26,-0.27
0.4,-0.33,-0.29
0.44,-0.37,-0.28
0.53,-0.35,-0.27
0.67,-0.3,-0.31
0.75,-0.3,-0.39
0.77,-0.4,-0.48
0.79,-0.55,-0.55
0.89,-0.71,-0.51
1.05,-0.79,-0.4
1.21,-0.74,-0.34
1.34,-0.64,-0.35
1.34,-0.62,-0.41
1.28,-0.69,-0.49
1.29,-0.78,-0.54
1.37,-0.9,-0.56
1.55,-0.94,-0.51
1.72,-0.88,-0.41
1.82,-0.84,-0.37
1.89,-0.8,-0.39
1.86,-0.76,-0.43
1.74,-0.78,-0.49
1.64,-0.88,-0.5
1.69,-0.99,-0.41
1.85,-0.99,-0.31
2,-0.75,-0.4
2.17,-0.61,-0.38
2.13,-0.55,-0.4
2.05,-0.55,-0.43
1.97,-0.54,-0.42
1.92,-0.5,-0.32
1.9,-0.45,-0.2
1.88,-0.4,-0.16
1.82,-0.36,-0.16
1.76,-0.38,-0.12
1.67,-0.47,-0.06
1.56,-0.58,-0.02
1.48,-0.63,0.07
1.41,-0.65,0.13
1.32,-0.68,0.14
1.24,-0.74,0.2
1.17,-0.73,0.25
1.15,-0.68,0.24
1.18,-0.7,0.2
1.18,-0.67,0.18
1.17,-0.71,0.18
1.2,-0.69,0.3
1.16,-0.65,0.43
1.07,-0.67,0.39
1.01,-0.71,0.27
0.85,-0.76,0.16
0.68,-0.7,0.29
0.48,-0.69,0.34
0.52,-0.79,0.37
0.57,-0.62,0.54
0.51,-0.53,0.67
0.64,-0.9,0.47
0.81,-1.1,0.3
0.78,-1.08,0.33
0.59,-1.02,0.39
0.33,-0.94,0.48
0.35,-0.89,0.65
0.39,-0.81,0.97
0.32,-0.67,1.14
0.23,-0.72,0.87
0.27,-0.96,0.76
0.47,-1.09,0.76
0.44,-1.05,0.57
0.21,-1.11,0.43
0.22,-1.11,0.41
0.41,-1.01,0.42
0.51,-0.97,0.38
0.48,-0.9,0.35
0.38,-0.76,0.39
0.2,-0.68,0.45
0.22,-0.75,0.34
0.34,-0.83,0.22
0.34,-0.84,0.16
0.34,-0.84,0.14
0.35,-0.84,0.15
0.38,-0.85,0.18
0.41,-0.85,0.2
0.42,-0.86,0.22
0.43,-0.88,0.27
0.46,-0.88,0.32
0.49,-0.88,0.34
0.5,-0.89,0.36
0.53,-0.9,0.37
0.54,-0.9,0.36
0.55,-0.89,0.34
0.56,-0.89,0.33
0.57,-0.88,0.33
0.57,-0.89,0.33
0.54,-0.9,0.33
0.54,-0.9,0.32
0.53,-0.89,0.3
0.52,-0.88,0.28
0.51,-0.87,0.26
0.5,-0.87,0.25
0.49,-0.87,0.24
0.49,-0.87,0.23
0.48,-0.86,0.22
0.48,-0.86,0.21
0.47,-0.85,0.22
0.47,-0.86,0.23
0.47,-0.87,0.22
0.46,-0.87,0.22
0.45,-0.87,0.23
0.45,-0.85,0.24
0.45,-0.84,0.24
0.45,-0.82,0.25
0.45,-0.8,0.25
0.45,-0.79,0.24
0.48,-0.8,0.24
0.48,-0.83,0.24
0.49,-0.85,0.24
0.5,-0.85,0.25
0.49,-0.85,0.27
0.47,-0.86,0.28
0.46,-0.87,0.28
0.46,-0.86,0.29
0.44,-0.86,0.29
0.41,-0.89,0.28
0.38,-0.91,0.28
0.37,-0.94,0.27
0.37,-0.95,0.27
0.36,-0.94,0.28
0.35,-0.92,0.28
0.35,-0.91,0.28
0.35,-0.92,0.28
0.37,-0.94,0.29
0.37,-0.95,0.29
0.38,-0.96,0.28
0.38,-0.97,0.29
0.39,-0.99,0.29
0.39,-1.01,0.29
0.4,-1.03,0.3
0.4,-1.05,0.31
0.4,-1.07,0.31
0.39,-1.07,0.3
0.37,-1.06,0.28
0.36,-1.03,0.28
0.34,-0.98,0.28
0.32,-0.94,0.29
0.32,-0.92,0.29
0.34,-0.92,0.28
0.36,-0.93,0.28
0.37,-0.95,0.25
0.39,-0.95,0.24
0.41,-0.94,0.24
0.42,-0.92,0.26
0.42,-0.9,0.29
0.45,-0.91,0.26
0.45,-0.93,0.24
0.45,-0.84,0.33
0.43,-0.8,0.27
0.42,-0.9,0.27
0.43,-0.9,0.31
0.43,-0.92,0.33
0.44,-0.94,0.33
0.45,-0.91,0.31
0.46,-0.86,0.24
0.45,-0.85,0.2
0.42,-0.88,0.2
0.43,-0.92,0.24
0.46,-0.93,0.3
0.49,-0.91,0.31
0.52,-0.87,0.28
0.51,-0.83,0.22
0.48,-0.82,0.12
0.47,-0.81,0.11
0.47,-0.82,0.19
0.5,-0.84,0.24
0.54,-0.86,0.2
0.59,-0.82,0.17
0.64,-0.77,0.11
0.7,-0.78,0.09
0.71,-0.77,0.14
0.69,-0.74,0.14
0.69,-0.73,0.09
0.67,-0.71,0
0.64,-0.67,-0.09
0.56,-0.63,-0.13
0.61,-0.66,-0.23
0.72,-0.6,-0.32
0.79,-0.51,-0.34
0.68,-0.62,-0.43
0.65,-0.71,-0.45
0.8,-0.6,-0.43
0.75,-0.55,-0.51
0.56,-0.6,-0.56
0.48,-0.6,-0.59
0.43,-0.61,-0.63
0.41,-0.61,-0.65
0.48,-0.61,-0.7
0.54,-0.64,-0.77
0.59,-0.66,-0.82
0.6,-0.69,-0.85
0.63,-0.72,-0.86
0.67,-0.7,-0.82
0.53,-0.71,-0.75
0.38,-0.73,-0.71
0.31,-0.71,-0.74
0.32,-0.68,-0.76
0.31,-0.68,-0.75
0.28,-0.71,-0.79
0.33,-0.71,-0.79
0.32,-0.69,-0.77
0.36,-0.69,-0.74
0.35,-0.67,-0.73
0.34,-0.67,-0.72
0.34,-0.66,-0.69
0.35,-0.65,-0.69
0.3,-0.64,-0.71
0.28,-0.63,-0.72
0.31,-0.63,-0.72
0.31,-0.65,-0.71
0.32,-0.66,-0.7
0.34,-0.7,-0.69
0.35,-0.74,-0.7
0.34,-0.76,-0.69
0.34,-0.75,-0.67
0.35,-0.71,-0.67
0.37,-0.64,-0.65
0.41,-0.58,-0.64
0.43,-0.54,-0.63
0.43,-0.53,-0.63
0.43,-0.55,-0.63
0.39,-0.58,-0.63
0.35,-0.61,-0.62
0.33,-0.61,-0.62
0.32,-0.62,-0.62
0.33,-0.64,-0.6
0.35,-0.66,-0.58
0.4,-0.65,-0.59
0.42,-0.62,-0.62
0.43,-0.6,-0.64
0.45,-0.59,-0.65
0.44,-0.59,-0.66
0.42,-0.6,-0.65
0.41,-0.61,-0.64
0.41,-0.61,-0.64
0.41,-0.62,-0.63
0.42,-0.64,-0.62
0.44,-0.66,-0.61
0.46,-0.7,-0.62
0.49,-0.74,-0.64
0.51,-0.77,-0.65
0.52,-0.75,-0.66
0.53,-0.72,-0.65
0.52,-0.72,-0.66
0.51,-0.74,-0.67
0.5,-0.76,-0.65
0.53,-0.79,-0.64
0.59,-0.84,-0.65
0.64,-0.9,-0.63
0.6,-0.97,-0.59
0.57,-0.97,-0.57
0.57,-0.93,-0.56
0.62,-0.97,-0.57
0.68,-0.99,-0.56
0.7,-0.95,-0.52
0.77,-0.97,-0.5
0.73,-1.02,-0.44
0.66,-1.07,-0.4
0.63,-1.07,-0.31
0.5,-1.08,-0.25
0.48,-1.12,-0.25
0.61,-1.16,-0.19
0.72,-1.19,-0.09
0.77,-1.2,-0.02
0.82,-1.14,-0.09
0.9,-1.11,-0.14
0.67,-1.06,-0.28
0.6,-1.01,-0.29
0.75,-1.05,-0.11
0.67,-1.11,0.02
0.59,-1.11,0.08
0.67,-1.1,0.07
0.78,-1.06,0.07
0.73,-0.97,0.06
0.64,-0.89,0.03
0.51,-0.85,0
0.41,-0.87,-0.01
0.36,-0.92,0.1
0.39,-0.98,0.23
0.45,-0.93,0.35
0.46,-0.86,0.32
0.4,-0.85,0.25
0.41,-0.79,0.29
0.45,-0.75,0.38
0.47,-0.78,0.38
0.52,-0.8,0.41
0.55,-0.76,0.49
0.49,-0.66,0.51
0.44,-0.58,0.48
0.4,-0.54,0.46
0.37,-0.56,0.43
0.37,-0.57,0.39
0.35,-0.57,0.4
0.31,-0.59,0.36
0.31,-0.58,0.28
0.27,-0.6,0.19
0.22,-0.65,0.12
0.24,-0.68,0.05
0.32,-0.66,-0.05
0.42,-0.61,-0.15
0.5,-0.55,-0.19
0.54,-0.49,-0.2
0.56,-0.46,-0.25
0.55,-0.46,-0.34
0.47,-0.52,-0.36
0.44,-0.57,-0.28
0.52,-0.55,-0.25
0.56,-0.53,-0.19
0.6,-0.49,-0.18
0.58,-0.49,-0.2
0.53,-0.53,-0.22
0.53,-0.6,-0.21
0.54,-0.66,-0.18
0.54,-0.69,-0.14
0.53,-0.7,-0.11
0.52,-0.71,-0.12
0.54,-0.73,-0.13
0.52,-0.78,-0.08
0.47,-0.85,-0.03
0.45,-0.97,-0.01
0.44,-1.11,0
0.41,-1.21,-0.03
0.42,-1.23,-0.07
0.47,-1.26,-0.08
0.54,-1.27,-0.07
0.57,-1.2,0.02
0.6,-1.18,0.09
0.61,-1.26,0.07
0.56,-1.36,0.06
0.53,-1.42,0.07
0.52,-1.45,0.07
0.56,-1.45,0.12
0.64,-1.33,0.15
0.64,-1.27,0.17
0.62,-1.25,0.18
0.57,-1.28,0.18
0.49,-1.33,0.16
0.41,-1.38,0.1
0.39,-1.42,0.06
0.45,-1.4,0.07
0.48,-1.36,0.1
0.53,-1.3,0.11
0.63,-1.27,0.13
0.64,-1.31,0.13
0.58,-1.35,0.1
0.55,-1.35,0.06
0.5,-1.31,0.07
0.53,-1.23,0.08
0.56,-1.17,0.07
0.54,-1.12,0.08
0.56,-1.09,0.09
0.58,-1.08,0.08
0.59,-1.07,0.05
0.78,-1.18,0.15
1.27,-1.22,0.38
1.51,-1.07,0.61
1.19,-0.96,0.74
0.7,-0.96,0.71
0.39,-0.93,0.67
0.58,-0.91,0.61
0.65,-0.88,0.5
0.58,-0.86,0.33
0.57,-0.84,0.14
0.59,-0.82,0
0.58,-0.8,-0.04
0.55,-0.81,0.02
0.43,-0.82,0.1
0.36,-0.83,0.16
0.32,-0.84,0.2
0.27,-0.85,0.2
0.24,-0.84,0.16
0.24,-0.83,0.12
0.28,-0.84,0.08
0.35,-0.86,0.08
0.39,-0.87,0.1
0.42,-0.88,0.1
0.45,-0.88,0.09
0.45,-0.91,0.08
0.48,-0.93,0.08
0.51,-0.95,0.07
0.54,-0.97,0.05
0.58,-0.98,0.02
0.58,-0.98,0.01
0.56,-0.97,0
0.52,-1.02,0.01
0.53,-1.02,0.05
0.6,-1.04,0.07
0.63,-1.08,0.06
0.66,-1.12,0.05
0.68,-1.14,0.05
0.68,-1.17,0.06
0.68,-1.18,0.06
0.66,-1.19,0.06
0.64,-1.2,0.06
0.62,-1.2,0.06
0.6,-1.19,0.06
0.58,-1.16,0.04
0.61,-1.14,0
0.63,-1.13,-0.02
0.62,-1.13,0
0.63,-1.14,0.01
0.66,-1.13,0.04
0.66,-1.1,0.08
0.64,-1.08,0.14
0.64,-1.08,0.18
0.59,-1.08,0.21
0.57,-1.08,0.22
0.6,-1.09,0.23
0.63,-1.11,0.27
0.68,-1.12,0.51
0.67,-1.08,0.62
0.59,-1.03,0.67
0.53,-0.98,0.64
0.51,-0.95,0.6
0.5,-0.97,0.61
0.57,-1,0.64
0.64,-1.01,0.69
0.61,-1.06,0.7
0.54,-1.11,0.73
0.45,-1.09,0.76
0.33,-1.03,0.73
0.25,-0.98,0.7
0.25,-0.92,0.72
0.27,-0.92,0.74
0.3,-0.96,0.74
0.31,-0.96,0.71
0.3,-0.91,0.69
0.3,-0.86,0.65
0.28,-0.78,0.62
0.29,-0.67,0.63
0.28,-0.6,0.65
0.26,-0.55,0.64
0.32,-0.5,0.55
0.4,-0.48,0.45
0.47,-0.49,0.38
0.5,-0.5,0.26
0.45,-0.52,0.23
0.43,-0.51,0.23
0.42,-0.45,0.25
0.4,-0.43,0.2
0.38,-0.45,0.16
0.42,-0.42,0.16
0.44,-0.41,0.16
0.36,-0.43,0.2
0.28,-0.43,0.25
0.25,-0.38,0.31
0.23,-0.34,0.39
0.24,-0.33,0.45
0.32,-0.32,0.5
0.36,-0.31,0.56
0.35,-0.31,0.63
0.25,-0.35,0.68
0.15,-0.4,0.75
0.24,-0.43,0.84
0.4,-0.41,0.89
0.37,-0.37,0.93
0.21,-0.34,1.04
0.06,-0.34,1.14
0.04,-0.38,1.16
0.17,-0.42,1.16
0.42,-0.42,1.13
0.54,-0.37,1.09
0.31,-0.32,1.1
0.18,-0.37,1.11
0.15,-0.41,1.14
0.3,-0.43,1.16
0.46,-0.45,1.14
0.57,-0.42,1.08
0.62,-0.33,1.03
0.58,-0.27,1
0.52,-0.27,0.98
0.44,-0.32,0.96
0.41,-0.36,0.95
0.46,-0.4,0.92
0.51,-0.41,0.84
0.59,-0.4,0.75
0.71,-0.38,0.71
0.74,-0.36,0.68
0.73,-0.37,0.65
0.72,-0.36,0.64
0.78,-0.34,0.67
0.93,-0.29,0.7
1.14,-0.25,0.64
1.27,-0.26,0.55
1.22,-0.28,0.47
1.11,-0.31,0.41
1.05,-0.3,0.42
1.12,-0.24,0.48
1.36,-0.25,0.42
1.76,-0.29,0.33
1.68,-0.33,0.25
1.48,-0.36,0.22
1.29,-0.33,0.3
1.21,-0.27,0.37
1.23,-0.24,0.29
1.26,-0.24,0.12
1.34,-0.24,0.02
1.44,-0.23,0.01
1.48,-0.21,0.05
1.46,-0.16,0.09
1.39,-0.07,0.07
1.29,-0.01,-0.01
1.18,-0.05,-0.12
1.13,-0.12,-0.11
1.13,-0.09,-0.12
1.15,-0.06,-0.24
1.2,-0.11,-0.36
1.27,-0.16,-0.36
1.28,-0.14,-0.25
1.25,-0.07,-0.18
1.22,-0.05,-0.13
1.2,-0.1,-0.09
1.21,-0.15,-0.01
1.22,-0.08,0.06
1.18,0.14,-0.09
1.1,0.14,-0.1
1.06,0.23,0.01
1.01,0.31,0.06
1.01,0.37,0.05
1.02,0.36,0.11
0.98,0.26,0.16
0.9,0.29,0.17
0.88,0.39,0.13
0.84,0.4,0.01
0.7,0.36,-0.05
0.58,0.36,-0.05
0.54,0.38,0.02
0.54,0.41,0.11
0.47,0.4,0.15
0.41,0.35,0.19
0.42,0.38,0.22
0.57,0.66,0.24
0.42,0.32,0.12
0.01,-0.08,0.11
0,0.3,0.26
0.24,0.41,0.27
0.24,0.31,0.3
0.15,0.3,0.26
-0.16,0.26,0.18
-0.58,0.27,0.19
-0.84,0.28,0.11
-0.86,0.31,0.17
-0.67,0.32,0.23
-0.61,0.25,0.22
-0.65,0.3,0.22
-0.76,0.41,0.21
-0.89,0.51,0.27
-1.06,0.52,0.33
-1.2,0.51,0.4
-1.23,0.47,0.54
-1.22,0.41,0.68
-1.21,0.39,0.82
-1.22,0.35,0.86
-1.27,0.37,0.84
-1.35,0.39,0.87
-1.37,0.38,0.93
-1.36,0.38,0.98
-1.31,0.38,1.03
-1.23,0.37,1.02
-1.18,0.37,0.97
-1.11,0.37,0.91
-1.02,0.37,0.85
-0.92,0.36,0.79
-0.8,0.33,0.74
-0.7,0.32,0.69
-0.64,0.31,0.63
-0.6,0.31,0.52
-0.53,0.28,0.46
-0.46,0.25,0.42
-0.38,0.2,0.39
-0.31,0.17,0.35
-0.23,0.13,0.29
-0.15,0.11,0.24
-0.09,0.12,0.19
-0.06,0.08,0.19
0.01,-0.01,0.13
0.1,-0.05,0.02
0.13,-0.08,-0.02
0.16,-0.08,-0.04
0.19,-0.15,-0.04
0.23,-0.22,-0.05
0.35,-0.22,-0.01
0.49,-0.23,0.01
0.56,-0.29,-0.01
0.58,-0.34,-0.06
0.56,-0.44,-0.14
0.58,-0.48,-0.16
0.61,-0.45,-0.13
0.65,-0.47,-0.12
0.69,-0.5,-0.1
0.7,-0.55,-0.11
0.74,-0.58,-0.16
0.81,-0.62,-0.32
0.95,-0.68,-0.42
1.04,-0.73,-0.45
1.19,-0.8,-0.38
1.37,-0.84,-0.33
1.49,-0.88,-0.33
1.48,-0.89,-0.32
1.35,-0.86,-0.31
1.21,-0.87,-0.29
1.15,-0.92,-0.27
1.18,-1.03,-0.2
1.35,-1.12,-0.12
1.54,-1.08,-0.12
1.67,-0.99,-0.17
1.69,-0.98,-0.2
1.62,-1.07,-0.17
1.52,-1.12,-0.15
1.49,-1.12,-0.1
1.62,-1.17,-0.02
1.87,-1.18,0.01
2.11,-1.12,0.04
2.18,-1.04,0.01
2.08,-0.95,-0.03
1.92,-0.86,-0.05
1.74,-0.84,-0.11
1.62,-0.93,-0.16
1.69,-1.04,-0.1
1.98,-1.14,-0.14
1.99,-1.13,-0.01
1.86,-1.04,0.25
1.69,-0.91,0.34
1.39,-0.82,0.29
0.95,-0.84,0.2
0.6,-0.88,0.12
0.57,-0.87,0.12
0.79,-0.83,0.13
0.97,-0.84,0.09
1,-0.9,0.06
0.97,-0.95,0.1
0.96,-0.98,0.24
0.91,-0.99,0.33
0.82,-0.98,0.29
0.81,-0.94,0.24
0.89,-0.89,0.23
1.02,-0.95,0.18
1.23,-1,0.13
1.3,-0.93,0.12
1.27,-0.82,0.12
1.32,-0.73,0.21
1.17,-0.74,0.17
0.72,-0.89,0.06
0.24,-1.02,0.06
0.15,-0.99,0.17
0.47,-0.86,0.16
0.57,-0.88,0.1
0.66,-0.93,0.01
0.68,-0.94,0.03
0.64,-0.89,0.07
0.55,-0.86,0.05
0.46,-0.88,0.04
0.45,-0.88,0.03
0.47,-0.9,0.01
0.47,-0.89,0.04
0.48,-0.87,0.08
0.5,-0.85,0.11
0.52,-0.84,0.11
0.53,-0.85,0.1
0.54,-0.85,0.07
0.53,-0.85,0.08
0.53,-0.87,0.09
0.58,-0.86,0.11
0.64,-0.85,0.17
0.65,-0.87,0.18
0.63,-0.89,0.13
0.63,-0.9,0.1
0.59,-0.92,0.09
0.56,-0.9,0.09
0.63,-0.87,0.06
0.77,-0.88,0.04
0.93,-0.88,0.05
1.01,-0.85,0.12
1.02,-0.9,0.16
0.98,-0.92,0.21
0.99,-0.88,0.18
0.98,-0.91,0.11
0.95,-0.93,0.14
0.94,-0.9,0.2
0.93,-0.96,0.23
0.91,-1.06,0.28
0.88,-1.1,0.32
0.83,-1.09,0.31
0.82,-1.07,0.25
0.84,-1.08,0.22
0.84,-1.11,0.22
0.9,-1.09,0.24
0.96,-1.1,0.26
1.04,-1.14,0.28
1.08,-1.14,0.3
1.1,-1.14,0.31
1.11,-1.14,0.28
1.09,-1.14,0.23
1.06,-1.15,0.19
1.08,-1.17,0.15
1.13,-1.17,0.1
1.17,-1.17,0.09
1.34,-1.2,0.07
1.34,-1.18,0.05
1.38,-1.15,0.04
1.37,-1.12,0.02
1.27,-1.09,0.05
1.17,-1.06,0.08
1.16,-1.02,0.08
1.19,-0.97,0.12
1.2,-0.98,0.12
1.19,-0.96,0.06
1.19,-0.89,0.02
1.17,-0.86,0.04
1.15,-0.85,0.04
1.15,-0.83,0.03
1.16,-0.78,0.03
1.14,-0.75,-0.01
1.09,-0.76,-0.05
1.05,-0.75,-0.09
1.02,-0.72,-0.12
0.99,-0.67,-0.15
0.99,-0.56,-0.23
1.03,-0.46,-0.34
1.06,-0.45,-0.42
1.04,-0.5,-0.4
1.05,-0.56,-0.3
1.1,-0.53,-0.22
1.02,-0.42,-0.2
0.97,-0.45,-0.18
0.98,-0.44,-0.18
0.98,-0.4,-0.21
0.98,-0.34,-0.24
1.01,-0.33,-0.21
1,-0.31,-0.11
0.96,-0.28,0.03
0.9,-0.26,0.12
0.79,-0.21,0.16
0.72,-0.13,0.13
0.72,-0.03,0.08
0.76,0.03,0.04
0.8,-0.05,0
0.81,-0.08,0.11
0.82,0.08,0.25
0.73,0.09,0.36
0.54,0.09,0.47
0.4,0.19,0.47
0.35,0.16,0.4
0.42,0.19,0.39
0.51,0.15,0.39
0.46,0.04,0.39
0.4,0.13,0.47
0.37,0.25,0.52
0.4,0.39,0.53
0.4,0.36,0.52
0.28,0.33,0.58
0.12,0.37,0.62
0.04,0.35,0.63
0.02,0.42,0.47
0.05,0.58,0.39
0.08,0.56,0.38
0.06,0.53,0.39
0.07,0.6,0.4
-0.06,0.44,0.41
-0.08,0.56,0.5
-0.17,0.51,0.46
-0.37,0.33,0.34
-0.4,0.42,0.24
-0.55,0.37,0.19
-0.64,0.47,0.22
-0.65,0.55,0.23
-0.8,0.5,0.24
-0.91,0.46,0.27
-0.88,0.51,0.26
-0.89,0.52,0.29
-0.94,0.48,0.35
-0.96,0.5,0.35
-1,0.54,0.31
-1.05,0.53,0.3
-1.08,0.5,0.31
-1.14,0.51,0.43
-1.09,0.54,0.49
-1.12,0.51,0.49
-1.2,0.54,0.5
-1.16,0.61,0.51
-1.16,0.59,0.49
-1.15,0.58,0.5
-1.09,0.56,0.49
-1.01,0.55,0.5
-0.91,0.51,0.5
-0.81,0.49,0.49
-0.74,0.48,0.49
-0.69,0.46,0.5
-0.62,0.43,0.5
-0.54,0.42,0.49
-0.47,0.42,0.47
-0.41,0.39,0.46
-0.33,0.35,0.41
-0.33,0.33,0.41
-0.36,0.31,0.55
-0.31,0.3,0.45
-0.21,0.26,0.32
-0.1,0.19,0.34
-0.02,0.15,0.26
0.05,0.09,0.24
0.1,0.07,0.24
0.13,-0.02,0.2
0.19,-0.01,0.15
0.24,-0.05,0.13
0.25,-0.12,0.02
0.31,-0.18,-0.07
0.46,-0.18,-0.1
0.6,-0.21,-0.08
0.6,-0.3,-0.09
0.51,-0.34,-0.15
0.45,-0.39,-0.19
0.49,-0.47,-0.22
0.59,-0.5,-0.2
0.71,-0.45,-0.22
0.84,-0.41,-0.3
0.92,-0.45,-0.47
0.98,-0.57,-0.62
1.06,-0.67,-0.64
1.13,-0.7,-0.54
1.15,-0.65,-0.44
1.13,-0.52,-0.41
1.13,-0.47,-0.44
1.16,-0.58,-0.47
1.17,-0.73,-0.5
1.15,-0.83,-0.52
1.14,-0.86,-0.51
1.25,-0.82,-0.48
1.44,-0.75,-0.44
1.58,-0.8,-0.45
1.53,-0.81,-0.48
1.41,-0.81,-0.5
1.25,-0.84,-0.48
1.1,-0.99,-0.33
1.22,-1.06,-0.19
1.45,-0.99,-0.2
1.58,-0.91,-0.3
1.62,-0.83,-0.5
1.58,-0.76,-0.59
1.51,-0.79,-0.61
1.42,-0.84,-0.61
1.37,-0.83,-0.6
1.35,-0.84,-0.59
1.4,-0.82,-0.52
1.53,-0.8,-0.43
1.64,-0.81,-0.34
1.69,-0.82,-0.32
1.66,-0.84,-0.38
1.5,-0.84,-0.43
1.28,-0.85,-0.43
1.11,-0.88,-0.37
1,-0.89,-0.3
0.99,-0.87,-0.29
1.04,-0.85,-0.28
1.12,-0.88,-0.27
1.15,-0.94,-0.23
1.03,-0.95,-0.19
0.92,-0.93,-0.17
0.89,-0.93,-0.23
0.9,-0.93,-0.27
0.87,-0.91,-0.25
0.81,-0.92,-0.16
0.8,-0.92,-0.15
0.82,-0.89,-0.16
0.79,-0.88,-0.11
0.73,-0.88,-0.09
0.68,-0.9,-0.13
0.64,-0.91,-0.16
0.62,-0.91,-0.15
0.68,-0.9,-0.11
0.76,-0.87,-0.06
0.79,-0.84,-0.03
0.73,-0.81,-0.05
0.67,-0.82,-0.08
0.65,-0.83,-0.11
0.65,-0.83,-0.12
0.67,-0.85,-0.12
0.73,-0.86,-0.09
0.75,-0.87,-0.02
0.68,-0.86,0.04
0.62,-0.85,-0.01
0.54,-0.85,-0.05
0.52,-0.85,-0.09
0.53,-0.88,-0.09
0.64,-0.9,-0.09
0.77,-0.9,-0.05
0.81,-0.88,0.01
0.8,-0.83,0.03
0.77,-0.82,0.05
0.72,-0.82,0.02
0.67,-0.82,-0.04
0.71,-0.82,-0.15
0.78,-0.83,-0.34
0.92,-0.83,-0.63
1.08,-0.8,-0.7
1,-0.82,-0.42
0.82,-0.82,-0.16
0.79,-0.78,-0.13
0.79,-0.74,-0.17
0.67,-0.75,-0.26
0.52,-0.82,-0.33
0.46,-0.85,-0.33
0.49,-0.85,-0.32
0.51,-0.85,-0.3
0.48,-0.84,-0.28
0.47,-0.83,-0.27
0.46,-0.82,-0.22
0.45,-0.83,-0.21
0.44,-0.84,-0.21
0.43,-0.84,-0.23
0.43,-0.85,-0.26
0.43,-0.85,-0.28
0.46,-0.86,-0.27
0.47,-0.86,-0.25
0.48,-0.85,-0.23
0.49,-0.85,-0.21
0.51,-0.85,-0.17
0.54,-0.86,-0.13
0.56,-0.85,-0.13
0.57,-0.85,-0.13
0.59,-0.85,-0.12
0.62,-0.86,-0.1
0.65,-0.86,-0.06
0.69,-0.85,-0.03
0.76,-0.84,0.01
0.81,-0.86,0.04
0.86,-0.87,0.06
0.94,-0.9,0.08
1,-0.91,0.1
1.03,-0.9,0.13
1.04,-0.91,0.14
1.06,-0.91,0.14
1.14,-0.96,0.1
1.38,-0.98,0.08
1.39,-1.01,0.05
1.45,-1.02,0.04
1.49,-1.03,0.04
1.42,-1.07,0
1.32,-1.08,-0.04
1.27,-1.07,-0.08
1.29,-1.1,-0.14
1.33,-1.15,-0.18
1.34,-1.17,-0.19
1.39,-1.16,-0.23
1.43,-1.14,-0.27
1.45,-1.12,-0.26
1.5,-1.11,-0.25
1.5,-1.11,-0.23
1.48,-1.09,-0.22
1.48,-1.05,-0.21
1.46,-1.01,-0.2
1.41,-0.97,-0.2
1.36,-0.96,-0.21
1.34,-0.95,-0.21
1.31,-0.95,-0.2
1.26,-0.98,-0.21
1.22,-0.98,-0.24
1.2,-0.93,-0.22
1.14,-0.9,-0.19
1.01,-0.86,-0.22
1.02,-0.78,-0.24
1.05,-0.74,-0.29
1.07,-0.7,-0.34
1.11,-0.67,-0.41
1.22,-0.61,-0.44
1.26,-0.59,-0.41
1.16,-0.63,-0.36
1.06,-0.64,-0.26
1,-0.61,-0.17
0.95,-0.56,-0.13
0.91,-0.48,-0.09
0.91,-0.4,-0.02
0.93,-0.34,0
0.97,-0.31,-0.03
1.01,-0.24,-0.06
1.03,-0.13,-0.07
1.04,-0.04,-0.06
1.03,-0.1,-0.03
1.04,-0.15,0.03
1.02,-0.15,0.14
0.94,-0.18,0.2
0.84,-0.19,0.2
0.8,-0.13,0.18
0.79,0.01,0.15
0.74,-0.15,0.01
0.66,0,0.08
0.63,0.14,0.05
0.48,-0.06,0.07
0.47,-0.01,0.11
0.4,0.22,0.12
0.33,0.17,0.18
0.27,0.13,0.21
0.32,0.1,0.14
0.34,0.08,0.14
0.23,0.18,0.18
0.16,0.19,0.22
0.06,0.21,0.21
0.01,0.25,0.16
-0.07,0.24,0.17
-0.14,0.28,0.18
-0.19,0.35,0.19
-0.27,0.37,0.25
-0.37,0.36,0.27
-0.51,0.37,0.29
-0.63,0.46,0.3
-0.67,0.6,0.29
-0.61,0.6,0.37
-0.54,0.57,0.48
-0.5,0.58,0.5
-0.49,0.56,0.48
-0.53,0.6,0.47
-0.64,0.7,0.51
-0.76,0.73,0.55
-0.82,0.74,0.59
-0.85,0.73,0.63
-0.82,0.71,0.67
-0.77,0.67,0.7
-0.73,0.66,0.72
-0.7,0.67,0.73
-0.67,0.66,0.73
-0.65,0.66,0.74
-0.7,0.64,0.76
-0.76,0.64,0.76
-0.75,0.66,0.77
-0.74,0.65,0.78
-0.72,0.65,0.78
-0.69,0.64,0.76
-0.66,0.64,0.72
-0.64,0.63,0.68
-0.63,0.64,0.64
-0.6,0.64,0.62
-0.57,0.63,0.6
-0.54,0.63,0.56
-0.52,0.64,0.53
-0.5,0.64,0.51
-0.44,0.62,0.49
-0.38,0.59,0.45
-0.33,0.59,0.38
-0.26,0.61,0.37
-0.23,0.6,0.34
-0.19,0.59,0.33
-0.19,0.61,0.32
-0.17,0.58,0.27
-0.13,0.54,0.22
-0.11,0.5,0.18
-0.08,0.46,0.15
-0.03,0.42,0.13
-0.05,0.4,0.12
0,0.38,0.1
0.1,0.38,0.08
0.08,0.41,0.07
0.08,0.46,0.05
0.15,0.32,0.03
0.24,0.12,-0.01
0.16,0.08,0
0.13,0.17,-0.01
0.2,0.2,0.01
0.3,0.13,-0.03
0.46,0.1,-0.11
0.47,0.08,-0.15
0.42,0.11,-0.13
0.41,0.06,-0.13
0.44,-0.05,-0.22
0.47,-0.08,-0.27
0.51,-0.15,-0.24
0.57,-0.19,-0.26
0.68,-0.26,-0.34
0.73,-0.35,-0.39
0.7,-0.41,-0.44
0.71,-0.47,-0.51
0.77,-0.48,-0.55
0.86,-0.44,-0.58
0.99,-0.4,-0.64
1.03,-0.42,-0.71
1.02,-0.51,-0.8
1,-0.58,-0.86
0.98,-0.6,-0.86
1.04,-0.6,-0.83
1.15,-0.56,-0.82
1.21,-0.55,-0.84
1.22,-0.6,-0.85
1.21,-0.65,-0.86
1.15,-0.67,-0.86
1.03,-0.68,-0.84
0.98,-0.69,-0.79
1.11,-0.66,-0.77
1.35,-0.55,-0.79
1.47,-0.51,-0.84
1.47,-0.57,-0.86
1.46,-0.68,-0.75
1.24,-0.79,-0.7
1.08,-0.79,-0.67
1.12,-0.76,-0.61
1.3,-0.7,-0.55
1.46,-0.67,-0.54
1.54,-0.69,-0.56
1.55,-0.76,-0.51
1.47,-0.8,-0.43
1.26,-0.82,-0.41
1.08,-0.83,-0.45
0.98,-0.81,-0.45
0.98,-0.82,-0.42
1.14,-0.84,-0.37
1.32,-0.84,-0.31
1.42,-0.82,-0.3
1.41,-0.79,-0.29
1.31,-0.78,-0.28
1.22,-0.75,-0.32
1.11,-0.76,-0.33
1,-0.82,-0.32
1,-0.8,-0.27
1.07,-0.76,-0.19
1.11,-0.83,-0.08
1.1,-0.82,-0.01
1.02,-0.72,-0.03
0.91,-0.69,-0.16
0.93,-0.83,-0.17
0.92,-0.92,-0.18
0.88,-0.91,-0.13
0.83,-0.82,-0.07
0.7,-0.71,0.01
0.66,-0.7,0.1
0.77,-0.84,0.11
0.81,-0.93,0.05
0.78,-0.93,-0.02
0.73,-0.91,-0.08
0.69,-0.91,-0.1
0.72,-0.95,-0.09
0.75,-0.97,-0.06
0.91,-0.93,0.09
1.05,-0.9,0.28
1.16,-0.84,0.39
1.24,-0.74,0.35
1.05,-0.69,0.26
0.88,-0.71,0.22
0.85,-0.76,0.15
0.8,-0.79,0.04
0.74,-0.79,-0.05
0.69,-0.76,0.01
0.65,-0.75,0.17
0.45,-0.89,0.23
0.37,-1,0.31
0.56,-0.8,0.3
0.48,-0.79,0.26
0.43,-0.76,0.25
0.41,-0.73,0.23
0.45,-0.71,0.2
0.5,-0.71,0.18
0.53,-0.73,0.19
0.56,-0.75,0.19
0.61,-0.75,0.18
0.65,-0.72,0.17
0.67,-0.68,0.17
0.67,-0.68,0.16
0.69,-0.75,0.18
0.69,-0.76,0.18
0.68,-0.75,0.14
0.69,-0.75,0.14
0.69,-0.77,0.12
0.72,-0.77,0.11
0.74,-0.76,0.11
0.69,-0.77,0.11
0.67,-0.78,0.11
0.66,-0.79,0.09
0.66,-0.79,0.08
0.66,-0.79,0.08
0.65,-0.8,0.09
0.66,-0.79,0.11
0.69,-0.81,0.12
0.68,-0.82,0.13
0.66,-0.82,0.12
0.65,-0.83,0.11
0.63,-0.84,0.11
0.61,-0.82,0.15
0.62,-0.81,0.17
0.64,-0.8,0.18
0.67,-0.8,0.21
0.68,-0.81,0.27
0.69,-0.83,0.31
0.69,-0.83,0.34
0.68,-0.83,0.36
0.68,-0.82,0.39
0.69,-0.82,0.42
0.72,-0.83,0.45
0.77,-0.86,0.5
0.81,-0.92,0.54
0.84,-0.96,0.56
0.85,-0.99,0.59
0.88,-1.04,0.65
0.96,-1.07,0.71
1.03,-1.08,0.72
1.12,-1.1,0.73
1.22,-1.14,0.8
1.23,-1.15,0.8
1.49,-1.02,0.85
1.59,-0.97,0.86
1.59,-0.96,0.81
1.57,-1.03,0.77
1.54,-1.11,0.73
1.51,-1.13,0.65
1.48,-1.13,0.56
1.46,-1.13,0.45
1.48,-1.13,0.37
1.52,-1.13,0.29
1.57,-1.17,0.22
1.64,-1.23,0.17
1.68,-1.29,0.1
1.66,-1.3,0.02
1.62,-1.24,-0.05
1.55,-1.15,-0.13
1.47,-1.09,-0.2
1.4,-1.07,-0.24
1.36,-1.09,-0.25
1.34,-1.1,-0.24
1.28,-1.07,-0.25
1.18,-1,-0.3
1.11,-0.92,-0.34
1.09,-0.85,-0.37
1.04,-0.8,-0.36
0.98,-0.73,-0.38
0.95,-0.58,-0.43
0.96,-0.53,-0.41
0.98,-0.5,-0.34
0.9,-0.5,-0.28
0.78,-0.48,-0.25
0.72,-0.45,-0.21
0.68,-0.4,-0.19
0.69,-0.33,-0.19
0.75,-0.26,-0.17
0.79,-0.26,-0.14
0.8,-0.21,-0.08
0.83,-0.16,-0.03
0.77,-0.25,0.02
0.7,-0.13,0.1
0.63,0.14,0.1
0.6,0.2,0.11
0.57,0.1,0.14
0.5,0.08,0.08
0.51,0.24,0.08
0.56,0.29,0.13
0.44,0.17,0.19
0.29,0.28,0.24
0.27,0.4,0.26
0.34,0.34,0.23
0.32,0.29,0.21
0.24,0.32,0.22
0.18,0.34,0.21
0.07,0.34,0.21
0.04,0.4,0.2
-0.01,0.38,0.21
-0.12,0.37,0.25
-0.18,0.39,0.25
-0.21,0.44,0.21
-0.28,0.43,0.24
-0.4,0.43,0.28
-0.48,0.52,0.25
-0.48,0.53,0.24
-0.52,0.51,0.24
-0.57,0.55,0.24
-0.55,0.6,0.26
-0.51,0.65,0.3
-0.46,0.69,0.35
-0.46,0.71,0.36
-0.39,0.72,0.35
-0.46,0.51,0.32
-0.68,0.42,0.38
-0.67,0.67,0.45
-0.65,0.68,0.39
-0.7,0.82,0.35
-0.74,0.8,0.43
-0.89,0.4,0.46
-0.88,0.47,0.49
-0.76,0.61,0.52
-0.79,0.62,0.53
-0.82,0.62,0.53
-0.84,0.62,0.53
-0.82,0.6,0.54
-0.82,0.61,0.56
-0.81,0.61,0.6
-0.8,0.59,0.61
-0.8,0.59,0.6
-0.79,0.59,0.6
-0.78,0.59,0.58
-0.75,0.62,0.59
-0.72,0.64,0.58
-0.68,0.62,0.54
-0.64,0.62,0.53
-0.6,0.63,0.52
-0.57,0.66,0.52
-0.57,0.66,0.5
-0.57,0.64,0.49
-0.56,0.68,0.49
-0.54,0.65,0.49
-0.54,0.59,0.5
-0.45,0.53,0.44
-0.36,0.6,0.43
-0.41,0.58,0.37
-0.34,0.44,0.29
-0.23,0.52,0.38
-0.19,0.49,0.34
-0.29,0.44,0.39
-0.38,0.38,0.3
-0.23,0.3,0.31
-0.14,0.29,0.41
-0.06,0.33,0.27
0.11,0.33,0.18
0.07,0.32,0.11
0.03,0.29,0.13
0.09,0.31,0.23
0.14,0.31,0.19
0.21,0.26,0.06
0.26,0.23,0.02
0.25,0.18,-0.03
0.2,0.12,-0.07
0.14,0.05,-0.1
0.22,0.02,-0.13
0.38,-0.01,-0.14
0.46,-0.04,-0.17
0.53,-0.07,-0.21
0.58,-0.1,-0.24
0.56,-0.16,-0.3
0.55,-0.24,-0.36
0.6,-0.33,-0.4
0.71,-0.34,-0.43
0.82,-0.26,-0.5
0.94,-0.22,-0.55
0.94,-0.34,-0.6
0.95,-0.45,-0.63
0.94,-0.53,-0.64
0.93,-0.57,-0.63
0.98,-0.56,-0.62
1.06,-0.52,-0.64
1.09,-0.51,-0.69
1.1,-0.52,-0.75
1.13,-0.55,-0.83
1.13,-0.6,-0.86
1.11,-0.66,-0.84
1.15,-0.68,-0.8
1.28,-0.65,-0.76
1.39,-0.61,-0.77
1.43,-0.62,-0.81
1.42,-0.66,-0.85
1.37,-0.69,-0.86
1.3,-0.69,-0.82
1.28,-0.68,-0.73
1.32,-0.64,-0.67
1.39,-0.62,-0.63
1.5,-0.6,-0.58
1.55,-0.63,-0.53
1.56,-0.67,-0.53
1.55,-0.68,-0.51
1.51,-0.62,-0.52
1.45,-0.65,-0.44
1.43,-0.71,-0.38
1.47,-0.68,-0.31
1.45,-0.59,-0.24
1.45,-0.59,-0.26
1.52,-0.61,-0.26
1.62,-0.62,-0.27
1.61,-0.57,-0.25
1.57,-0.54,-0.21
1.62,-0.64,-0.16
1.58,-0.74,-0.14
1.47,-0.66,-0.16
1.31,-0.66,-0.12
1.36,-0.86,-0.13
1.26,-0.78,-0.01
1,-0.73,0.15
1.05,-0.77,0.22
1.09,-0.74,0.28
1.07,-0.79,0.23
1.05,-0.91,0.07
1.02,-1.11,-0.07
0.95,-0.98,-0.02
0.87,-0.76,0.05
0.9,-0.82,0.02
0.87,-0.85,0.27
0.52,-0.65,0.54
0.55,-0.68,0.56
0.67,-0.89,0.36
0.56,-0.8,0.27
0.47,-0.7,0.23
0.57,-0.68,0.14
0.59,-0.63,0.09
0.53,-0.55,0.13
0.48,-0.57,0.15
0.39,-0.61,0.21
0.35,-0.6,0.34
0.35,-0.58,0.38
0.37,-0.59,0.38
0.48,-0.64,0.38
0.51,-0.62,0.27
0.56,-0.67,0.1
0.78,-0.78,0.29
0.49,-0.73,0.9
-0.15,-0.7,1.36
-0.31,-0.7,1.39
0.09,-0.7,1.27
0.55,-0.74,1.26
0.63,-0.75,1.27
0.45,-0.75,1.3
0.31,-0.69,1.35
0.22,-0.65,1.06
0.34,-0.59,0.81
0.41,-0.57,0.62
0.42,-0.54,0.54
0.4,-0.53,0.53
0.41,-0.54,0.54
0.48,-0.56,0.56
0.57,-0.57,0.59
0.64,-0.57,0.62
0.68,-0.56,0.64
0.68,-0.55,0.66
0.66,-0.53,0.67
0.64,-0.53,0.66
0.6,-0.52,0.65
0.59,-0.51,0.64
0.59,-0.51,0.62
0.6,-0.5,0.61
0.6,-0.49,0.6
0.61,-0.49,0.59
0.63,-0.48,0.58
0.64,-0.47,0.57
0.67,-0.47,0.56
0.71,-0.46,0.56
0.72,-0.46,0.55
0.7,-0.46,0.56
0.7,-0.45,0.57
0.71,-0.45,0.56
0.74,-0.44,0.56
0.75,-0.45,0.55
0.77,-0.45,0.55
0.77,-0.45,0.54
0.77,-0.45,0.54
0.77,-0.46,0.54
0.77,-0.46,0.53
0.77,-0.47,0.53
0.77,-0.47,0.54
0.74,-0.48,0.55
0.71,-0.49,0.56
0.69,-0.51,0.56
0.68,-0.52,0.57
0.66,-0.52,0.58
0.65,-0.52,0.58
0.64,-0.52,0.59
0.63,-0.52,0.59
0.64,-0.52,0.59
0.64,-0.52,0.59
0.64,-0.52,0.58
0.64,-0.54,0.57
0.63,-0.54,0.56
0.64,-0.54,0.56
0.66,-0.53,0.56
0.65,-0.54,0.57
0.65,-0.54,0.58
0.65,-0.54,0.59
0.66,-0.55,0.57
0.67,-0.56,0.56
0.67,-0.56,0.56
0.65,-0.57,0.56
0.63,-0.58,0.55
0.65,-0.56,0.54
0.67,-0.55,0.57
0.68,-0.55,0.57
0.68,-0.56,0.55
0.67,-0.56,0.54
0.68,-0.56,0.52
0.69,-0.56,0.52
0.7,-0.56,0.51
0.71,-0.55,0.51
0.72,-0.55,0.51
0.72,-0.54,0.51
0.72,-0.53,0.52
0.72,-0.52,0.54
0.71,-0.51,0.55
0.69,-0.49,0.56
0.68,-0.49,0.57
0.68,-0.49,0.57
0.68,-0.49,0.57
0.68,-0.5,0.57
0.68,-0.5,0.56
0.68,-0.52,0.55
0.67,-0.53,0.55
0.67,-0.53,0.56
0.67,-0.53,0.56
0.67,-0.53,0.56
0.67,-0.53,0.56
0.67,-0.53,0.56
0.68,-0.53,0.56
0.69,-0.52,0.56
0.69,-0.52,0.55
0.69,-0.52,0.55
0.7,-0.52,0.55
0.7,-0.52,0.54
0.69,-0.52,0.54
0.69,-0.51,0.55
0.69,-0.51,0.55
0.7,-0.51,0.55
0.7,-0.51,0.55
0.7,-0.51,0.55
0.7,-0.51,0.55
0.7,-0.51,0.55
0.7,-0.5,0.55
0.7,-0.5,0.55
0.7,-0.51,0.55
0.69,-0.51,0.55
0.69,-0.5,0.55
0.69,-0.5,0.55
0.7,-0.5,0.55
0.7,-0.51,0.55
0.69,-0.51,0.55
0.69,-0.51,0.55
0.69,-0.51,0.55
0.69,-0.51,0.55
0.69,-0.51,0.55
0.69,-0.51,0.55
0.7,-0.51,0.55
0.69,-0.51,0.55
0.69,-0.51,0.55
0.69,-0.5,0.55
0.69,-0.5,0.55
0.69,-0.51,0.55
0.69,-0.51,0.55
0.69,-0.51,0.55
0.69,-0.51,0.56
0.7,-0.51,0.56
0.7,-0.51,0.55
0.69,-0.51,0.55
0.69,-0.51,0.55
0.69,-0.51,0.55
0.69,-0.51,0.55
0.69,-0.51,0.55
0.69,-0.51,0.54
0.69,-0.51,0.55
0.7,-0.51,0.55
0.7,-0.51,0.55
0.7,-0.51,0.55
0.7,-0.51,0.56
0.7,-0.5,0.55
0.7,-0.5,0.55
0.69,-0.5,0.55
0.69,-0.5,0.55
0.69,-0.51,0.55
0.69,-0.51,0.55
0.69,-0.51,0.55
0.68,-0.52,0.54
0.69,-0.52,0.55
0.69,-0.52,0.55
0.69,-0.52,0.55
0.69,-0.52,0.55
0.69,-0.51,0.55
0.69,-0.51,0.55
0.69,-0.51,0.55
0.69,-0.51,0.55
0.69,-0.51,0.55
0.69,-0.51,0.56
0.69,-0.51,0.56
0.69,-0.51,0.56
0.69,-0.51,0.56
0.69,-0.51,0.56
0.69,-0.51,0.56
0.69,-0.51,0.56
0.69,-0.51,0.55
0.69,-0.52,0.55
0.69,-0.52,0.55
0.69,-0.52,0.55
0.69,-0.52,0.54
0.69,-0.52,0.54
0.69,-0.52,0.54
0.69,-0.52,0.54
0.69,-0.52,0.54
