Acc_x,Acc_y,Acc_z
1.22,-0.69,0.77
1.26,-0.67,0.7
1.38,-0.66,0.65
1.52,-0.64,0.57
1.54,-0.62,0.55
1.46,-0.61,0.55
1.41,-0.63,0.58
1.39,-0.65,0.58
1.37,-0.65,0.51
1.36,-0.65,0.44
1.35,-0.64,0.42
1.35,-0.63,0.41
1.35,-0.64,0.39
1.36,-0.63,0.38
1.38,-0.61,0.39
1.38,-0.58,0.39
1.38,-0.58,0.38
1.38,-0.57,0.37
1.38,-0.57,0.37
1.33,-0.61,0.38
1.27,-0.63,0.4
1.22,-0.62,0.41
1.19,-0.59,0.42
1.17,-0.55,0.43
1.15,-0.47,0.43
1.1,-0.44,0.41
1.07,-0.4,0.41
1.04,-0.36,0.41
1.02,-0.32,0.45
1.01,-0.3,0.48
0.97,-0.28,0.5
0.92,-0.25,0.52
0.87,-0.22,0.54
0.82,-0.18,0.53
0.77,-0.14,0.52
0.72,-0.11,0.51
0.69,-0.09,0.5
0.65,-0.06,0.49
0.61,-0.02,0.5
0.57,0.04,0.53
0.54,0.08,0.57
0.5,0.1,0.58
0.46,0.15,0.57
0.42,0.22,0.52
0.4,0.28,0.45
0.39,0.33,0.42
0.37,0.32,0.39
0.33,0.33,0.37
0.29,0.37,0.36
0.28,0.41,0.35
0.33,0.45,0.35
0.38,0.47,0.35
0.36,0.52,0.32
0.3,0.55,0.29
0.24,0.57,0.28
0.2,0.61,0.26
0.19,0.66,0.22
0.17,0.72,0.21
0.13,0.69,0.26
0.09,0.64,0.26
0.08,0.68,0.26
0.08,0.73,0.26
0.08,0.78,0.25
0.07,0.78,0.25
0.01,0.73,0.29
-0.04,0.71,0.29
-0.06,0.72,0.27
-0.1,0.7,0.29
-0.12,0.7,0.29
-0.12,0.71,0.29
-0.13,0.67,0.31
-0.17,0.62,0.32
-0.2,0.63,0.3
-0.17,0.76,0.27
-0.2,0.73,0.24
-0.27,0.63,0.21
-0.27,0.65,0.15
-0.33,0.6,0.12
-0.35,0.61,0.09
-0.37,0.61,0.07
-0.37,0.61,0.05
-0.38,0.62,0.03
-0.41,0.62,0
-0.45,0.63,-0.04
-0.47,0.62,-0.08
-0.49,0.63,-0.1
-0.53,0.69,-0.05
-0.54,0.67,-0.05
-0.53,0.62,-0.12
-0.53,0.65,-0.11
-0.54,0.66,-0.09
-0.56,0.68,-0.09
-0.57,0.68,-0.09
-0.56,0.68,-0.09
-0.55,0.69,-0.09
-0.55,0.7,-0.08
-0.53,0.71,-0.07
-0.51,0.7,-0.07
-0.49,0.68,-0.07
-0.46,0.67,-0.07
-0.43,0.67,-0.08
-0.38,0.68,-0.06
-0.34,0.68,0
-0.22,0.68,0.03
-0.16,0.66,0.06
-0.13,0.62,0.07
-0.12,0.59,0.08
-0.12,0.57,0.08
-0.13,0.59,0.09
-0.1,0.62,0.12
-0.05,0.63,0.15
-0.01,0.61,0.17
0.02,0.58,0.18
0.06,0.54,0.19
0.07,0.48,0.21
0.12,0.44,0.23
0.16,0.45,0.26
0.21,0.46,0.29
0.24,0.43,0.33
0.22,0.4,0.36
0.23,0.38,0.4
0.21,0.31,0.43
0.24,0.27,0.43
0.26,0.3,0.45
0.33,0.31,0.47
0.35,0.34,0.52
0.37,0.37,0.59
0.37,0.35,0.67
0.4,0.33,0.78
0.51,0.31,0.78
0.56,0.37,0.79
0.59,0.44,0.85
0.61,0.45,0.95
0.62,0.42,1.05
0.64,0.39,1.11
0.68,0.36,1.13
0.73,0.4,1.06
0.8,0.48,1.02
0.83,0.51,1.05
0.82,0.49,1.12
0.83,0.44,1.23
0.82,0.39,1.33
0.82,0.35,1.39
0.78,0.34,1.44
0.74,0.42,1.45
0.74,0.51,1.32
0.75,0.59,1.15
0.75,0.65,1.08
0.73,0.68,1.1
0.64,0.67,1.21
0.61,0.63,1.34
0.6,0.59,1.46
0.58,0.55,1.57
0.59,0.53,1.6
0.57,0.51,1.58
0.51,0.49,1.58
0.49,0.46,1.63
0.45,0.44,1.69
0.44,0.41,1.76
0.43,0.39,1.79
0.38,0.35,1.78
0.36,0.34,1.7
0.33,0.37,1.58
0.3,0.37,1.49
0.31,0.35,1.43
0.39,0.34,1.47
0.45,0.32,1.57
0.46,0.3,1.67
0.46,0.27,1.68
0.42,0.26,1.62
0.36,0.25,1.55
0.3,0.22,1.47
0.24,0.23,1.39
0.2,0.26,1.33
0.2,0.25,1.29
0.21,0.23,1.28
0.22,0.21,1.29
0.21,0.18,1.29
0.19,0.18,1.28
0.2,0.18,1.28
0.18,0.18,1.27
0.11,0.24,1.25
0.07,0.25,1.22
0.07,0.26,1.19
0.09,0.27,1.17
0.11,0.28,1.14
0.11,0.3,1.11
0.1,0.32,1.11
0.1,0.32,1.12
0.1,0.33,1.11
0.07,0.34,1.07
0.05,0.36,0.98
0.06,0.41,0.87
0.08,0.42,0.78
0.12,0.45,0.77
0.12,0.43,0.82
0.09,0.36,0.88
0.08,0.3,0.91
0.09,0.3,0.89
0.13,0.34,0.8
0.14,0.4,0.74
0.12,0.4,0.7
0.07,0.4,0.7
-0.01,0.43,0.7
-0.02,0.42,0.67
-0.02,0.45,0.6
-0.01,0.51,0.52
-0.07,0.53,0.47
-0.07,0.53,0.45
-0.08,0.49,0.4
-0.08,0.55,0.35
-0.08,0.59,0.31
-0.07,0.55,0.27
-0.06,0.57,0.25
-0.06,0.6,0.23
-0.06,0.61,0.22
-0.07,0.6,0.18
-0.07,0.58,0.14
-0.1,0.53,0.12
-0.15,0.51,0.12
-0.19,0.58,0.14
-0.23,0.6,0.15
-0.24,0.6,0.11
-0.23,0.63,0.06
-0.24,0.69,-0.01
-0.28,0.7,-0.08
-0.3,0.7,-0.11
-0.32,0.7,-0.12
-0.34,0.69,-0.17
-0.36,0.68,-0.25
-0.36,0.69,-0.32
-0.35,0.69,-0.38
-0.33,0.67,-0.42
-0.31,0.67,-0.51
-0.34,0.66,-0.54
-0.35,0.62,-0.57
-0.34,0.63,-0.63
-0.31,0.65,-0.72
-0.31,0.63,-0.76
-0.33,0.61,-0.8
-0.37,0.63,-0.8
-0.41,0.66,-0.76
-0.4,0.65,-0.73
-0.4,0.64,-0.71
-0.4,0.66,-0.7
-0.39,0.69,-0.68
-0.38,0.7,-0.65
-0.38,0.68,-0.59
-0.37,0.66,-0.54
-0.36,0.63,-0.5
-0.35,0.61,-0.46
-0.34,0.6,-0.42
-0.33,0.59,-0.39
-0.32,0.58,-0.37
-0.31,0.59,-0.35
-0.3,0.6,-0.34
-0.29,0.6,-0.32
-0.28,0.6,-0.29
-0.26,0.58,-0.25
-0.25,0.55,-0.17
-0.22,0.54,-0.12
-0.2,0.53,-0.07
-0.17,0.53,-0.01
-0.15,0.54,0.05
-0.13,0.53,0.09
-0.12,0.5,0.13
-0.11,0.47,0.16
-0.09,0.45,0.19
-0.04,0.45,0.21
0.01,0.44,0.23
0.06,0.4,0.27
0.12,0.35,0.32
0.15,0.3,0.36
0.16,0.27,0.39
0.18,0.29,0.41
0.22,0.31,0.44
0.28,0.3,0.47
0.33,0.29,0.54
0.37,0.25,0.63
0.43,0.25,0.71
0.49,0.27,0.81
0.53,0.3,0.89
0.57,0.3,0.99
0.61,0.26,1.09
0.63,0.23,1.16
0.66,0.3,1.24
0.79,0.32,1.27
0.83,0.35,1.33
0.85,0.35,1.4
0.84,0.34,1.43
0.82,0.35,1.46
0.81,0.38,1.47
0.82,0.38,1.45
0.83,0.39,1.43
0.83,0.42,1.44
0.83,0.43,1.46
0.83,0.44,1.48
0.83,0.44,1.52
0.81,0.46,1.55
0.8,0.47,1.57
0.81,0.5,1.59
0.84,0.51,1.62
0.86,0.49,1.65
0.88,0.45,1.68
0.91,0.43,1.7
0.93,0.42,1.71
0.94,0.4,1.71
0.95,0.4,1.69
0.95,0.38,1.68
0.94,0.37,1.67
0.91,0.36,1.67
0.9,0.35,1.6
0.89,0.35,1.56
0.87,0.34,1.55
0.85,0.34,1.54
0.84,0.36,1.53
0.82,0.4,1.55
0.8,0.39,1.58
0.77,0.33,1.6
0.75,0.25,1.58
0.74,0.2,1.51
0.73,0.18,1.44
0.72,0.18,1.4
0.69,0.18,1.39
0.67,0.17,1.38
0.66,0.16,1.36
0.65,0.14,1.33
0.65,0.12,1.26
0.65,0.1,1.2
0.64,0.07,1.14
0.61,0.05,1.07
0.59,0.03,1.01
0.57,0.02,0.95
0.55,0.02,0.88
0.55,0.01,0.81
0.53,0.01,0.74
0.48,0.03,0.68
0.42,0.04,0.52
0.31,0.11,0.45
0.28,0.12,0.37
0.27,0.12,0.33
0.22,0.11,0.3
0.16,0.13,0.24
0.1,0.2,0.16
0.04,0.29,0.09
-0.01,0.36,0.03
-0.06,0.39,-0.03
-0.12,0.41,-0.08
-0.21,0.45,-0.12
-0.27,0.46,-0.16
-0.29,0.47,-0.21
-0.3,0.49,-0.26
-0.33,0.5,-0.32
-0.36,0.49,-0.37
-0.39,0.51,-0.41
-0.41,0.53,-0.43
-0.44,0.55,-0.46
-0.48,0.58,-0.5
-0.5,0.59,-0.53
-0.52,0.59,-0.56
-0.53,0.61,-0.57
-0.54,0.63,-0.58
-0.53,0.64,-0.58
-0.52,0.64,-0.6
-0.52,0.68,-0.6
-0.53,0.71,-0.58
-0.52,0.71,-0.56
-0.51,0.7,-0.54
-0.5,0.71,-0.51
-0.49,0.71,-0.49
-0.47,0.71,-0.46
-0.43,0.69,-0.44
-0.39,0.68,-0.43
-0.36,0.65,-0.41
-0.32,0.63,-0.38
-0.28,0.61,-0.36
-0.25,0.6,-0.35
-0.22,0.61,-0.33
-0.19,0.62,-0.31
-0.16,0.62,-0.28
-0.13,0.61,-0.24
-0.1,0.6,-0.18
-0.05,0.59,-0.14
-0.01,0.58,-0.09
0.01,0.55,-0.03
0.03,0.5,0.02
0.04,0.46,0.07
0.06,0.44,0.14
0.1,0.43,0.22
0.13,0.42,0.35
0.19,0.4,0.43
0.21,0.38,0.5
0.24,0.33,0.56
0.24,0.3,0.6
0.24,0.26,0.61
0.24,0.25,0.62
0.28,0.26,0.66
0.34,0.25,0.7
0.4,0.25,0.72
0.45,0.26,0.74
0.49,0.24,0.76
0.51,0.21,0.78
0.5,0.18,0.81
0.54,0.15,0.82
0.56,0.15,0.87
0.57,0.16,0.93
0.62,0.13,0.98
0.69,0.08,1.04
0.74,0.05,1.1
0.79,0.06,1.13
0.83,0.07,1.13
0.84,0.1,1.12
0.86,0.16,1.13
0.86,0.18,1.18
0.83,0.17,1.24
0.83,0.16,1.25
0.91,0.15,1.2
0.91,0.14,1.18
0.87,0.16,1.21
0.84,0.18,1.29
0.83,0.19,1.36
0.83,0.19,1.39
0.85,0.17,1.38
0.86,0.14,1.37
0.87,0.1,1.35
0.85,0.08,1.35
0.78,0.11,1.4
0.74,0.16,1.44
0.74,0.18,1.46
0.73,0.19,1.46
0.69,0.17,1.46
0.65,0.15,1.46
0.61,0.15,1.47
0.59,0.16,1.5
0.59,0.16,1.53
0.57,0.15,1.55
0.56,0.13,1.56
0.57,0.11,1.57
0.58,0.1,1.58
0.59,0.1,1.57
0.59,0.09,1.56
0.6,0.09,1.55
0.63,0.07,1.54
0.61,0.07,1.53
0.59,0.07,1.51
0.59,0.08,1.5
0.59,0.08,1.48
0.6,0.08,1.46
0.59,0.09,1.46
0.59,0.11,1.45
0.59,0.12,1.45
0.61,0.13,1.44
0.63,0.14,1.42
0.65,0.13,1.37
0.66,0.12,1.32
0.64,0.13,1.27
0.64,0.15,1.22
0.65,0.19,1.2
0.62,0.21,1.2
0.6,0.21,1.21
0.61,0.19,1.21
0.62,0.17,1.2
0.59,0.13,1.16
0.55,0.1,1.12
0.51,0.09,1.06
0.49,0.1,1.03
0.48,0.12,1.03
0.47,0.14,1.03
0.44,0.1,1.01
0.35,0.1,0.98
0.31,0.14,0.94
0.3,0.18,0.89
0.29,0.22,0.85
0.29,0.24,0.84
0.27,0.24,0.84
0.25,0.24,0.86
0.25,0.23,0.84
0.24,0.22,0.8
0.21,0.22,0.77
0.18,0.25,0.75
0.21,0.32,0.72
0.27,0.38,0.73
0.36,0.39,0.81
0.4,0.34,0.92
0.36,0.23,0.95
0.35,0.11,0.88
0.31,0.1,0.7
0.2,0.15,0.5
0.1,0.21,0.36
0.04,0.34,0.3
0.03,0.41,0.29
0,0.4,0.26
-0.08,0.42,0.22
-0.15,0.44,0.13
-0.21,0.46,-0.07
-0.31,0.44,-0.15
-0.38,0.48,-0.22
-0.42,0.53,-0.24
-0.43,0.54,-0.24
-0.46,0.52,-0.23
-0.5,0.51,-0.23
-0.52,0.47,-0.26
-0.54,0.46,-0.31
-0.55,0.49,-0.35
-0.56,0.53,-0.35
-0.59,0.56,-0.33
-0.62,0.56,-0.29
-0.63,0.56,-0.31
-0.63,0.57,-0.42
-0.63,0.58,-0.53
-0.62,0.57,-0.61
-0.65,0.56,-0.63
-0.67,0.59,-0.63
-0.67,0.63,-0.63
-0.66,0.67,-0.64
-0.63,0.68,-0.64
-0.59,0.67,-0.64
-0.55,0.65,-0.63
-0.53,0.64,-0.6
-0.53,0.64,-0.58
-0.52,0.64,-0.52
-0.46,0.64,-0.48
-0.42,0.64,-0.45
-0.38,0.64,-0.41
-0.35,0.64,-0.39
-0.33,0.62,-0.35
-0.31,0.61,-0.32
-0.28,0.61,-0.28
-0.24,0.59,-0.24
-0.21,0.58,-0.21
-0.18,0.57,-0.16
-0.15,0.55,-0.11
-0.13,0.53,-0.07
-0.11,0.5,-0.03
-0.07,0.49,0
-0.04,0.47,0.06
0,0.44,0.11
0.01,0.44,0.13
0,0.46,0.14
0.01,0.47,0.18
0.04,0.43,0.24
0.08,0.37,0.3
0.11,0.33,0.33
0.14,0.33,0.35
0.17,0.33,0.39
0.19,0.32,0.47
0.2,0.27,0.6
0.3,0.26,0.59
0.35,0.3,0.58
0.39,0.34,0.62
0.42,0.31,0.72
0.45,0.23,0.83
0.47,0.15,0.88
0.49,0.12,0.87
0.52,0.14,0.84
0.57,0.17,0.84
0.62,0.19,0.91
0.63,0.2,1.03
0.62,0.19,1.12
0.63,0.19,1.15
0.65,0.18,1.15
0.66,0.16,1.15
0.68,0.15,1.15
0.73,0.14,1.18
0.77,0.16,1.25
0.78,0.16,1.36
0.78,0.12,1.47
0.76,0.08,1.53
0.73,0.06,1.53
0.71,0.08,1.46
0.7,0.13,1.42
0.73,0.18,1.42
0.77,0.21,1.52
0.76,0.2,1.55
0.72,0.19,1.54
0.71,0.19,1.51
0.72,0.22,1.5
0.75,0.24,1.51
0.76,0.25,1.54
0.78,0.26,1.59
0.81,0.26,1.61
0.82,0.26,1.63
0.82,0.25,1.66
0.81,0.23,1.68
0.81,0.22,1.69
0.83,0.19,1.69
0.86,0.17,1.68
0.86,0.15,1.65
0.84,0.14,1.62
0.82,0.14,1.61
0.81,0.15,1.6
0.79,0.16,1.61
0.77,0.17,1.63
0.74,0.16,1.64
0.7,0.16,1.61
0.68,0.17,1.57
0.65,0.16,1.54
0.63,0.16,1.52
0.61,0.14,1.47
0.58,0.11,1.43
0.56,0.1,1.37
0.54,0.08,1.31
0.51,0.09,1.25
0.5,0.12,1.22
0.48,0.15,1.21
0.47,0.16,1.22
0.46,0.17,1.22
0.47,0.17,1.2
0.48,0.16,1.17
0.47,0.16,1.14
0.45,0.15,1.11
0.45,0.16,1.07
0.46,0.18,1.03
0.46,0.19,0.99
0.46,0.18,0.96
0.45,0.17,0.93
0.43,0.15,0.87
0.41,0.16,0.79
0.4,0.22,0.75
0.42,0.25,0.74
0.41,0.25,0.75
0.37,0.24,0.72
0.35,0.26,0.64
0.38,0.31,0.56
0.38,0.3,0.47
0.29,0.29,0.41
0.28,0.33,0.36
0.25,0.35,0.33
0.23,0.38,0.3
0.21,0.41,0.28
0.18,0.41,0.23
0.14,0.44,0.21
0.09,0.46,0.22
0.06,0.44,0.19
0.01,0.44,0.14
-0.03,0.46,0.1
-0.06,0.48,0.02
-0.09,0.52,-0.05
-0.12,0.57,-0.1
-0.14,0.61,-0.13
-0.18,0.65,-0.12
-0.22,0.68,-0.1
-0.23,0.69,-0.1
-0.22,0.66,-0.12
-0.21,0.62,-0.18
-0.23,0.6,-0.26
-0.25,0.64,-0.33
-0.26,0.68,-0.38
-0.27,0.71,-0.42
-0.31,0.73,-0.44
-0.33,0.73,-0.47
-0.34,0.67,-0.5
-0.36,0.64,-0.53
-0.37,0.61,-0.58
-0.39,0.61,-0.63
-0.41,0.63,-0.68
-0.42,0.67,-0.69
-0.42,0.7,-0.67
-0.42,0.71,-0.66
-0.42,0.71,-0.64
-0.41,0.69,-0.63
-0.39,0.68,-0.61
-0.37,0.67,-0.58
-0.34,0.67,-0.54
-0.31,0.67,-0.5
-0.28,0.67,-0.47
-0.26,0.67,-0.43
-0.22,0.67,-0.39
-0.19,0.65,-0.34
-0.17,0.63,-0.31
-0.15,0.61,-0.3
-0.13,0.59,-0.29
-0.12,0.58,-0.28
-0.1,0.57,-0.27
-0.06,0.56,-0.26
-0.03,0.56,-0.2
-0.01,0.53,-0.01
0,0.43,0.05
0.01,0.42,0.06
0.01,0.45,0.07
0.05,0.48,0.1
0.08,0.47,0.16
0.08,0.44,0.27
0.09,0.39,0.38
0.1,0.33,0.47
0.1,0.32,0.5
0.1,0.39,0.5
0.13,0.47,0.5
0.18,0.49,0.53
0.22,0.48,0.6
0.24,0.44,0.69
0.26,0.36,0.75
0.29,0.33,0.77
0.29,0.36,0.75
0.31,0.4,0.74
0.35,0.46,0.77
0.4,0.48,0.85
0.44,0.46,0.93
0.46,0.44,0.98
0.48,0.4,1
0.51,0.36,0.98
0.5,0.32,0.95
0.48,0.3,0.95
0.46,0.4,0.98
0.48,0.45,1.04
0.49,0.44,1.12
0.48,0.37,1.21
0.47,0.29,1.28
0.5,0.21,1.31
0.58,0.17,1.28
0.61,0.25,1.21
0.64,0.37,1.19
0.67,0.43,1.26
0.64,0.44,1.39
0.63,0.41,1.49
0.65,0.4,1.5
0.67,0.41,1.46
0.68,0.45,1.42
0.71,0.49,1.38
0.72,0.51,1.39
0.72,0.49,1.47
0.74,0.43,1.54
0.77,0.38,1.57
0.81,0.36,1.59
0.84,0.37,1.62
0.86,0.39,1.64
0.89,0.4,1.66
0.91,0.42,1.68
0.91,0.42,1.71
0.89,0.38,1.8
0.85,0.39,1.77
0.84,0.42,1.73
0.83,0.43,1.71
0.79,0.41,1.71
0.76,0.38,1.71
0.73,0.36,1.69
0.69,0.35,1.62
0.67,0.36,1.56
0.62,0.38,1.52
0.55,0.39,1.49
0.5,0.37,1.49
0.47,0.35,1.47
0.46,0.35,1.41
0.47,0.33,1.39
0.46,0.28,1.38
0.42,0.22,1.37
0.38,0.18,1.31
0.33,0.16,1.22
0.34,0.15,1.13
0.39,0.16,1.08
0.41,0.14,1.07
0.41,0.11,1.08
0.41,0.12,1.07
0.41,0.14,1.08
0.41,0.15,0.99
0.41,0.14,0.9
0.39,0.14,0.83
0.41,0.18,0.77
0.41,0.21,0.74
0.4,0.26,0.73
0.37,0.3,0.76
0.35,0.27,0.76
0.32,0.24,0.68
0.31,0.23,0.59
0.29,0.26,0.51
0.25,0.29,0.43
0.22,0.32,0.37
0.21,0.42,0.36
0.19,0.5,0.36
0.19,0.53,0.35
0.16,0.53,0.35
0.08,0.52,0.33
0.01,0.57,0.26
0,0.62,0.16
0,0.67,0.1
0.02,0.63,0.12
0.02,0.55,0.14
-0.01,0.52,0.16
-0.03,0.52,0.14
-0.05,0.55,0.09
-0.07,0.59,0.03
-0.11,0.58,-0.14
-0.17,0.57,-0.22
-0.22,0.58,-0.25
-0.23,0.55,-0.29
-0.24,0.53,-0.33
-0.28,0.54,-0.37
-0.28,0.55,-0.41
-0.29,0.55,-0.48
-0.31,0.56,-0.54
-0.34,0.58,-0.57
-0.36,0.59,-0.57
-0.38,0.59,-0.55
-0.41,0.59,-0.54
-0.42,0.6,-0.53
-0.43,0.61,-0.52
-0.44,0.62,-0.5
-0.46,0.63,-0.49
-0.46,0.64,-0.47
-0.47,0.65,-0.45
-0.48,0.66,-0.43
-0.48,0.66,-0.4
-0.46,0.65,-0.38
-0.43,0.65,-0.35
-0.39,0.64,-0.32
-0.35,0.64,-0.28
-0.32,0.65,-0.26
-0.29,0.65,-0.18
-0.24,0.64,-0.13
-0.2,0.63,-0.06
-0.16,0.61,0
-0.11,0.58,0.07
-0.07,0.57,0.12
-0.04,0.55,0.15
0,0.53,0.19
0.03,0.51,0.23
0.05,0.49,0.3
0.06,0.48,0.38
0.07,0.47,0.45
0.07,0.45,0.51
0.07,0.44,0.53
0.09,0.43,0.54
0.13,0.42,0.56
0.16,0.41,0.59
0.18,0.42,0.64
0.18,0.43,0.69
0.18,0.45,0.74
0.19,0.44,0.75
0.21,0.41,0.72
0.21,0.4,0.69
0.2,0.43,0.71
0.22,0.43,0.79
0.22,0.42,0.88
0.21,0.43,1.05
0.24,0.44,1.09
0.26,0.4,1.09
0.27,0.36,1.04
0.28,0.34,0.95
0.33,0.35,0.88
0.41,0.33,0.89
0.47,0.29,0.96
0.5,0.24,1.05
0.53,0.17,1.1
0.59,0.12,1.1
0.67,0.1,1.06
0.74,0.08,0.99
0.77,0.11,0.92
0.76,0.14,0.92
0.74,0.14,1
0.7,0.16,1.12
0.7,0.15,1.21
0.72,0.13,1.23
0.74,0.12,1.2
0.74,0.13,1.14
0.74,0.16,1.11
0.71,0.15,1.18
0.67,0.15,1.31
0.64,0.15,1.41
0.66,0.17,1.43
0.7,0.2,1.42
0.72,0.23,1.49
0.71,0.25,1.6
0.72,0.26,1.7
0.76,0.25,1.78
0.8,0.23,1.81
0.84,0.22,1.82
0.86,0.22,1.84
0.87,0.2,1.89
0.89,0.18,1.92
0.89,0.15,1.92
0.87,0.12,1.9
0.86,0.1,1.87
0.82,0.09,1.82
0.76,0.09,1.75
0.72,0.1,1.72
0.72,0.09,1.74
0.73,0.07,1.78
0.73,0.06,1.77
0.7,0.02,1.74
0.66,-0.01,1.68
0.61,0,1.58
0.58,0.03,1.53
0.55,0.03,1.52
0.51,0.04,1.51
0.49,0.02,1.47
0.51,0,1.31
0.52,-0.04,1.25
0.51,-0.06,1.23
0.48,-0.08,1.18
0.45,-0.06,1.12
0.44,-0.04,1.05
0.4,-0.04,0.95
0.36,-0.02,0.85
0.33,0.01,0.78
0.31,0.02,0.75
0.31,0.03,0.74
0.32,0.06,0.72
0.29,0.08,0.69
0.27,0.1,0.64
0.26,0.16,0.59
0.25,0.19,0.58
0.22,0.2,0.57
0.2,0.23,0.56
0.18,0.27,0.51
0.15,0.28,0.45
0.15,0.31,0.42
0.15,0.34,0.4
0.15,0.37,0.38
0.15,0.4,0.37
0.15,0.44,0.35
0.14,0.45,0.32
0.11,0.46,0.26
0.07,0.44,0.17
0.06,0.44,0.06
0.03,0.48,-0.01
0.04,0.51,-0.03
0.02,0.5,-0.04
0,0.51,-0.08
-0.01,0.52,-0.15
-0.03,0.54,-0.22
-0.06,0.55,-0.27
-0.1,0.55,-0.32
-0.16,0.57,-0.4
-0.21,0.6,-0.47
-0.24,0.62,-0.5
-0.25,0.64,-0.52
-0.25,0.67,-0.54
-0.25,0.68,-0.55
-0.26,0.67,-0.56
-0.29,0.67,-0.58
-0.33,0.7,-0.6
-0.36,0.72,-0.62
-0.42,0.75,-0.62
-0.46,0.8,-0.61
-0.45,0.81,-0.59
-0.47,0.83,-0.57
-0.49,0.84,-0.55
-0.49,0.85,-0.52
-0.41,0.83,-0.45
-0.36,0.82,-0.41
-0.31,0.8,-0.36
-0.28,0.79,-0.32
-0.25,0.77,-0.31
-0.21,0.75,-0.28
-0.17,0.71,-0.24
-0.14,0.69,-0.22
-0.11,0.68,-0.18
-0.09,0.69,-0.13
-0.07,0.69,-0.06
-0.07,0.7,0
-0.08,0.71,0.02
-0.07,0.7,0.03
-0.04,0.68,0.03
0,0.66,0.04
0.03,0.62,0.07
0.06,0.59,0.09
0.09,0.58,0.12
0.1,0.58,0.16
0.11,0.58,0.19
0.11,0.57,0.2
0.1,0.56,0.22
0.12,0.52,0.25
0.14,0.5,0.28
0.17,0.5,0.3
0.19,0.49,0.37
0.24,0.45,0.41
0.26,0.41,0.43
0.28,0.39,0.44
0.26,0.39,0.45
0.24,0.4,0.49
0.25,0.4,0.55
0.27,0.37,0.61
0.29,0.35,0.65
0.3,0.31,0.66
0.34,0.29,0.66
0.35,0.28,0.66
0.35,0.27,0.69
0.36,0.28,0.75
0.35,0.28,0.82
0.35,0.27,0.9
0.36,0.25,0.96
0.37,0.21,0.98
0.39,0.16,0.98
0.42,0.12,0.98
0.43,0.1,0.98
0.42,0.12,1.01
0.43,0.15,1.08
0.46,0.15,1.17
0.48,0.14,1.24
0.49,0.1,1.26
0.48,0.01,1.26
0.49,0,1.24
0.51,0.06,1.25
0.52,0.09,1.3
0.53,0.09,1.38
0.53,0.06,1.47
0.52,0.04,1.53
0.53,0.03,1.58
0.57,0.01,1.62
0.6,0,1.67
0.62,0,1.76
0.65,0.02,1.87
0.65,0.02,1.99
0.61,0.07,2.1
0.5,0.13,2.08
0.39,0.17,1.99
0.41,0.15,1.95
0.54,0.07,2.02
0.64,0.01,2.13
0.67,-0.01,2.18
0.64,-0.03,2.15
0.62,0,2.06
0.61,0.03,1.95
0.61,0.04,1.86
0.62,0.04,1.83
0.62,0.02,1.81
0.62,-0.03,1.68
0.59,-0.05,1.59
0.56,-0.04,1.5
0.53,-0.01,1.41
0.52,0.01,1.38
0.51,0.01,1.4
0.48,-0.01,1.4
0.47,-0.03,1.37
0.47,-0.03,1.29
0.46,-0.01,1.19
0.42,0.04,1.13
0.36,0.08,1.12
0.31,0.08,1.13
0.28,0.07,1.12
0.29,0.08,1.05
0.31,0.14,0.96
0.33,0.14,0.95
0.31,0.09,0.98
0.26,0.09,0.98
0.22,0.14,0.89
0.2,0.18,0.76
0.19,0.2,0.71
0.21,0.22,0.74
0.22,0.22,0.79
0.21,0.22,0.82
0.18,0.23,0.81
0.17,0.26,0.72
0.17,0.29,0.67
0.14,0.32,0.62
0.11,0.31,0.55
0.09,0.34,0.51
0.08,0.39,0.49
0.1,0.41,0.42
0.11,0.45,0.37
0.1,0.48,0.35
0.07,0.47,0.34
0.05,0.48,0.33
0.03,0.56,0.31
0.02,0.61,0.28
0.04,0.61,0.25
0.02,0.63,0.24
0.01,0.61,0.27
-0.01,0.6,0.26
-0.05,0.65,0.21
-0.05,0.67,0.19
-0.04,0.66,0.19
-0.03,0.64,0.16
-0.01,0.62,0.11
-0.02,0.6,0.06
-0.03,0.56,0.02
-0.05,0.55,-0.01
-0.1,0.61,-0.06
-0.12,0.65,-0.23
-0.14,0.66,-0.23
-0.17,0.66,-0.28
-0.17,0.67,-0.31
-0.19,0.66,-0.31
-0.23,0.64,-0.34
-0.27,0.65,-0.41
-0.32,0.66,-0.49
-0.36,0.67,-0.55
-0.41,0.69,-0.6
-0.46,0.7,-0.69
-0.5,0.69,-0.77
-0.53,0.69,-0.8
-0.54,0.69,-0.8
-0.55,0.69,-0.82
-0.56,0.69,-0.84
-0.55,0.7,-0.83
-0.53,0.7,-0.79
-0.51,0.7,-0.76
-0.48,0.7,-0.73
-0.45,0.71,-0.69
-0.43,0.71,-0.65
-0.4,0.71,-0.62
-0.37,0.69,-0.57
-0.33,0.66,-0.51
-0.3,0.64,-0.46
-0.25,0.61,-0.42
-0.18,0.53,-0.42
-0.14,0.5,-0.43
-0.11,0.47,-0.45
-0.11,0.46,-0.46
-0.12,0.46,-0.45
-0.12,0.47,-0.44
-0.1,0.49,-0.42
-0.08,0.5,-0.41
-0.06,0.48,-0.4
-0.04,0.45,-0.38
-0.01,0.42,-0.34
0.02,0.4,-0.26
0.03,0.37,-0.15
0.05,0.32,-0.05
0.07,0.25,0.07
0.1,0.18,0.16
0.14,0.13,0.22
0.18,0.1,0.29
0.21,0.09,0.4
0.24,0.07,0.55
0.28,0.03,0.7
0.28,-0.02,0.83
0.25,-0.06,0.9
0.23,-0.05,0.93
0.22,-0.01,0.93
0.28,0,1.01
0.38,0.08,1.09
0.43,0.09,1.15
0.47,0.12,1.2
0.52,0.13,1.25
0.53,0.15,1.31
0.51,0.14,1.33
0.58,0.14,1.32
0.72,0.18,1.29
0.84,0.21,1.3
0.86,0.2,1.4
0.8,0.17,1.54
0.72,0.17,1.67
0.68,0.17,1.73
0.67,0.15,1.71
0.67,0.09,1.65
0.66,0.04,1.6
0.65,0.03,1.6
0.67,0.03,1.6
0.69,0.04,1.63
0.69,0.02,1.65
0.67,0.02,1.62
0.63,0.05,1.6
0.59,0.08,1.61
0.57,0.1,1.62
0.59,0.12,1.63
0.63,0.13,1.69
0.68,0.13,1.79
0.68,0.12,1.95
0.68,0.11,2.06
0.7,0.11,2.09
0.73,0.12,2.05
0.76,0.11,1.99
0.76,0.1,1.97
0.75,0.09,1.96
0.76,0.08,1.98
0.8,0.06,2.02
0.82,0.02,2.03
0.83,-0.02,2
0.81,-0.04,1.9
0.77,-0.04,1.78
0.74,-0.02,1.68
0.72,-0.01,1.62
0.7,-0.03,1.58
0.68,-0.04,1.56
0.67,-0.06,1.52
0.66,-0.07,1.46
0.63,-0.06,1.36
0.59,-0.05,1.3
0.57,-0.08,1.28
0.54,-0.09,1.22
0.49,-0.06,1.14
0.47,-0.02,1.04
0.47,0.02,1.06
0.48,0.03,1.07
0.5,0.04,1.06
0.5,0.06,1.02
0.49,0.07,0.96
0.46,0.07,0.92
0.41,0.08,0.86
0.36,0.11,0.79
0.36,0.13,0.75
0.38,0.12,0.74
0.39,0.1,0.72
0.39,0.11,0.7
0.39,0.1,0.68
0.37,0.11,0.63
0.34,0.14,0.56
0.31,0.2,0.47
0.26,0.3,0.4
0.23,0.38,0.38
0.2,0.36,0.38
0.16,0.34,0.4
0.11,0.36,0.37
0.1,0.38,0.31
0.11,0.4,0.27
0.08,0.4,0.22
0.04,0.39,0.16
-0.01,0.41,0.12
-0.07,0.49,0.06
-0.13,0.48,0.06
-0.13,0.43,0.05
-0.1,0.36,0.01
-0.09,0.34,-0.07
-0.1,0.39,-0.2
-0.07,0.44,-0.31
-0.08,0.44,-0.4
-0.16,0.45,-0.47
-0.26,0.45,-0.54
-0.36,0.48,-0.62
-0.45,0.56,-0.67
-0.49,0.62,-0.71
-0.52,0.63,-0.76
-0.54,0.61,-0.8
-0.58,0.62,-0.85
-0.63,0.64,-0.88
-0.64,0.63,-0.89
-0.67,0.64,-0.9
-0.7,0.65,-0.88
-0.72,0.67,-0.88
-0.73,0.68,-0.88
-0.72,0.69,-0.84
-0.68,0.67,-0.8
-0.64,0.66,-0.76
-0.6,0.65,-0.72
-0.56,0.63,-0.63
-0.45,0.64,-0.6
-0.42,0.65,-0.58
-0.39,0.65,-0.55
-0.37,0.65,-0.52
-0.34,0.66,-0.48
-0.32,0.68,-0.46
-0.29,0.69,-0.44
-0.25,0.7,-0.41
-0.22,0.69,-0.38
-0.17,0.67,-0.37
-0.12,0.64,-0.36
-0.06,0.61,-0.35
-0.02,0.58,-0.33
-0.01,0.55,-0.31
0.01,0.52,-0.27
0.03,0.49,-0.23
0.05,0.48,-0.18
0.07,0.47,-0.13
0.1,0.44,-0.07
0.12,0.41,0
0.14,0.4,0.06
0.17,0.36,0.1
0.19,0.32,0.14
0.2,0.3,0.18
0.21,0.3,0.26
0.21,0.27,0.45
0.25,0.27,0.55
0.28,0.26,0.62
0.31,0.24,0.65
0.33,0.2,0.67
0.33,0.2,0.7
0.34,0.22,0.74
0.35,0.23,0.79
0.37,0.22,0.83
0.4,0.22,0.86
0.44,0.23,0.87
0.49,0.2,0.89
0.51,0.15,0.93
0.52,0.11,1.03
0.54,0.07,1.12
0.57,0.09,1.21
0.63,0.17,1.28
0.73,0.23,1.34
0.8,0.23,1.42
0.84,0.19,1.48
0.83,0.14,1.52
0.78,0.14,1.49
0.77,0.21,1.39
0.79,0.31,1.3
0.81,0.4,1.27
0.78,0.46,1.31
0.76,0.38,1.39
0.74,0.35,1.38
0.74,0.34,1.37
0.75,0.33,1.36
0.79,0.31,1.39
0.84,0.29,1.41
0.87,0.26,1.42
0.87,0.21,1.43
0.87,0.18,1.43
0.88,0.19,1.44
0.89,0.19,1.49
0.92,0.17,1.52
0.96,0.16,1.51
0.98,0.18,1.51
0.98,0.15,1.53
0.96,0.11,1.55
0.93,0.11,1.57
0.9,0.12,1.58
0.87,0.13,1.58
0.86,0.15,1.56
0.86,0.17,1.56
0.88,0.14,1.56
0.87,0.08,1.58
0.85,0.05,1.57
0.83,0.06,1.49
0.79,0.09,1.4
0.76,0.14,1.35
0.7,0.11,1.37
0.66,0.1,1.33
0.62,0.11,1.26
0.59,0.12,1.19
0.56,0.12,1.14
0.53,0.13,1.11
0.48,0.14,1.07
0.43,0.16,1.03
0.4,0.19,0.98
0.39,0.23,0.95
0.39,0.27,0.95
0.39,0.29,0.93
0.35,0.3,0.9
0.32,0.28,0.91
0.3,0.25,0.9
0.29,0.26,0.85
0.3,0.35,0.76
0.31,0.51,0.71
0.35,0.57,0.73
0.41,0.48,0.76
0.41,0.4,0.78
0.37,0.36,0.79
0.39,0.35,0.77
0.42,0.38,0.73
0.4,0.45,0.67
0.37,0.49,0.59
0.33,0.45,0.61
0.33,0.45,0.65
0.33,0.43,0.68
0.32,0.41,0.67
0.3,0.43,0.63
0.27,0.48,0.58
0.26,0.52,0.55
0.23,0.55,0.55
0.18,0.58,0.52
0.15,0.57,0.5
0.14,0.56,0.51
0.12,0.56,0.51
0.08,0.61,0.49
0.04,0.71,0.47
0.04,0.81,0.48
0.06,0.79,0.47
0.06,0.73,0.44
0.02,0.69,0.41
0.01,0.64,0.36
-0.01,0.63,0.32
-0.06,0.66,0.28
-0.11,0.71,0.25
-0.13,0.73,0.2
-0.13,0.7,0.13
-0.14,0.67,0.07
-0.14,0.64,0.01
-0.15,0.58,-0.05
-0.22,0.6,-0.14
-0.3,0.62,-0.22
-0.36,0.65,-0.28
-0.38,0.67,-0.31
-0.38,0.65,-0.34
-0.36,0.61,-0.39
-0.35,0.6,-0.43
-0.37,0.61,-0.46
-0.42,0.63,-0.49
-0.48,0.66,-0.52
-0.51,0.7,-0.55
-0.53,0.73,-0.58
-0.55,0.75,-0.59
-0.55,0.74,-0.59
-0.54,0.71,-0.58
-0.54,0.7,-0.57
-0.53,0.7,-0.57
-0.53,0.7,-0.56
-0.53,0.7,-0.55
-0.52,0.71,-0.54
-0.51,0.73,-0.52
-0.49,0.74,-0.51
-0.46,0.74,-0.49
-0.44,0.74,-0.46
-0.41,0.73,-0.41
-0.37,0.71,-0.4
-0.34,0.71,-0.39
-0.31,0.72,-0.37
-0.28,0.72,-0.37
-0.26,0.71,-0.36
-0.24,0.71,-0.34
-0.22,0.69,-0.3
-0.2,0.67,-0.27
-0.19,0.64,-0.24
-0.18,0.61,-0.23
-0.15,0.6,-0.23
-0.1,0.59,-0.21
-0.06,0.57,-0.17
-0.04,0.55,-0.12
-0.04,0.53,-0.07
-0.03,0.49,-0.02
-0.03,0.46,0.04
-0.02,0.44,0.1
0,0.44,0.16
0.03,0.44,0.24
0.07,0.41,0.3
0.11,0.38,0.35
0.13,0.34,0.38
0.16,0.32,0.41
0.17,0.33,0.46
0.16,0.33,0.6
0.22,0.3,0.64
0.25,0.27,0.66
0.27,0.26,0.68
0.31,0.24,0.69
0.35,0.2,0.72
0.37,0.14,0.76
0.38,0.1,0.77
0.38,0.1,0.78
0.4,0.13,0.8
0.44,0.15,0.85
0.47,0.16,0.92
0.48,0.16,1.02
0.5,0.15,1.09
0.54,0.11,1.13
0.59,0.03,1.13
0.65,-0.03,1.09
0.68,-0.03,1.07
0.68,-0.03,1.09
0.71,-0.03,1.14
0.72,-0.01,1.22
0.72,-0.02,1.28
0.72,-0.05,1.29
0.74,-0.08,1.27
0.77,-0.09,1.25
0.78,-0.05,1.24
0.79,0,1.27
0.83,0.01,1.35
0.83,-0.01,1.35
0.82,-0.04,1.37
0.76,-0.05,1.41
0.71,-0.04,1.42
0.7,0.02,1.39
0.74,0.08,1.4
0.78,0.1,1.46
0.79,0.08,1.52
0.77,0.03,1.55
0.74,-0.01,1.56
0.72,0,1.57
0.73,0.03,1.56
0.75,0.06,1.53
0.78,0.07,1.51
0.81,0.06,1.48
0.8,0.03,1.45
0.79,0.02,1.41
0.78,0.02,1.37
0.77,0.01,1.35
0.76,-0.02,1.34
0.76,-0.02,1.31
0.76,-0.03,1.28
0.77,-0.03,1.24
0.79,-0.02,1.23
0.79,-0.03,1.23
0.75,-0.05,1.17
0.71,-0.04,1.18
0.71,-0.05,1.21
0.71,-0.06,1.23
0.69,-0.06,1.21
0.67,-0.04,1.18
0.66,-0.02,1.18
0.65,-0.01,1.19
0.63,-0.02,1.2
0.58,-0.03,1.18
0.54,-0.03,1.12
0.52,-0.01,1.08
0.54,0.01,1.05
0.6,0.04,1.06
0.66,0.05,1.1
0.68,0.02,1.13
0.67,0.02,1.15
0.64,0.05,1.11
0.61,0.11,1.06
0.6,0.15,1.04
0.57,0.17,1.04
0.54,0.2,1.06
0.54,0.22,1.06
0.55,0.24,1.04
0.55,0.29,1.01
0.54,0.32,1
0.53,0.34,1.02
0.47,0.36,1.01
0.44,0.39,1
0.42,0.42,0.99
0.41,0.44,0.98
0.42,0.5,0.97
0.44,0.52,0.97
0.44,0.49,0.96
0.45,0.43,0.92
0.42,0.43,0.87
0.42,0.46,0.83
0.44,0.43,0.78
0.44,0.41,0.74
0.41,0.45,0.7
0.4,0.51,0.66
0.4,0.53,0.63
0.38,0.55,0.64
0.37,0.51,0.64
0.36,0.46,0.61
0.35,0.47,0.57
0.34,0.53,0.54
0.33,0.62,0.52
0.34,0.66,0.5
0.33,0.66,0.51
0.3,0.63,0.51
0.27,0.6,0.49
0.24,0.62,0.41
0.25,0.62,0.4
0.22,0.59,0.38
0.17,0.58,0.35
0.13,0.6,0.3
0.07,0.66,0.27
0.08,0.68,0.26
0.1,0.63,0.24
0.09,0.57,0.22
0.07,0.52,0.18
0.05,0.48,0.12
0.02,0.47,0.04
-0.02,0.5,-0.03
-0.07,0.53,-0.07
-0.11,0.54,-0.11
-0.14,0.52,-0.14
-0.17,0.51,-0.18
-0.17,0.5,-0.23
-0.18,0.49,-0.3
-0.22,0.5,-0.37
-0.28,0.53,-0.44
-0.34,0.55,-0.51
-0.41,0.58,-0.56
-0.47,0.6,-0.6
-0.51,0.62,-0.63
-0.53,0.66,-0.66
-0.54,0.67,-0.67
-0.54,0.67,-0.66
-0.51,0.67,-0.65
-0.5,0.67,-0.63
-0.5,0.69,-0.58
-0.5,0.71,-0.54
-0.51,0.73,-0.51
-0.5,0.75,-0.51
-0.47,0.76,-0.5
-0.45,0.76,-0.47
-0.42,0.76,-0.45
-0.38,0.75,-0.43
-0.36,0.75,-0.41
-0.33,0.75,-0.38
-0.29,0.74,-0.34
-0.26,0.73,-0.31
-0.24,0.73,-0.28
-0.22,0.73,-0.26
-0.21,0.73,-0.23
-0.18,0.7,-0.2
-0.14,0.67,-0.18
-0.12,0.65,-0.16
-0.09,0.63,-0.14
-0.08,0.62,-0.11
-0.06,0.63,-0.06
-0.05,0.63,-0.02
-0.04,0.6,0.05
-0.01,0.51,0.09
0.01,0.46,0.12
0.03,0.44,0.15
0.07,0.45,0.19
0.09,0.47,0.25
0.1,0.47,0.32
0.12,0.43,0.39
0.13,0.38,0.44
0.15,0.33,0.47
0.14,0.32,0.48
0.16,0.36,0.49
0.22,0.38,0.52
0.25,0.4,0.6
0.29,0.39,0.7
0.34,0.34,0.78
0.35,0.3,0.81
0.37,0.3,0.82
0.42,0.27,0.82
0.45,0.24,0.82
0.48,0.23,0.82
0.49,0.23,0.82
0.49,0.27,0.81
0.55,0.29,0.83
0.64,0.28,0.87
0.72,0.24,0.93
0.76,0.19,1.04
0.76,0.15,1.05
0.75,0.17,1.03
0.74,0.2,1.03
0.75,0.21,1.05
0.78,0.18,1.09
0.77,0.16,1.14
0.76,0.16,1.2
0.76,0.17,1.23
0.77,0.19,1.25
0.75,0.22,1.29
0.73,0.21,1.33
0.71,0.19,1.35
0.7,0.17,1.36
0.67,0.17,1.33
0.66,0.16,1.29
0.67,0.16,1.29
0.67,0.16,1.33
0.68,0.16,1.37
0.66,0.16,1.37
0.66,0.14,1.33
0.66,0.12,1.29
0.64,0.1,1.26
0.61,0.08,1.26
0.6,0.08,1.25
0.61,0.08,1.24
0.59,0.07,1.21
0.61,0.05,1.19
0.59,0.05,1.18
0.57,0.05,1.18
0.54,0.06,1.21
0.52,0.07,1.26
0.53,0.08,1.31
0.54,0.08,1.35
0.55,0.09,1.34
0.55,0.1,1.33
0.55,0.11,1.33
0.58,0.11,1.35
0.61,0.1,1.4
0.62,0.1,1.47
0.6,0.11,1.51
0.6,0.11,1.5
0.62,0.11,1.46
0.66,0.13,1.41
0.69,0.15,1.37
0.71,0.15,1.37
0.72,0.14,1.43
0.73,0.11,1.48
0.74,0.11,1.47
0.75,0.12,1.42
0.77,0.16,1.39
0.81,0.19,1.38
0.81,0.19,1.46
0.73,0.11,1.47
0.71,0.1,1.45
0.71,0.1,1.38
0.73,0.1,1.31
0.72,0.09,1.3
0.68,0.08,1.34
0.63,0.04,1.36
0.6,0.02,1.35
0.57,0.05,1.27
0.54,0.09,1.16
0.51,0.1,1.1
0.46,0.11,1.08
0.4,0.16,1.07
0.36,0.24,1.07
0.34,0.32,1.1
0.32,0.33,1.11
0.35,0.31,1.11
0.41,0.27,1.08
0.44,0.21,0.99
0.45,0.16,0.86
0.46,0.14,0.73
0.44,0.19,0.65
0.4,0.22,0.61
0.38,0.21,0.61
0.36,0.23,0.61
0.36,0.25,0.54
0.39,0.31,0.48
0.36,0.34,0.44
0.33,0.37,0.41
0.3,0.38,0.39
0.26,0.43,0.38
0.22,0.52,0.39
0.22,0.56,0.42
0.2,0.56,0.47
0.18,0.53,0.5
0.18,0.46,0.49
0.2,0.46,0.45
0.19,0.49,0.39
0.17,0.49,0.33
0.13,0.51,0.26
0.08,0.54,0.2
0.09,0.55,0.16
0.06,0.6,0.15
0.01,0.62,0.17
0.02,0.57,0.15
-0.01,0.55,0.08
-0.04,0.56,0.01
-0.04,0.58,-0.07
-0.07,0.62,-0.13
-0.11,0.64,-0.15
-0.14,0.64,-0.16
-0.15,0.64,-0.19
-0.15,0.6,-0.27
-0.17,0.6,-0.33
-0.2,0.65,-0.39
-0.23,0.68,-0.44
-0.26,0.66,-0.47
-0.27,0.63,-0.49
-0.3,0.61,-0.51
-0.32,0.62,-0.54
-0.33,0.64,-0.58
-0.36,0.67,-0.62
-0.4,0.7,-0.66
-0.42,0.73,-0.69
-0.43,0.74,-0.69
-0.45,0.73,-0.7
-0.46,0.74,-0.71
-0.47,0.77,-0.71
-0.47,0.81,-0.71
-0.47,0.84,-0.71
-0.46,0.84,-0.7
-0.44,0.82,-0.67
-0.42,0.8,-0.64
-0.39,0.78,-0.6
-0.35,0.77,-0.58
-0.31,0.76,-0.55
-0.27,0.75,-0.51
-0.24,0.74,-0.5
-0.21,0.73,-0.47
-0.16,0.74,-0.44
-0.15,0.74,-0.4
-0.14,0.72,-0.35
-0.13,0.7,-0.31
-0.11,0.69,-0.31
-0.07,0.68,-0.3
-0.03,0.67,-0.29
-0.01,0.66,-0.27
0.02,0.64,-0.25
0.06,0.61,-0.22
0.07,0.58,-0.18
0.06,0.56,-0.13
0.04,0.55,-0.07
0.02,0.55,-0.01
0.03,0.57,0.06
0.05,0.57,0.11
0.08,0.55,0.14
0.1,0.53,0.16
0.11,0.51,0.19
0.1,0.5,0.22
0.11,0.48,0.27
0.13,0.45,0.34
0.15,0.42,0.42
0.15,0.42,0.48
0.19,0.42,0.49
0.26,0.44,0.49
0.3,0.44,0.5
0.3,0.44,0.56
0.29,0.44,0.64
0.27,0.44,0.71
0.29,0.44,0.74
0.31,0.43,0.74
0.36,0.4,0.72
0.42,0.35,0.67
0.47,0.31,0.63
0.48,0.32,0.67
0.45,0.35,0.78
0.42,0.37,0.91
0.43,0.39,0.99
0.49,0.36,0.99
0.58,0.31,0.93
0.67,0.24,0.88
0.72,0.2,0.84
0.71,0.2,0.85
0.69,0.24,0.95
0.67,0.29,1.1
0.67,0.3,1.23
0.69,0.29,1.29
0.73,0.26,1.28
0.77,0.22,1.23
0.81,0.2,1.17
0.83,0.22,1.29
0.82,0.21,1.42
0.8,0.19,1.5
0.81,0.18,1.51
0.86,0.15,1.48
0.9,0.14,1.45
0.95,0.14,1.45
1.02,0.15,1.49
1.09,0.16,1.57
1.13,0.18,1.62
1.14,0.22,1.61
1.15,0.26,1.6
1.15,0.26,1.58
1.12,0.25,1.59
1.09,0.23,1.58
1.05,0.21,1.57
1,0.2,1.57
0.93,0.18,1.56
0.88,0.18,1.55
0.84,0.18,1.52
0.81,0.18,1.51
0.8,0.17,1.5
0.79,0.14,1.49
0.78,0.12,1.47
0.76,0.12,1.46
0.74,0.14,1.43
0.71,0.15,1.41
0.66,0.13,1.38
0.65,0.11,1.32
0.64,0.11,1.25
0.62,0.14,1.2
0.6,0.18,1.19
0.57,0.21,1.2
0.51,0.21,1.22
0.47,0.22,1.22
0.45,0.21,1.2
0.44,0.19,1.16
0.45,0.2,1.09
0.46,0.24,1.03
0.45,0.29,1.01
0.44,0.31,1
0.41,0.29,1
0.39,0.28,0.97
0.38,0.3,0.93
0.38,0.3,0.89
0.37,0.28,0.84
0.35,0.25,0.78
0.34,0.25,0.7
0.33,0.29,0.64
0.31,0.35,0.61
0.27,0.38,0.6
0.22,0.39,0.59
0.18,0.39,0.5
0.15,0.41,0.43
0.16,0.41,0.36
0.16,0.41,0.28
0.14,0.45,0.22
0.12,0.53,0.19
0.11,0.6,0.21
0.09,0.61,0.25
0.05,0.58,0.28
0.02,0.56,0.25
0.02,0.55,0.18
0.04,0.55,0.11
0.05,0.54,0.08
0.04,0.53,0.05
0.02,0.56,0.01
-0.01,0.61,-0.02
-0.03,0.66,-0.04
-0.06,0.69,-0.07
-0.09,0.7,-0.09
-0.11,0.7,-0.11
-0.13,0.72,-0.15
-0.1,0.73,-0.18
-0.07,0.71,-0.18
-0.05,0.67,-0.18
-0.04,0.65,-0.23
-0.05,0.69,-0.32
-0.09,0.77,-0.42
-0.14,0.79,-0.44
-0.16,0.79,-0.47
-0.19,0.78,-0.51
-0.22,0.78,-0.57
-0.22,0.77,-0.61
-0.22,0.74,-0.66
-0.23,0.72,-0.69
-0.25,0.72,-0.71
-0.27,0.75,-0.71
-0.28,0.76,-0.68
-0.28,0.73,-0.66
-0.3,0.71,-0.66
-0.32,0.7,-0.67
-0.34,0.7,-0.68
-0.35,0.71,-0.67
-0.36,0.74,-0.64
-0.37,0.76,-0.6
-0.37,0.77,-0.56
-0.37,0.78,-0.52
-0.36,0.79,-0.49
-0.35,0.79,-0.47
-0.34,0.78,-0.45
-0.32,0.76,-0.42
-0.29,0.74,-0.4
-0.28,0.74,-0.37
-0.27,0.75,-0.29
-0.23,0.75,-0.24
-0.2,0.74,-0.21
-0.16,0.72,-0.22
-0.11,0.69,-0.23
-0.08,0.67,-0.23
-0.07,0.63,-0.21
-0.07,0.61,-0.17
-0.06,0.61,-0.11
-0.05,0.6,-0.04
-0.04,0.59,0.03
-0.03,0.58,0.08
-0.01,0.57,0.1
0.02,0.56,0.11
0.03,0.54,0.12
0.02,0.52,0.14
0,0.51,0.17
-0.02,0.49,0.22
-0.03,0.49,0.29
-0.05,0.49,0.34
-0.08,0.47,0.36
-0.1,0.46,0.36
-0.1,0.47,0.37
-0.08,0.47,0.41
-0.04,0.45,0.45
-0.01,0.43,0.5
0,0.41,0.52
0.08,0.36,0.52
0.1,0.32,0.54
0.11,0.29,0.57
0.13,0.3,0.6
0.16,0.32,0.62
0.23,0.31,0.64
0.31,0.29,0.68
0.36,0.27,0.73
0.36,0.23,0.79
0.39,0.19,0.84
0.42,0.14,0.87
0.41,0.14,0.91
0.45,0.14,0.97
0.47,0.15,1.04
0.46,0.14,1.14
0.44,0.13,1.25
0.43,0.11,1.31
0.42,0.1,1.34
0.4,0.1,1.34
0.37,0.09,1.34
0.36,0.1,1.36
0.37,0.12,1.39
0.37,0.14,1.41
0.38,0.13,1.43
0.38,0.13,1.45
0.37,0.12,1.47
0.36,0.05,1.47
0.41,0.02,1.47
0.47,0.01,1.45
0.52,-0.01,1.42
0.54,-0.02,1.39
0.56,-0.01,1.37
0.55,0,1.34
0.55,0.01,1.33
0.54,0,1.31
0.52,-0.01,1.29
0.53,-0.02,1.26
0.52,-0.01,1.21
0.53,0.01,1.17
0.54,0,1.16
0.52,0,1.17
0.49,0,1.2
0.49,-0.01,1.23
0.5,-0.03,1.23
0.49,-0.03,1.2
0.48,-0.04,1.16
0.47,-0.05,1.12
0.47,-0.06,1.09
0.46,-0.07,1.06
0.45,-0.08,1.05
0.44,-0.08,1.05
0.43,-0.09,1.07
0.43,-0.11,1.04
0.45,-0.13,1.04
0.45,-0.14,1.04
0.44,-0.15,1.04
0.44,-0.15,1.04
0.41,-0.13,1.06
0.36,-0.12,1.07
0.34,-0.14,1.06
0.31,-0.13,1.03
0.3,-0.14,1.01
0.31,-0.18,0.99
0.29,-0.2,1.01
0.27,-0.2,1.03
0.26,-0.2,1.02
0.26,-0.2,1.01
0.26,-0.18,0.99
0.24,-0.17,0.96
0.23,-0.17,0.94
0.24,-0.17,0.92
0.23,-0.16,0.89
0.22,-0.16,0.88
0.22,-0.17,0.87
0.23,-0.18,0.87
0.27,-0.28,1.08
0.36,-0.21,1.4
0.43,-0.09,1.53
0.43,-0.09,1.12
0.15,-0.12,1.01
0.31,-0.14,1.02
0.37,-0.12,0.99
0.21,-0.17,0.93
0.21,-0.22,0.87
0.18,-0.21,0.86
0.18,-0.17,0.89
0.22,-0.15,0.93
0.29,-0.14,0.96
0.32,-0.13,0.97
0.32,-0.13,0.97
0.31,-0.15,0.99
0.29,-0.17,1
0.26,-0.17,0.98
0.25,-0.17,0.96
0.24,-0.17,0.94
0.25,-0.15,0.93
0.27,-0.14,0.93
0.29,-0.13,0.93
0.31,-0.11,0.94
0.31,-0.09,0.96
0.29,-0.09,0.97
0.29,-0.09,1
0.3,-0.1,1.01
0.29,-0.11,1.01
0.27,-0.1,0.97
0.27,-0.09,0.96
0.27,-0.08,0.95
0.27,-0.07,0.96
0.28,-0.06,0.96
0.29,-0.06,0.96
0.3,-0.07,0.97
0.31,-0.06,0.97
0.33,-0.05,0.95
0.37,-0.05,0.94
0.4,-0.04,0.93
0.43,-0.03,0.92
0.44,-0.02,0.91
0.44,-0.01,0.91
0.45,-0.01,0.9
0.45,-0.01,0.9
0.44,-0.01,0.91
0.45,-0.01,0.92
0.46,-0.02,0.92
0.47,-0.02,0.91
0.47,-0.02,0.9
0.47,-0.01,0.89
0.48,-0.01,0.89
0.48,-0.01,0.88
0.48,-0.01,0.88
0.47,-0.02,0.89
0.46,-0.03,0.91
0.46,-0.03,0.9
0.46,-0.03,0.9
0.45,-0.03,0.91
0.45,-0.02,0.91
0.44,-0.02,0.9
0.44,-0.02,0.91
0.44,-0.02,0.91
0.45,-0.01,0.91
0.45,-0.01,0.91
0.43,-0.01,0.91
0.42,0,0.91
0.44,0,0.9
0.45,0,0.9
0.45,-0.01,0.91
0.45,-0.01,0.92
0.45,-0.01,0.91
0.45,-0.01,0.9
0.45,-0.01,0.9
0.45,0,0.89
0.45,-0.01,0.9
0.46,-0.01,0.9
0.47,0,0.9
0.47,-0.01,0.9
0.47,-0.01,0.89
0.47,0,0.89
0.47,0,0.89
0.48,-0.01,0.89
0.48,-0.01,0.89
0.47,-0.01,0.89
0.47,-0.02,0.89
0.47,-0.02,0.9
0.47,-0.03,0.9
0.46,-0.02,0.89
0.46,-0.02,0.9
0.47,-0.01,0.89
0.49,0,0.88
0.49,0,0.88
0.49,-0.01,0.88
0.49,-0.01,0.89
0.48,-0.01,0.89
0.47,0,0.89
0.49,-0.01,0.89
0.49,-0.01,0.89
0.49,-0.01,0.88
0.49,-0.01,0.88
0.49,0,0.87
0.5,0,0.87
0.5,0,0.88
0.5,0,0.89
0.5,0,0.88
0.5,-0.01,0.88
0.5,-0.01,0.88
0.49,-0.01,0.89
0.49,-0.02,0.89
0.5,-0.01,0.9
0.52,0,0.89
0.54,0,0.89
0.52,-0.01,0.91
0.46,-0.03,0.92
0.44,-0.05,0.94
0.47,-0.04,0.97
0.51,-0.04,0.99
0.51,-0.06,1
0.5,-0.08,1.02
0.53,-0.08,1.04
0.51,-0.07,1.09
0.49,-0.1,1.21
0.61,-0.11,1.35
0.69,-0.05,1.42
0.7,0,1.46
0.72,0.05,1.48
0.73,0.09,1.49
0.76,0.13,1.5
0.79,0.17,1.52
0.81,0.22,1.52
0.82,0.27,1.5
0.8,0.28,1.49
0.75,0.27,1.65
0.6,0.22,1.74
0.6,0.22,1.8
0.71,0.21,1.79
0.81,0.16,1.78
0.87,0.09,1.79
0.83,0.01,1.79
0.77,-0.04,1.78
0.74,-0.07,1.75
0.72,-0.07,1.67
0.69,-0.04,1.54
0.68,0.01,1.4
0.69,0.01,1.3
0.68,-0.01,1.28
0.66,-0.03,1.28
0.64,-0.07,1.24
0.6,-0.11,1.17
0.56,-0.13,1.1
0.53,-0.12,1.02
0.53,-0.13,0.93
0.52,-0.11,0.88
0.49,-0.09,0.85
0.47,-0.1,0.81
0.42,-0.11,0.78
0.38,-0.1,0.74
0.34,-0.07,0.7
0.29,-0.03,0.56
0.2,0.08,0.54
0.15,0.16,0.57
0.12,0.23,0.61
0.09,0.23,0.63
0.06,0.24,0.59
0.05,0.23,0.55
0.04,0.27,0.5
0.02,0.29,0.43
-0.03,0.28,0.37
-0.07,0.31,0.35
-0.08,0.32,0.34
-0.1,0.33,0.36
-0.1,0.34,0.38
-0.1,0.35,0.35
-0.08,0.34,0.28
-0.06,0.31,0.19
-0.08,0.32,0.09
-0.09,0.3,-0.03
-0.09,0.28,-0.14
-0.12,0.34,-0.24
-0.17,0.4,-0.31
-0.21,0.44,-0.34
-0.25,0.48,-0.38
-0.26,0.55,-0.41
-0.25,0.61,-0.44
-0.25,0.63,-0.47
-0.26,0.59,-0.54
-0.26,0.6,-0.59
-0.27,0.64,-0.62
-0.29,0.68,-0.64
-0.32,0.69,-0.64
-0.35,0.69,-0.65
-0.36,0.71,-0.67
-0.37,0.72,-0.7
-0.39,0.73,-0.74
-0.4,0.73,-0.75
-0.43,0.72,-0.75
-0.45,0.73,-0.76
-0.45,0.76,-0.77
-0.43,0.78,-0.74
-0.42,0.79,-0.7
-0.41,0.78,-0.65
-0.39,0.78,-0.62
-0.37,0.76,-0.6
-0.36,0.75,-0.57
-0.34,0.74,-0.53
-0.32,0.73,-0.51
-0.32,0.73,-0.5
-0.31,0.73,-0.47
-0.29,0.74,-0.43
-0.29,0.74,-0.4
-0.28,0.74,-0.39
-0.26,0.7,-0.37
-0.23,0.66,-0.35
-0.21,0.62,-0.33
-0.19,0.59,-0.31
-0.18,0.58,-0.28
-0.17,0.58,-0.25
-0.16,0.57,-0.22
-0.15,0.56,-0.18
-0.14,0.55,-0.14
-0.12,0.51,-0.1
-0.11,0.5,-0.05
-0.1,0.49,-0.04
-0.07,0.47,-0.03
-0.05,0.45,0.01
-0.03,0.43,0.07
-0.01,0.39,0.11
0.02,0.36,0.14
0.05,0.36,0.15
0.08,0.36,0.18
0.12,0.36,0.21
0.15,0.36,0.25
0.17,0.35,0.31
0.19,0.33,0.38
0.22,0.29,0.44
0.27,0.24,0.45
0.3,0.2,0.45
0.32,0.17,0.53
0.4,0.17,0.6
0.46,0.18,0.68
0.49,0.19,0.73
0.51,0.18,0.75
0.51,0.16,0.75
0.48,0.13,0.77
0.46,0.13,0.83
0.47,0.15,0.91
0.52,0.18,0.98
0.63,0.2,1.04
0.76,0.2,1.1
0.82,0.16,1.15
0.79,0.1,1.21
0.73,0.09,1.27
0.7,0.15,1.31
0.7,0.26,1.29
0.71,0.36,1.25
0.74,0.42,1.26
0.76,0.44,1.33
0.75,0.42,1.41
0.78,0.38,1.47
0.84,0.35,1.5
0.92,0.34,1.52
1.02,0.32,1.56
1.13,0.28,1.63
1.18,0.25,1.77
1.17,0.28,1.77
1.19,0.32,1.76
1.21,0.33,1.76
1.23,0.33,1.78
1.29,0.3,1.8
1.34,0.27,1.84
1.35,0.25,1.87
1.3,0.23,1.84
1.24,0.22,1.79
1.2,0.21,1.76
1.17,0.19,1.74
1.12,0.17,1.7
1.08,0.16,1.64
1.04,0.16,1.55
0.99,0.16,1.47
0.94,0.15,1.44
0.88,0.15,1.43
0.83,0.15,1.42
0.79,0.16,1.42
0.78,0.15,1.42
0.78,0.14,1.4
0.78,0.14,1.35
0.76,0.14,1.31
0.73,0.13,1.29
0.7,0.11,1.26
0.67,0.09,1.16
0.63,0.12,1.12
0.63,0.1,1.11
0.6,0.07,1.1
0.57,0.06,1.07
0.54,0.06,1.03
0.51,0.09,0.98
0.48,0.12,0.96
0.45,0.12,0.94
0.41,0.1,0.93
0.4,0.06,0.9
0.38,0.04,0.84
0.34,0.06,0.76
0.31,0.13,0.71
0.28,0.17,0.68
0.25,0.19,0.66
0.23,0.17,0.63
0.2,0.15,0.55
0.19,0.18,0.45
0.19,0.23,0.37
0.17,0.27,0.34
0.14,0.32,0.33
0.14,0.34,0.31
0.14,0.4,0.3
0.15,0.44,0.3
0.15,0.43,0.27
0.13,0.43,0.17
0.11,0.49,0.15
0.08,0.52,0.15
0.05,0.54,0.14
0,0.57,0.1
-0.06,0.66,0.09
-0.04,0.72,0.12
-0.03,0.73,0.14
-0.02,0.71,0.14
0,0.68,0.12
-0.01,0.65,0.07
-0.04,0.62,0
-0.07,0.63,-0.07
-0.11,0.65,-0.1
-0.14,0.66,-0.12
-0.17,0.67,-0.15
-0.2,0.68,-0.21
-0.2,0.68,-0.27
-0.22,0.7,-0.32
-0.25,0.7,-0.37
-0.26,0.7,-0.4
-0.29,0.7,-0.44
-0.32,0.71,-0.48
-0.33,0.72,-0.51
-0.36,0.72,-0.53
-0.39,0.73,-0.55
-0.4,0.73,-0.6
-0.41,0.73,-0.62
-0.42,0.75,-0.63
-0.43,0.76,-0.62
-0.44,0.77,-0.6
-0.44,0.79,-0.59
-0.43,0.78,-0.58
-0.41,0.77,-0.56
-0.4,0.76,-0.54
-0.39,0.76,-0.52
-0.39,0.76,-0.5
-0.38,0.77,-0.47
-0.37,0.76,-0.44
-0.35,0.76,-0.42
-0.33,0.75,-0.41
-0.31,0.74,-0.4
-0.3,0.73,-0.39
-0.28,0.72,-0.38
-0.26,0.71,-0.39
-0.23,0.7,-0.37
-0.2,0.67,-0.35
-0.17,0.65,-0.32
-0.14,0.63,-0.3
-0.13,0.61,-0.27
-0.12,0.59,-0.24
-0.13,0.56,-0.23
-0.12,0.55,-0.21
-0.07,0.51,-0.18
-0.04,0.47,-0.14
-0.02,0.43,-0.1
0,0.4,-0.06
0.02,0.35,-0.03
0.02,0.3,0
0.03,0.27,0.04
0.08,0.24,0.11
0.11,0.21,0.22
0.16,0.17,0.31
0.22,0.12,0.37
0.24,0.1,0.43
0.26,0.1,0.48
0.28,0.1,0.51
0.29,0.14,0.58
0.33,0.15,0.68
0.37,0.13,0.78
0.39,0.11,0.88
0.4,0.08,0.96
0.4,0.07,1.03
0.41,0.07,1.05
0.45,0.1,1.04
0.47,0.14,1.09
0.5,0.15,1.21
0.52,0.12,1.34
0.5,0.09,1.49
0.51,0.1,1.49
0.55,0.11,1.47
0.59,0.11,1.48
0.62,0.08,1.5
0.64,0.05,1.53
0.63,0.03,1.59
0.63,0.02,1.63
0.65,0.02,1.67
0.7,0.01,1.68
0.74,0.01,1.67
0.76,0.01,1.67
0.77,0.03,1.66
0.78,0.03,1.66
0.78,0.03,1.63
0.78,0.03,1.57
0.79,0.01,1.51
0.8,-0.01,1.44
0.8,-0.01,1.37
0.79,-0.01,1.3
0.76,-0.01,1.26
0.73,0,1.23
0.72,0.01,1.21
0.71,0.02,1.2
0.68,0.02,1.21
0.65,0.03,1.22
0.64,0.04,1.31
0.66,0.03,1.37
0.69,0.03,1.41
0.73,0.03,1.42
0.76,0.03,1.45
0.78,0.02,1.48
0.79,0.02,1.52
0.78,0.04,1.54
0.75,0.05,1.55
0.73,0.07,1.55
0.73,0.07,1.56
0.75,0.07,1.56
0.75,0.05,1.57
0.75,0.04,1.56
0.73,0.04,1.55
0.71,0.03,1.54
0.68,0.03,1.52
0.64,0.03,1.52
0.61,0.03,1.52
0.6,0.03,1.49
0.6,0.04,1.45
0.59,0.05,1.4
0.59,0.06,1.37
0.56,0.06,1.36
0.53,0.06,1.35
0.53,0.06,1.33
0.5,0.05,1.31
0.46,0.08,1.21
0.47,0.09,1.17
0.48,0.09,1.14
0.47,0.09,1.12
0.46,0.08,1.08
0.44,0.09,1.04
0.43,0.12,0.99
0.42,0.17,0.95
0.4,0.2,0.97
0.37,0.19,1
0.37,0.17,0.98
0.39,0.13,0.91
0.4,0.11,0.81
0.38,0.15,0.74
0.36,0.2,0.7
0.33,0.26,0.69
0.29,0.3,0.69
0.22,0.33,0.68
0.2,0.33,0.62
0.2,0.33,0.53
0.17,0.33,0.46
0.14,0.33,0.42
0.14,0.32,0.38
0.12,0.33,0.34
0.08,0.36,0.29
0.05,0.38,0.24
0.04,0.42,0.19
-0.04,0.46,0.17
-0.05,0.49,0.15
-0.05,0.51,0.12
-0.03,0.53,0.07
-0.02,0.55,0.03
-0.04,0.58,-0.01
-0.05,0.58,-0.04
-0.06,0.58,-0.04
-0.08,0.6,-0.04
-0.09,0.64,-0.04
-0.11,0.67,-0.05
-0.13,0.68,-0.06
-0.13,0.68,-0.07
-0.12,0.67,-0.08
-0.11,0.67,-0.09
-0.12,0.67,-0.12
-0.16,0.69,-0.16
-0.2,0.74,-0.19
-0.24,0.79,-0.21
-0.28,0.83,-0.23
-0.3,0.85,-0.24
-0.28,0.85,-0.26
-0.27,0.82,-0.28
-0.27,0.8,-0.32
-0.27,0.8,-0.37
-0.3,0.87,-0.43
-0.34,0.9,-0.43
-0.34,0.89,-0.44
-0.36,0.87,-0.45
-0.36,0.86,-0.46
-0.34,0.87,-0.46
-0.3,0.88,-0.47
-0.27,0.88,-0.47
-0.26,0.9,-0.47
-0.25,0.91,-0.46
-0.23,0.91,-0.46
-0.21,0.91,-0.44
-0.19,0.91,-0.41
-0.18,0.91,-0.37
-0.17,0.92,-0.34
-0.15,0.93,-0.32
-0.14,0.94,-0.3
-0.13,0.95,-0.27
-0.11,0.94,-0.23
-0.1,0.92,-0.2
-0.09,0.93,-0.18
-0.08,0.94,-0.17
-0.07,0.95,-0.15
-0.06,0.95,-0.12
-0.06,0.95,-0.09
-0.06,0.96,-0.07
-0.06,0.97,0
-0.02,0.97,0.04
-0.01,0.96,0.07
0.01,0.96,0.09
0.02,0.96,0.1
0.02,0.96,0.11
0.01,0.96,0.14
0,0.96,0.19
-0.02,0.95,0.25
-0.03,0.95,0.28
-0.02,0.96,0.29
-0.01,0.97,0.29
0,0.98,0.29
0,0.99,0.3
-0.01,1,0.31
-0.02,1.01,0.32
-0.03,1.01,0.3
-0.03,1,0.29
-0.04,1,0.28
-0.04,1,0.28
-0.04,1,0.27
-0.03,1.01,0.26
-0.03,1,0.25
-0.03,0.99,0.25
-0.03,0.99,0.24
-0.03,0.98,0.22
-0.02,0.98,0.2
-0.01,0.97,0.19
-0.01,0.96,0.18
-0.02,0.95,0.17
-0.02,0.95,0.15
-0.03,0.94,0.14
-0.04,0.93,0.13
-0.04,0.93,0.12
-0.04,0.94,0.12
-0.04,0.95,0.1
-0.04,0.95,0.09
-0.04,0.94,0.08
-0.04,0.94,0.08
-0.05,0.95,0.07
-0.06,0.95,0.07
-0.07,0.96,0.07
-0.07,0.95,0.08
-0.07,0.93,0.08
-0.06,0.93,0.07
-0.05,0.93,0.07
-0.05,0.94,0.08
-0.05,0.95,0.09
-0.04,0.95,0.11
-0.05,0.95,0.12
-0.05,0.95,0.13
-0.05,0.94,0.13
-0.05,0.94,0.15
-0.06,0.96,0.16
-0.06,0.96,0.17
-0.06,0.97,0.17
-0.06,0.97,0.18
-0.05,0.96,0.19
-0.05,0.95,0.2
-0.05,0.94,0.2
-0.05,0.94,0.21
-0.05,0.94,0.21
-0.05,0.93,0.22
-0.05,0.92,0.22
-0.04,0.9,0.21
-0.04,0.88,0.21
-0.04,0.86,0.2
-0.04,0.85,0.18
-0.04,0.84,0.16
-0.04,0.83,0.15
-0.04,0.81,0.14
-0.03,0.78,0.13
-0.04,0.77,0.11
-0.06,0.76,0.09
-0.07,0.74,0.06
-0.08,0.72,0.04
-0.08,0.7,0.02
-0.09,0.68,0
-0.1,0.64,-0.03
-0.11,0.59,-0.05
-0.13,0.57,-0.07
-0.16,0.58,-0.11
-0.17,0.58,-0.16
-0.17,0.55,-0.19
-0.18,0.53,-0.22
-0.19,0.52,-0.21
-0.2,0.5,-0.19
-0.22,0.49,-0.17
-0.22,0.51,-0.15
-0.21,0.52,-0.13
-0.19,0.53,-0.09
-0.17,0.52,-0.02
-0.15,0.51,0.05
-0.12,0.49,0.12
-0.06,0.47,0.19
-0.01,0.44,0.26
0.02,0.42,0.33
0.06,0.4,0.38
0.07,0.39,0.46
0.11,0.38,0.54
0.2,0.35,0.6
0.25,0.33,0.69
0.29,0.31,0.72
0.34,0.3,0.73
0.38,0.29,0.82
0.45,0.31,0.89
0.49,0.33,0.95
0.53,0.33,1
0.55,0.34,1.01
0.57,0.36,1
0.59,0.36,1.02
0.59,0.37,1.07
0.63,0.36,1.13
0.68,0.33,1.18
0.71,0.32,1.22
0.71,0.33,1.24
0.7,0.33,1.28
0.7,0.3,1.34
0.71,0.27,1.41
0.7,0.26,1.51
0.71,0.26,1.56
0.79,0.27,1.54
0.8,0.32,1.54
0.75,0.32,1.52
0.7,0.29,1.45
0.6,0.29,1.4
0.53,0.29,1.4
0.5,0.29,1.46
0.5,0.29,1.52
0.48,0.31,1.54
0.44,0.35,1.32
0.38,0.39,1.22
0.36,0.37,1.19
0.32,0.34,1.22
0.3,0.32,1.27
0.33,0.3,1.26
0.32,0.3,1.23
0.31,0.3,1.17
0.32,0.29,1.11
0.34,0.27,1.08
0.35,0.24,1.08
0.34,0.21,1.09
0.34,0.2,1.07
0.33,0.19,1.02
0.32,0.19,0.95
0.33,0.16,0.89
0.36,0.13,0.89
0.35,0.09,0.93
0.36,0.05,0.96
0.38,0.04,0.95
0.37,0.04,0.92
0.38,0.05,0.89
0.38,0.04,0.85
0.35,0.03,0.82
0.34,0.02,0.81
0.35,-0.01,0.79
0.35,-0.02,0.83
0.32,-0.03,0.82
0.32,-0.04,0.82
0.31,-0.03,0.8
0.3,-0.04,0.74
0.27,-0.06,0.72
0.24,-0.06,0.72
-0.19,0.01,2.17
0.55,-0.1,3.75
1.36,-0.35,3.26
0.58,-0.19,1.46
0.09,0.18,0.37
0.19,0.11,0.9
0.08,0.02,1.3
0.13,0.03,1.13
0.31,-0.07,0.99
0.14,-0.05,0.89
0.12,-0.03,0.8
0.19,0.06,0.78
0.26,0.06,0.84
0.33,0.01,0.91
0.43,0.05,0.93
0.46,0.08,0.91
0.48,0.05,0.9
0.49,0.01,0.94
0.46,0,0.98
0.43,-0.01,0.97
0.41,-0.02,0.92
0.42,0,0.89
0.42,0.02,0.87
0.42,0.03,0.88
0.44,0.03,0.9
0.43,0.03,0.92
0.41,0.03,0.92
0.4,0.03,0.92
0.41,0.02,0.94
0.43,0.02,0.95
0.44,0.03,0.93
0.43,0.04,0.91
0.43,0.04,0.9
0.44,0.04,0.9
0.46,0.05,0.89
0.46,0.05,0.89
0.49,0.04,0.87
0.5,0.05,0.86
0.48,0.06,0.88
0.49,0.06,0.87
0.5,0.05,0.88
0.52,0.04,0.89
0.54,0.03,0.89
0.53,0.03,0.88
0.54,0.02,0.87
0.53,0.02,0.87
0.52,0.02,0.86
0.47,0.04,0.87
0.46,0.05,0.87
0.5,0.02,0.86
0.52,0.04,0.87
0.53,0.05,0.87
0.54,0.03,0.87
0.52,0.03,0.87
0.5,0.05,0.87
0.54,0.05,0.87
0.52,0.05,0.87
0.5,0.05,0.86
0.54,0.05,0.84
0.52,0.08,0.85
0.54,0.09,0.85
0.56,0.04,0.85
0.55,0.05,0.85
0.58,0.05,0.86
0.56,0.04,0.85
0.54,0.06,0.82
0.56,0.05,0.81
0.56,0.05,0.83
0.55,0.04,0.84
0.54,0.05,0.85
0.55,0.05,0.84
0.57,0.04,0.84
0.55,0.06,0.84
0.55,0.07,0.84
0.57,0.05,0.83
0.57,0.05,0.84
0.57,0.05,0.85
0.57,0.05,0.85
0.56,0.06,0.84
0.56,0.06,0.84
0.56,0.07,0.84
0.56,0.07,0.84
0.56,0.06,0.84
0.56,0.06,0.84
0.56,0.05,0.84
0.56,0.05,0.84
0.55,0.05,0.84
0.54,0.05,0.83
0.54,0.04,0.84
0.55,0.04,0.85
0.55,0.05,0.85
0.55,0.05,0.85
0.54,0.05,0.84
0.54,0.05,0.84
0.54,0.05,0.84
0.54,0.05,0.84
0.55,0.05,0.84
0.57,0.05,0.84
0.58,0.04,0.84
0.56,0.04,0.84
0.55,0.04,0.84
0.56,0.04,0.84
0.56,0.05,0.83
0.58,0.06,0.82
0.58,0.06,0.82
0.57,0.06,0.83
0.57,0.07,0.83
0.58,0.07,0.83
0.57,0.07,0.83
0.57,0.07,0.83
0.58,0.06,0.83
0.58,0.06,0.83
0.58,0.06,0.83
0.57,0.07,0.83
0.57,0.06,0.82
0.58,0.06,0.82
0.58,0.06,0.83
0.58,0.05,0.83
0.57,0.05,0.82
0.58,0.05,0.82
0.58,0.05,0.82
0.59,0.05,0.82
0.58,0.06,0.81
0.59,0.06,0.81
0.59,0.06,0.83
0.59,0.07,0.82
0.6,0.07,0.82
0.6,0.07,0.82
0.6,0.06,0.82
0.6,0.06,0.81
0.6,0.07,0.81
0.6,0.06,0.81
0.61,0.06,0.81
0.61,0.06,0.81
0.61,0.06,0.8
0.61,0.06,0.81
0.61,0.06,0.81
0.61,0.05,0.81
0.61,0.05,0.81
0.61,0.05,0.8
0.6,0.05,0.81
0.59,0.05,0.81
0.59,0.05,0.81
0.6,0.05,0.81
0.6,0.05,0.81
0.6,0.05,0.81
0.59,0.05,0.82
0.59,0.06,0.81
0.6,0.06,0.81
0.6,0.07,0.81
0.6,0.07,0.81
0.61,0.07,0.81
0.61,0.06,0.81
0.61,0.07,0.81
0.61,0.06,0.81
0.61,0.06,0.81
0.61,0.07,0.8
0.61,0.07,0.8
0.6,0.07,0.8
0.6,0.06,0.8
0.6,0.06,0.81
0.6,0.06,0.81
0.6,0.05,0.81
0.6,0.06,0.81
0.6,0.06,0.8
0.6,0.05,0.81
0.6,0.06,0.81
0.61,0.06,0.81
0.61,0.06,0.8
0.61,0.07,0.8
0.61,0.07,0.8
0.61,0.07,0.81
0.61,0.07,0.81
0.6,0.07,0.82
0.6,0.07,0.82
0.6,0.06,0.81
0.6,0.06,0.81
0.6,0.06,0.81
0.61,0.06,0.82
0.61,0.06,0.82
0.6,0.06,0.82
0.6,0.06,0.82
0.6,0.05,0.82
0.6,0.05,0.81
0.6,0.06,0.81
0.6,0.07,0.8
0.61,0.07,0.8
0.61,0.06,0.8
0.61,0.06,0.8
0.61,0.06,0.81
0.61,0.06,0.81
0.61,0.06,0.8
0.61,0.06,0.81
0.61,0.06,0.81
0.6,0.07,0.81
0.6,0.07,0.8
0.6,0.06,0.8
0.61,0.06,0.8
0.6,0.06,0.8
0.6,0.07,0.8
0.6,0.07,0.81
0.61,0.06,0.81
0.61,0.06,0.81
0.6,0.06,0.81
0.6,0.07,0.81
0.6,0.06,0.81
0.6,0.06,0.8
0.6,0.07,0.8
0.61,0.07,0.8
0.6,0.06,0.8
0.59,0.06,0.81
0.6,0.06,0.82
0.6,0.06,0.81
0.6,0.06,0.81
0.6,0.06,0.81
0.61,0.06,0.8
0.62,0.06,0.8
0.62,0.06,0.8
0.61,0.06,0.8
0.61,0.06,0.8
0.61,0.06,0.8
0.61,0.06,0.8
0.61,0.06,0.8
0.61,0.06,0.8
0.61,0.06,0.81
0.61,0.06,0.81
0.6,0.05,0.82
0.6,0.05,0.82
0.6,0.06,0.81
0.6,0.06,0.8
0.6,0.06,0.81
0.6,0.06,0.81
0.61,0.06,0.81
0.61,0.06,0.8
0.61,0.06,0.8
0.61,0.05,0.81
0.61,0.05,0.81
0.6,0.06,0.81
0.61,0.06,0.8
0.61,0.06,0.8
0.61,0.06,0.8
0.61,0.06,0.8
0.61,0.06,0.8
0.6,0.06,0.8
0.6,0.05,0.81
0.61,0.05,0.81
0.6,0.05,0.81
0.6,0.06,0.81
0.6,0.06,0.81
0.6,0.06,0.81
0.6,0.06,0.8
0.6,0.06,0.8
0.61,0.06,0.8
0.61,0.06,0.81
0.61,0.06,0.81
0.61,0.06,0.81
0.61,0.05,0.81
0.6,0.05,0.81
0.61,0.06,0.81
0.61,0.06,0.81
0.6,0.05,0.81
0.6,0.05,0.81
0.6,0.05,0.81
0.6,0.06,0.81
0.61,0.06,0.8
0.61,0.06,0.81
0.61,0.06,0.81
0.61,0.06,0.81
0.6,0.06,0.81
0.6,0.06,0.81
0.61,0.06,0.81
0.6,0.06,0.81
0.6,0.06,0.8
0.6,0.06,0.8
0.6,0.06,0.8
0.61,0.06,0.8
0.61,0.06,0.8
0.6,0.05,0.81
0.6,0.05,0.81
0.61,0.05,0.81
0.61,0.05,0.81
0.6,0.06,0.8
0.6,0.06,0.8
0.6,0.06,0.8
0.6,0.06,0.81
0.6,0.06,0.81
0.6,0.06,0.81
0.61,0.05,0.81
0.6,0.05,0.81
0.61,0.05,0.81
0.61,0.05,0.8
0.61,0.06,0.8
0.61,0.06,0.8
0.61,0.06,0.8
0.61,0.06,0.8
0.61,0.06,0.8
0.61,0.06,0.8
0.61,0.06,0.8
0.61,0.05,0.81
0.61,0.05,0.81
0.61,0.05,0.81
0.61,0.05,0.8
0.61,0.06,0.8
0.6,0.06,0.8
0.61,0.06,0.8
0.6,0.05,0.8
0.6,0.06,0.8
0.6,0.06,0.81
0.61,0.05,0.81
0.61,0.05,0.81
0.6,0.05,0.81
0.61,0.05,0.81
0.61,0.05,0.81
0.6,0.05,0.81
0.6,0.05,0.8
0.61,0.06,0.8
0.61,0.05,0.8
0.61,0.05,0.8
0.61,0.05,0.81
0.62,0.05,0.8
0.61,0.05,0.8
0.61,0.05,0.81
0.61,0.05,0.81
0.61,0.05,0.81
0.6,0.05,0.8
0.6,0.05,0.81
0.6,0.06,0.81
0.61,0.06,0.8
0.61,0.06,0.8
0.61,0.06,0.8
0.61,0.06,0.8
0.61,0.06,0.8
0.61,0.06,0.8
