Acc_x,Acc_y,Acc_z
0.37,-0.89,0.44
0.27,-0.88,0.6
0.26,-0.95,0.69
0.32,-0.98,0.74
0.35,-1.01,0.77
0.4,-1.07,0.79
0.46,-1.15,0.83
0.51,-1.23,0.94
0.58,-1.3,1.12
0.63,-1.27,1.23
0.61,-1.21,1.3
0.48,-1.18,1.38
0.2,-1.18,1.33
0.01,-1.2,1.2
-0.12,-1.21,1.16
-0.17,-1.26,1.24
-0.08,-1.37,1.31
0.01,-1.45,1.36
0.11,-1.51,1.33
0.22,-1.55,1.24
0.29,-1.55,1.15
0.33,-1.52,1.1
0.36,-1.51,1.05
0.38,-1.53,1
0.41,-1.55,0.96
0.44,-1.57,0.95
0.48,-1.56,0.94
0.51,-1.5,0.86
0.41,-1.25,0.81
0.36,-1.16,0.77
0.35,-1.16,0.77
0.39,-1.16,0.77
0.38,-1.13,0.73
0.34,-1.05,0.71
0.33,-0.95,0.66
0.36,-0.83,0.57
0.37,-0.73,0.52
0.29,-0.69,0.51
0.29,-0.68,0.49
0.36,-0.64,0.46
0.35,-0.57,0.47
0.3,-0.5,0.48
0.31,-0.4,0.4
0.32,-0.28,0.3
0.25,-0.17,0.24
0.26,-0.16,0.14
0.33,-0.11,0.08
0.38,-0.03,0.1
0.39,-0.08,0.11
0.34,-0.12,0.15
0.27,-0.06,0.17
0.27,0.07,0.14
0.29,0.07,0.09
0.26,0.06,0.06
0.22,0.1,0.06
0.18,0.15,0.08
0.13,0.19,0.13
0.11,0.16,0.19
0.08,0.17,0.27
0.04,0.18,0.33
0.01,0.14,0.39
-0.02,0.13,0.45
-0.05,0.11,0.5
-0.09,0.12,0.54
-0.11,0.12,0.57
-0.13,0.12,0.61
-0.14,0.13,0.69
-0.13,0.11,0.8
-0.12,0.05,0.88
-0.14,0.03,0.91
-0.18,0.06,0.92
-0.19,0.06,0.9
-0.19,0.02,0.88
-0.2,-0.01,0.87
-0.18,-0.03,0.83
-0.16,-0.02,0.78
-0.1,0,0.72
-0.05,-0.02,0.66
-0.04,-0.04,0.58
-0.03,-0.04,0.52
-0.01,-0.1,0.46
-0.01,-0.12,0.47
0.02,-0.13,0.46
0.05,-0.15,0.44
0.09,-0.2,0.39
0.11,-0.27,0.32
0.14,-0.34,0.26
0.15,-0.41,0.27
0.19,-0.46,0.36
0.25,-0.47,0.44
0.28,-0.46,0.48
0.29,-0.51,0.46
0.3,-0.59,0.38
0.3,-0.69,0.33
0.31,-0.85,0.29
0.3,-0.94,0.31
0.32,-0.95,0.4
0.42,-0.79,0.57
0.55,-0.67,0.63
0.54,-0.99,0.65
0.44,-1.15,0.71
0.39,-1.05,0.62
0.37,-1.11,0.57
0.31,-1.2,0.63
0.32,-1.22,0.77
0.39,-1.24,0.91
0.42,-1.22,0.99
0.44,-1.22,0.96
0.45,-1.27,0.92
0.45,-1.34,0.89
0.45,-1.44,0.92
0.46,-1.52,1.01
0.46,-1.53,1.11
0.46,-1.45,1.17
0.46,-1.35,1.17
0.44,-1.26,1.16
0.43,-1.23,1.12
0.4,-1.24,1.09
0.39,-1.29,1.09
0.4,-1.34,1.11
0.4,-1.35,1.14
0.39,-1.3,1.16
0.39,-1.23,1.15
0.37,-1.17,1.12
0.27,-1.12,0.93
-0.27,-1.17,1.39
-1.2,-1.13,2.14
-0.75,-1.08,1.92
0.25,-1.15,1.5
0.06,-1.11,1.41
0.03,-1.01,1.35
0.4,-0.98,1.25
0.65,-0.97,1.01
0.67,-0.98,0.89
0.58,-0.95,0.74
0.58,-0.93,0.59
0.48,-0.92,0.54
0.35,-0.93,0.56
0.26,-0.91,0.54
0.24,-0.9,0.5
0.21,-0.93,0.52
0.15,-0.96,0.61
0.12,-0.99,0.69
0.12,-1.02,0.73
0.13,-1.04,0.73
0.15,-1.04,0.69
0.15,-1.04,0.69
0.15,-1.04,0.74
0.17,-1.06,0.82
0.18,-1.08,0.87
0.12,-1.11,0.94
0.06,-1.15,1.02
0.03,-1.18,1.1
-0.04,-1.2,1.11
-0.11,-1.15,1.07
-0.11,-1.1,1.1
-0.11,-1.13,1.19
-0.17,-1.23,1.3
-0.2,-1.37,1.26
-0.18,-1.43,1.18
-0.24,-1.35,1.15
-0.24,-1.3,1.2
-0.19,-1.35,1.23
-0.15,-1.4,1.18
-0.1,-1.39,1.11
-0.07,-1.33,1.06
-0.05,-1.28,1.01
0,-1.28,0.98
0.05,-1.31,0.97
0.04,-1.32,0.91
0.02,-1.25,0.84
0.05,-1.11,0.8
0.07,-1.02,0.78
0.12,-1,0.77
0.13,-1.01,0.77
0.11,-0.94,0.76
0.12,-0.85,0.7
0.18,-0.77,0.64
0.19,-0.7,0.6
0.16,-0.68,0.59
0.18,-0.65,0.55
0.22,-0.6,0.48
0.27,-0.53,0.42
0.29,-0.46,0.37
0.3,-0.38,0.36
0.28,-0.27,0.33
0.25,-0.23,0.3
0.24,-0.18,0.27
0.22,-0.13,0.24
0.17,-0.08,0.22
0.14,-0.02,0.2
0.11,0.03,0.18
0.07,0.05,0.2
0.06,0.08,0.24
0.02,0.08,0.29
-0.02,0.08,0.33
-0.06,0.1,0.35
-0.1,0.14,0.38
-0.14,0.15,0.42
-0.14,0.14,0.44
-0.14,0.17,0.47
-0.15,0.15,0.52
-0.18,0.13,0.56
-0.2,0.14,0.57
-0.22,0.14,0.57
-0.25,0.12,0.59
-0.31,0.13,0.66
-0.34,0.16,0.74
-0.32,0.14,0.82
-0.32,0.11,0.86
-0.32,0.1,0.88
-0.32,0.12,0.93
-0.3,0.11,0.95
-0.3,0.12,0.97
-0.31,0.12,0.99
-0.31,0.12,0.99
-0.31,0.12,0.99
-0.3,0.1,1
-0.29,0.09,1.01
-0.28,0.09,1.03
-0.28,0.1,1.04
-0.27,0.1,1.06
-0.25,0.09,1.05
-0.23,0.11,1.06
-0.22,0.1,1.06
-0.21,0.07,1.06
-0.2,0.06,1.04
-0.18,0.08,1
-0.17,0.1,0.96
-0.15,0.09,0.98
-0.14,0.07,1.02
-0.16,0.05,1.06
-0.19,0.05,1.08
-0.18,0.06,1.04
-0.17,0.09,0.96
-0.13,0.14,0.88
-0.07,0.15,0.9
-0.01,0.04,0.96
-0.02,0.05,0.97
-0.05,0.07,0.97
-0.08,0.07,0.95
-0.12,0.08,0.95
-0.14,0.08,0.94
-0.13,0.07,0.93
-0.13,0.05,0.93
-0.13,0.03,0.95
-0.14,0.02,0.98
-0.17,0.03,1
-0.18,0.05,1
-0.18,0.06,1
-0.18,0.06,1.01
-0.16,0.04,1.02
-0.16,0.01,1.03
-0.18,0.01,1.04
-0.19,0.02,1.05
-0.2,0.02,1.05
-0.21,0.02,1.04
-0.21,0.02,1.04
-0.21,0.03,1.05
-0.21,0.06,1.04
-0.2,0.07,1.03
-0.19,0.08,1.01
-0.18,0.08,1
-0.18,0.06,0.99
-0.15,0.04,0.98
-0.13,0.02,0.97
-0.12,0.01,0.97
-0.12,0.01,0.97
-0.13,0.03,0.97
-0.15,0.05,0.97
-0.17,0.06,0.96
-0.17,0.06,0.95
-0.17,0.05,0.95
-0.15,0.03,0.97
-0.15,0.02,1.01
-0.15,0.03,1.05
-0.17,0.04,1.06
-0.19,0.03,1.06
-0.2,0.03,1.04
-0.21,0.04,1.03
-0.22,0.04,1.02
-0.22,0.04,1.01
-0.23,0.06,1.01
-0.23,0.06,1.01
-0.22,0.05,1
-0.22,0.04,1
-0.22,0.04,1.01
-0.21,0.05,1.01
-0.19,0.05,1
-0.18,0.04,0.97
-0.15,0.04,0.96
-0.13,0.03,0.95
-0.1,0.02,0.95
-0.09,0.03,0.98
-0.09,0.03,1
-0.1,0.03,0.99
-0.11,0.04,0.99
-0.11,0.04,0.98
-0.11,0.02,0.98
-0.1,0.01,0.98
-0.1,-0.01,1
-0.1,-0.01,1.01
-0.1,0,1.02
-0.1,0.01,1.01
-0.11,0.01,1.01
-0.12,0.01,1
-0.13,0.01,1
-0.13,0.01,0.99
-0.13,0.01,0.98
-0.13,0.01,0.96
-0.13,0.01,0.93
-0.13,0.01,0.9
-0.12,0,0.85
-0.1,0,0.78
-0.07,0.01,0.69
-0.03,-0.01,0.51
0.08,-0.03,0.44
0.13,-0.04,0.4
0.17,-0.05,0.36
0.19,-0.06,0.33
0.22,-0.06,0.31
0.25,-0.08,0.29
0.26,-0.11,0.27
0.26,-0.15,0.27
0.26,-0.19,0.27
0.26,-0.23,0.27
0.26,-0.23,0.26
0.29,-0.24,0.27
0.33,-0.29,0.32
0.38,-0.33,0.38
0.41,-0.4,0.41
0.41,-0.47,0.41
0.39,-0.53,0.4
0.39,-0.57,0.39
0.43,-0.6,0.37
0.48,-0.62,0.39
0.55,-0.65,0.45
0.63,-0.74,0.51
0.64,-0.83,0.57
0.57,-0.88,0.66
0.49,-0.93,0.73
0.45,-0.97,0.82
0.44,-0.96,0.87
0.51,-0.96,0.91
0.59,-0.98,0.94
0.66,-1.03,0.96
0.7,-1.08,0.99
0.68,-1.1,1.06
0.61,-1.1,1.14
0.56,-1.09,1.19
0.5,-1.08,1.21
0.44,-1.06,1.2
0.41,-1.05,1.18
0.41,-1.05,1.16
0.39,-1.05,1.16
0.36,-1.07,1.18
0.4,-1.09,1.19
0.44,-1.09,1.17
0.45,-1.07,1.14
0.46,-1.04,1.12
0.46,-1.03,1.11
0.46,-1.05,1.07
-0.03,-1.05,1.42
-0.69,-1.02,2.25
-0.53,-1.05,2.48
0.22,-1.08,2.05
0.72,-1.01,1.8
0.76,-0.86,1.41
1.09,-0.78,1.34
1.01,-0.83,1.23
0.87,-0.87,0.99
0.69,-0.9,0.76
0.58,-0.91,0.58
0.54,-0.87,0.45
0.45,-0.85,0.45
0.33,-0.81,0.48
0.28,-0.83,0.46
0.28,-0.88,0.46
0.21,-0.9,0.53
0.16,-0.91,0.59
0.16,-0.93,0.64
0.18,-0.92,0.68
0.21,-0.93,0.71
0.25,-0.96,0.77
0.28,-0.97,0.88
0.25,-0.97,0.99
0.21,-1.01,1.04
0.16,-1.09,1.02
0.07,-1.12,1.02
0.01,-1.12,1.06
-0.03,-1.16,1.08
-0.07,-1.21,1.14
-0.08,-1.23,1.17
-0.06,-1.24,1.17
0.04,-1.22,1.14
0.09,-1.26,1.14
0.08,-1.31,1.16
0.1,-1.33,1.16
0.14,-1.32,1.12
0.11,-1.27,1.11
0.08,-1.23,1.15
0.11,-1.23,1.14
0.14,-1.25,1.12
0.14,-1.26,1.11
0.14,-1.26,1.08
0.16,-1.23,1.06
0.17,-1.19,1.04
0.17,-1.14,1
0.21,-1.09,0.92
0.23,-1.04,0.84
0.25,-1,0.81
0.28,-0.98,0.84
0.32,-0.97,0.87
0.33,-0.94,0.84
0.31,-0.91,0.77
0.3,-0.85,0.67
0.33,-0.73,0.6
0.36,-0.62,0.61
0.36,-0.57,0.64
0.37,-0.53,0.63
0.37,-0.48,0.58
0.31,-0.46,0.53
0.27,-0.4,0.45
0.24,-0.31,0.43
0.22,-0.23,0.44
0.23,-0.16,0.42
0.24,-0.14,0.4
0.22,-0.14,0.4
0.19,-0.16,0.41
0.15,-0.16,0.4
0.09,-0.05,0.36
0.08,0.11,0.31
0.07,0.19,0.29
0.08,0.15,0.29
0.06,0.11,0.31
0.07,0.15,0.32
0.09,0.18,0.3
0.07,0.17,0.3
0.05,0.2,0.31
0.03,0.28,0.35
0.02,0.31,0.4
0.03,0.27,0.44
0.04,0.23,0.48
0.04,0.22,0.51
0.04,0.24,0.49
0.06,0.26,0.45
0.09,0.22,0.52
0.06,0.19,0.57
0.03,0.16,0.6
0.02,0.15,0.6
0.01,0.17,0.57
-0.01,0.19,0.56
0.01,0.21,0.55
0.03,0.2,0.55
0.03,0.18,0.57
0.02,0.16,0.59
0.02,0.14,0.58
0.02,0.11,0.55
0.01,0.07,0.53
0.02,0.04,0.49
0.03,0.02,0.45
0.04,0.02,0.44
0.07,0.02,0.47
0.14,0.02,0.53
0.2,-0.01,0.59
0.21,-0.08,0.59
0.21,-0.16,0.56
0.19,-0.23,0.52
0.2,-0.26,0.47
0.23,-0.28,0.44
0.27,-0.3,0.47
0.34,-0.33,0.53
0.4,-0.36,0.63
0.46,-0.44,0.63
0.45,-0.5,0.6
0.4,-0.56,0.57
0.37,-0.65,0.54
0.35,-0.74,0.57
0.36,-0.67,0.7
0.42,-0.58,0.82
0.44,-0.64,0.83
0.43,-0.72,0.79
0.42,-0.75,0.73
0.42,-0.83,0.7
0.4,-0.96,0.72
0.42,-1.09,0.79
0.45,-1.16,0.87
0.48,-1.15,0.9
0.51,-1.11,0.89
0.51,-1.09,0.87
0.49,-1.09,0.84
0.48,-1.06,0.85
0.48,-1.03,0.93
0.49,-1.06,1.06
0.47,-1.09,1.19
0.41,-1.08,1.28
0.35,-1.06,1.29
0.27,-1.05,1.3
0.19,-1.06,1.29
0.12,-1.13,1.25
0.1,-1.15,1.24
0.12,-1.16,1.26
0.18,-1.16,1.28
0.23,-1.13,1.27
0.27,-1.11,1.23
0.28,-1.1,1.16
0.26,-1.09,1.11
0.25,-1.07,1.07
0.23,-1.05,1.04
0.11,-1.06,1.04
-0.33,-1.06,1.27
-0.57,-1.06,1.48
-0.43,-1.07,1.44
-0.28,-1.07,1.33
-0.06,-1.04,1.24
0.18,-1,1.17
0.35,-0.97,1.11
0.36,-0.94,1.05
0.38,-0.93,0.94
0.45,-0.94,0.77
0.47,-0.92,0.63
0.44,-0.91,0.56
0.39,-0.91,0.51
0.36,-0.91,0.47
0.3,-0.9,0.38
0.26,-0.88,0.31
0.25,-0.85,0.27
0.22,-0.82,0.28
0.19,-0.82,0.32
0.21,-0.82,0.36
0.25,-0.83,0.37
0.3,-0.84,0.37
0.34,-0.86,0.37
0.36,-0.89,0.38
0.4,-0.88,0.4
0.42,-0.88,0.45
0.38,-0.92,0.54
0.33,-1,0.64
0.27,-1.06,0.71
0.22,-1.09,0.73
0.17,-1.1,0.74
0.08,-1.08,0.83
0.03,-1.06,0.91
0.01,-1.04,0.99
-0.07,-1.01,1.09
-0.13,-1.01,1.11
-0.2,-1.03,1.11
-0.27,-1.06,1.13
-0.31,-1.1,1.16
-0.32,-1.11,1.17
-0.3,-1.12,1.16
-0.21,-1.19,1.19
-0.15,-1.24,1.18
-0.08,-1.27,1.15
-0.07,-1.27,1.13
-0.08,-1.27,1.1
-0.07,-1.3,1.08
-0.07,-1.36,1.09
-0.04,-1.4,1.13
-0.02,-1.44,1.14
-0.03,-1.43,1.14
-0.02,-1.37,1.09
0,-1.29,1.02
0.01,-1.23,0.98
0.05,-1.25,0.96
0.07,-1.29,0.96
0.11,-1.29,0.94
0.16,-1.22,0.9
0.18,-1.1,0.86
0.19,-1.02,0.84
0.2,-1.01,0.82
0.19,-1.03,0.76
0.19,-1,0.7
0.18,-0.91,0.66
0.2,-0.82,0.64
0.22,-0.73,0.62
0.21,-0.68,0.61
0.21,-0.62,0.56
0.23,-0.51,0.52
0.24,-0.43,0.49
0.25,-0.37,0.49
0.23,-0.36,0.47
0.19,-0.38,0.42
0.16,-0.35,0.36
0.15,-0.25,0.33
0.15,-0.13,0.3
0.2,-0.04,0.29
0.26,-0.01,0.31
0.27,-0.03,0.34
0.28,-0.03,0.31
0.26,-0.08,0.25
0.22,-0.09,0.18
0.16,-0.02,0.14
0.12,0.07,0.15
0.13,0.13,0.19
0.12,0.12,0.22
0.1,0.15,0.24
0.11,0.15,0.26
0.1,0.12,0.26
0.06,0.1,0.26
0.04,0.07,0.26
0.01,0.06,0.28
-0.01,0.06,0.31
-0.01,0.06,0.35
0,0.04,0.35
0,0.03,0.35
0.02,0.01,0.35
0.04,-0.01,0.35
0.05,-0.04,0.35
0.06,-0.06,0.34
0.06,-0.09,0.32
0.07,-0.14,0.3
0.08,-0.18,0.28
0.1,-0.22,0.29
0.13,-0.29,0.33
0.14,-0.38,0.4
0.16,-0.44,0.46
0.19,-0.47,0.45
0.22,-0.49,0.42
0.23,-0.5,0.4
0.22,-0.59,0.42
0.24,-0.62,0.49
0.34,-0.6,0.54
0.46,-0.66,0.55
0.51,-0.72,0.57
0.47,-0.79,0.57
0.41,-0.89,0.56
0.34,-1,0.56
0.28,-1.1,0.62
0.27,-1.09,0.69
0.39,-1.04,0.65
0.42,-1.1,0.64
0.43,-1.22,0.67
0.41,-1.3,0.78
0.38,-1.38,0.9
0.39,-1.41,0.93
0.37,-1.41,0.91
0.3,-1.44,0.88
0.29,-1.52,0.86
0.28,-1.57,0.86
0.25,-1.57,0.89
0.21,-1.56,0.96
0.19,-1.53,1.05
0.22,-1.51,1.12
0.24,-1.51,1.15
0.19,-1.53,1.16
0.16,-1.54,1.14
0.15,-1.54,1.16
0.13,-1.56,1.2
0.1,-1.56,1.22
0.06,-1.54,1.23
0.04,-1.52,1.26
0.02,-1.51,1.29
0,-1.53,1.29
0.03,-1.53,1.27
0.01,-1.56,1.23
-0.31,-1.5,1.78
-0.88,-1.37,2.43
-0.56,-1.33,2.06
0.13,-1.47,1.26
0.25,-1.64,0.76
0.28,-1.58,0.52
0.42,-1.44,0.42
0.44,-1.45,0.39
0.34,-1.51,0.38
0.23,-1.48,0.33
0.17,-1.41,0.25
0.14,-1.35,0.16
0.07,-1.31,0.1
0.03,-1.26,0.07
0.07,-1.22,0.04
0.17,-1.21,0
0.25,-1.17,-0.02
0.32,-1.14,-0.04
0.35,-1.11,-0.02
0.37,-1.06,0
0.38,-1.03,-0.01
0.38,-1,0.01
0.43,-0.98,0.01
0.43,-0.94,0
0.41,-0.92,-0.01
0.4,-0.89,0
0.36,-0.82,0.01
0.35,-0.8,0.03
0.33,-0.78,0.06
0.33,-0.75,0.07
0.32,-0.72,0.08
0.32,-0.68,0.1
0.33,-0.66,0.12
0.34,-0.65,0.12
0.34,-0.64,0.11
0.35,-0.63,0.11
0.35,-0.61,0.11
0.36,-0.61,0.11
0.37,-0.61,0.12
0.37,-0.6,0.13
0.36,-0.59,0.14
0.34,-0.58,0.13
0.32,-0.57,0.13
0.26,-0.57,0.14
0.21,-0.57,0.13
0.21,-0.59,0.11
0.23,-0.61,0.1
0.26,-0.61,0.11
0.27,-0.61,0.13
0.29,-0.62,0.12
0.32,-0.63,0.1
0.36,-0.64,0.12
0.2,-0.73,0.15
0.11,-0.77,0.18
0.12,-0.84,0.18
0.17,-0.9,0.15
0.27,-0.94,0.11
0.38,-1.01,0.03
0.5,-1.08,-0.05
0.58,-1.12,-0.09
0.62,-1.15,-0.12
0.63,-1.17,-0.08
0.59,-1.18,-0.06
0.55,-1.17,-0.12
0.55,-1.12,-0.16
0.55,-1.1,-0.16
0.54,-1.07,-0.16
0.57,-1.01,-0.17
0.6,-0.95,-0.17
0.62,-0.91,-0.15
0.6,-0.88,-0.11
0.61,-0.86,-0.11
0.6,-0.86,-0.11
0.55,-0.85,-0.1
0.55,-0.85,-0.09
0.55,-0.85,-0.07
0.58,-0.84,-0.05
0.62,-0.85,-0.02
0.64,-0.85,-0.02
0.63,-0.85,-0.02
0.61,-0.86,-0.01
0.59,-0.87,0
0.58,-0.87,0.02
0.56,-0.87,0.03
0.54,-0.85,0.05
0.52,-0.84,0.07
0.51,-0.85,0.08
0.5,-0.9,0.1
0.49,-0.97,0.12
0.48,-1.03,0.14
0.46,-1.05,0.17
0.45,-1.03,0.21
0.43,-1,0.24
0.41,-0.99,0.3
0.37,-0.98,0.35
0.32,-0.99,0.39
0.28,-1.01,0.48
0.26,-1.06,0.6
0.27,-1.12,0.68
0.26,-1.17,0.8
0.23,-1.22,0.9
0.13,-1.25,1.01
0.01,-1.21,1.07
-0.05,-1.25,1.18
-0.24,-1.48,1.31
-0.37,-1.61,1.39
-0.49,-1.73,1.37
-0.62,-1.72,1.34
-0.76,-1.65,1.31
-0.8,-1.58,1.27
-0.72,-1.56,1.21
-0.56,-1.58,1.11
-0.39,-1.59,1.03
-0.28,-1.62,0.97
-0.25,-1.61,0.95
-0.25,-1.56,0.93
-0.24,-1.51,0.87
-0.22,-1.5,0.79
-0.19,-1.52,0.74
-0.18,-1.47,0.72
-0.15,-1.43,0.7
-0.09,-1.41,0.69
-0.04,-1.42,0.68
0.01,-1.42,0.67
0.03,-1.41,0.65
0.04,-1.4,0.58
0.05,-1.35,0.5
0.06,-1.29,0.46
0.04,-1.18,0.46
0.07,-1.03,0.49
0.04,-0.72,0.84
0.06,-0.77,1.04
0.05,-0.91,1.07
-0.05,-0.94,0.95
-0.02,-0.82,0.63
0.09,-0.66,0.29
0.18,-0.53,0.16
0.22,-0.49,0.25
0.24,-0.47,0.44
0.26,-0.42,0.57
0.3,-0.33,0.58
0.31,-0.24,0.5
0.3,-0.18,0.36
0.27,-0.09,0.28
0.25,-0.06,0.23
0.27,0,0.13
0.3,0.09,0.07
0.31,0.11,0.07
0.31,0.16,0.14
0.32,0.14,0.2
0.36,0.14,0.17
0.36,0.22,0.13
0.33,0.23,0.12
0.32,0.23,0.13
0.31,0.24,0.12
0.29,0.22,0.08
0.26,0.18,0.09
0.25,0.17,0.12
0.26,0.17,0.16
0.25,0.13,0.2
0.25,0.08,0.22
0.25,0.02,0.24
0.23,-0.02,0.25
0.22,-0.05,0.27
0.22,-0.1,0.28
0.2,-0.17,0.3
0.17,-0.23,0.33
0.15,-0.28,0.36
0.13,-0.32,0.43
0.13,-0.39,0.48
0.13,-0.49,0.48
0.14,-0.55,0.44
0.15,-0.62,0.41
0.13,-0.76,0.41
0.12,-0.82,0.46
0.16,-0.79,0.53
0.19,-0.83,0.56
0.19,-0.92,0.55
0.16,-0.96,0.53
0.15,-0.94,0.5
0.15,-1.11,0.48
0.1,-1.19,0.52
0.11,-1.16,0.62
0.23,-1.19,0.71
0.2,-1.26,0.72
0.2,-1.34,0.67
0.2,-1.42,0.61
0.19,-1.51,0.58
0.17,-1.64,0.62
0.21,-1.73,0.64
0.3,-1.74,0.63
0.31,-1.71,0.61
0.28,-1.66,0.58
0.26,-1.63,0.55
0.23,-1.6,0.54
0.21,-1.59,0.57
0.19,-1.6,0.64
0.19,-1.6,0.68
0.16,-1.62,0.71
0.13,-1.64,0.71
0.13,-1.64,0.65
0.13,-1.63,0.59
0.13,-1.62,0.54
0.14,-1.64,0.5
0.13,-1.71,0.52
0.14,-1.78,0.57
0.18,-1.8,0.61
0.19,-1.77,0.64
0.19,-1.72,0.64
0.13,-1.63,0.63
0.1,-1.6,0.62
0.08,-1.59,0.61
0.06,-1.6,0.62
0.05,-1.66,0.59
0.06,-1.71,0.55
0.09,-1.69,0.52
0.07,-1.6,0.51
-0.01,-1.48,0.5
-0.06,-1.35,0.48
-0.11,-1.23,0.44
-0.18,-1.11,0.37
-0.27,-1.02,0.3
-0.38,-0.95,0.25
-0.42,-0.93,0.21
-0.41,-0.91,0.18
-0.36,-0.89,0.15
-0.3,-0.88,0.12
-0.21,-0.86,0.12
-0.11,-0.88,0.11
-0.01,-0.92,0.09
0.08,-0.95,0.09
0.15,-0.98,0.07
0.19,-1.01,0.05
0.21,-1.04,0.04
0.23,-1.06,0.02
0.28,-1.07,0.02
0.3,-1.04,0.03
0.33,-1,0.06
0.37,-0.98,0.09
0.43,-0.97,0.13
0.39,-0.9,0.16
0.43,-0.85,0.18
0.52,-0.92,0.17
0.45,-0.9,0.16
0.49,-0.86,0.22
0.6,-0.89,0.39
0.53,-0.85,0.62
0.51,-0.77,0.79
0.56,-0.77,0.85
0.55,-0.81,0.82
0.51,-0.79,0.73
0.46,-0.78,0.63
0.4,-0.8,0.51
0.37,-0.78,0.4
0.33,-0.74,0.35
0.31,-0.75,0.31
0.32,-0.82,0.27
0.34,-0.84,0.25
0.36,-0.85,0.23
0.36,-0.86,0.21
0.36,-0.86,0.17
0.35,-0.88,0.15
0.33,-0.88,0.15
0.33,-0.88,0.15
0.33,-0.89,0.16
0.32,-0.91,0.2
0.33,-0.95,0.24
0.33,-0.97,0.27
0.34,-0.97,0.3
0.34,-0.96,0.31
0.33,-0.94,0.31
0.31,-0.93,0.31
0.3,-0.92,0.29
0.28,-0.93,0.26
0.27,-0.95,0.23
0.26,-0.96,0.22
0.26,-0.99,0.23
0.28,-1.01,0.24
0.29,-1.02,0.23
0.31,-1.02,0.21
0.32,-1.01,0.18
0.31,-0.99,0.16
0.32,-0.97,0.13
0.33,-0.97,0.11
0.32,-0.96,0.1
0.31,-0.96,0.1
0.31,-0.97,0.1
0.3,-1.03,0.11
0.31,-1.06,0.11
0.32,-1.07,0.13
0.32,-1.06,0.16
0.31,-1.05,0.18
0.3,-1.02,0.19
0.29,-1,0.21
0.26,-0.99,0.26
0.24,-0.99,0.34
0.2,-1.02,0.41
0.15,-1.05,0.45
0.08,-1.08,0.48
0.03,-1.11,0.5
-0.01,-1.11,0.54
-0.07,-1.12,0.61
-0.13,-1.15,0.7
-0.18,-1.18,0.79
-0.2,-1.2,0.84
-0.21,-1.21,0.88
-0.24,-1.21,0.91
-0.26,-1.21,0.96
-0.22,-1.24,0.99
-0.2,-1.28,1.03
-0.19,-1.31,1.06
-0.21,-1.34,1.11
-0.24,-1.39,1.15
-0.24,-1.57,1.13
-0.27,-1.69,1.08
-0.27,-1.77,1.02
-0.25,-1.81,0.99
-0.22,-1.82,1.01
-0.18,-1.8,1.04
-0.16,-1.75,1.03
-0.14,-1.7,0.99
-0.09,-1.68,0.93
-0.04,-1.69,0.86
0.03,-1.71,0.8
0.09,-1.72,0.78
0.11,-1.65,0.78
0.14,-1.54,0.76
0.16,-1.46,0.74
0.15,-1.41,0.69
0.17,-1.35,0.63
0.21,-1.29,0.61
0.25,-1.28,0.61
0.28,-1.27,0.59
0.27,-1.2,0.53
0.25,-1.07,0.46
0.23,-0.93,0.43
0.22,-0.86,0.42
0.24,-0.82,0.4
0.26,-0.72,0.36
0.27,-0.61,0.38
0.28,-0.6,0.36
0.26,-0.48,0.3
0.26,-0.32,0.23
0.27,-0.24,0.2
0.29,-0.3,0.18
0.27,-0.28,0.17
0.24,-0.17,0.16
0.23,-0.11,0.13
0.22,-0.05,0.12
0.21,0,0.1
0.21,0,0.07
0.21,0.01,0.04
0.22,0.01,0.01
0.21,0.01,-0.01
0.21,0.07,0
0.2,0.1,0.03
0.18,0.11,0.08
0.18,0.11,0.12
0.18,0.11,0.15
0.18,0.09,0.17
0.16,0.06,0.15
0.14,0.04,0.14
0.12,0.04,0.16
0.08,0.04,0.19
0.05,0.05,0.22
0.05,0.04,0.24
0.03,-0.03,0.27
0.04,-0.07,0.3
0.06,-0.09,0.31
0.09,-0.12,0.29
0.12,-0.15,0.28
0.13,-0.18,0.28
0.17,-0.27,0.27
0.2,-0.34,0.24
0.19,-0.39,0.24
0.18,-0.45,0.29
0.23,-0.45,0.31
0.26,-0.46,0.34
0.24,-0.53,0.38
0.23,-0.64,0.38
0.23,-0.73,0.37
0.21,-0.83,0.38
0.19,-0.89,0.39
0.21,-0.95,0.4
0.26,-1,0.4
0.28,-0.99,0.5
0.28,-1.1,0.48
0.27,-1.18,0.46
0.25,-1.25,0.55
0.25,-1.39,0.6
0.26,-1.51,0.67
0.29,-1.57,0.75
0.33,-1.53,0.77
0.33,-1.56,0.78
0.32,-1.59,0.83
0.31,-1.64,0.91
0.31,-1.68,1
0.35,-1.67,1.04
0.37,-1.63,1.04
0.33,-1.6,1.07
0.29,-1.57,1.14
0.26,-1.54,1.23
0.26,-1.54,1.31
0.28,-1.62,1.35
0.28,-1.72,1.37
0.27,-1.76,1.37
0.25,-1.68,1.33
0.24,-1.59,1.28
0.22,-1.49,1.26
0.21,-1.39,1.28
0.2,-1.37,1.34
0.18,-1.33,1.31
0.12,-1.24,1.58
0.23,-1.35,2.43
-0.16,-1.84,2.66
-0.4,-1.6,1.87
-0.26,-1.1,1.02
-0.53,-1.11,0.36
-0.42,-1.01,0.38
-0.35,-1,0.44
-0.16,-0.93,0.46
-0.04,-0.88,0.42
0.01,-0.84,0.36
0.1,-0.82,0.27
0.16,-0.83,0.2
0.2,-0.88,0.14
0.23,-0.92,0.08
0.27,-0.93,0.02
0.31,-0.95,-0.02
0.33,-0.97,-0.03
0.33,-0.98,-0.02
0.33,-0.97,-0.02
0.34,-0.96,-0.02
0.33,-0.94,-0.02
0.33,-0.91,-0.04
0.35,-0.85,-0.05
0.38,-0.8,-0.06
0.39,-0.79,-0.05
0.39,-0.76,-0.04
0.39,-0.76,-0.02
0.39,-0.76,0.01
0.39,-0.78,0.05
0.39,-0.8,0.08
0.38,-0.81,0.12
0.37,-0.85,0.12
0.37,-0.87,0.12
0.38,-0.88,0.14
0.38,-0.9,0.16
0.38,-0.92,0.19
0.38,-0.95,0.21
0.38,-0.97,0.23
0.39,-0.98,0.24
0.4,-0.98,0.26
0.4,-0.98,0.28
0.4,-0.99,0.3
0.39,-1,0.31
0.38,-1,0.31
0.39,-0.99,0.32
0.39,-0.99,0.34
0.39,-0.99,0.4
0.39,-0.99,0.47
0.37,-0.99,0.52
0.34,-0.99,0.57
0.33,-1,0.55
0.34,-0.99,0.51
0.35,-0.99,0.48
0.35,-0.99,0.46
0.33,-0.99,0.45
0.29,-0.99,0.46
0.24,-0.99,0.5
0.19,-1.02,0.59
0.09,-1.04,0.62
0.05,-1.07,0.62
0,-1.1,0.63
-0.03,-1.13,0.68
-0.06,-1.12,0.82
-0.04,-1.08,0.97
-0.02,-1.09,1.06
-0.06,-1.15,1.1
-0.12,-1.19,1.13
-0.17,-1.26,1.15
-0.21,-1.33,1.14
-0.21,-1.37,1.15
-0.18,-1.41,1.2
-0.15,-1.44,1.25
-0.14,-1.48,1.24
-0.11,-1.5,1.21
-0.08,-1.51,1.17
-0.06,-1.53,1.15
-0.07,-1.57,1.14
-0.08,-1.61,1.16
-0.08,-1.68,1.14
-0.09,-1.71,1.05
-0.12,-1.69,0.98
-0.12,-1.66,0.95
-0.09,-1.62,0.92
-0.04,-1.52,0.93
0.01,-1.57,0.96
-0.01,-1.59,0.94
-0.02,-1.56,0.86
-0.01,-1.47,0.77
0.05,-1.38,0.72
0.09,-1.35,0.69
0.07,-1.34,0.68
0.07,-1.31,0.67
0.12,-1.25,0.65
0.17,-1.2,0.65
0.18,-1.12,0.61
0.23,-1.03,0.52
0.24,-0.99,0.49
0.2,-0.97,0.46
0.19,-0.88,0.35
0.19,-0.76,0.25
0.18,-0.65,0.17
0.18,-0.55,0.13
0.21,-0.46,0.14
0.27,-0.43,0.15
0.26,-0.4,0.16
0.24,-0.33,0.12
0.23,-0.25,0.08
0.23,-0.18,0.01
0.23,-0.17,-0.06
0.21,-0.1,-0.08
0.23,-0.03,-0.06
0.24,0.05,0.01
0.23,0.06,0.05
0.21,0.06,0.05
0.17,0.1,0.06
0.14,0.12,0.05
0.14,0.15,0.04
0.15,0.17,0.09
0.15,0.16,0.19
0.13,0.12,0.31
0.1,0.08,0.41
0.06,0.06,0.44
0.01,0.08,0.41
-0.01,0.09,0.39
-0.02,0.07,0.4
-0.03,0.04,0.43
-0.04,0.02,0.47
-0.05,0.01,0.49
-0.05,0,0.5
-0.04,-0.02,0.49
-0.04,-0.06,0.49
-0.05,-0.08,0.51
-0.03,-0.1,0.52
0,-0.1,0.5
0.02,-0.12,0.46
0.06,-0.15,0.35
0.12,-0.29,0.35
0.12,-0.38,0.38
0.12,-0.41,0.41
0.18,-0.41,0.41
0.22,-0.42,0.39
0.23,-0.42,0.39
0.22,-0.47,0.38
0.2,-0.59,0.39
0.17,-0.71,0.4
0.15,-0.82,0.39
0.22,-0.79,0.43
0.32,-0.84,0.46
0.41,-0.69,0.54
0.42,-0.74,0.53
0.37,-1.12,0.43
0.37,-1.17,0.37
0.41,-1.16,0.39
0.38,-1.23,0.51
0.38,-1.26,0.55
0.46,-1.27,0.6
0.47,-1.36,0.66
0.48,-1.43,0.68
0.51,-1.45,0.63
0.51,-1.46,0.57
0.51,-1.48,0.56
0.49,-1.51,0.7
0.57,-1.58,0.74
0.55,-1.6,0.78
0.55,-1.58,0.79
0.52,-1.55,0.82
0.5,-1.51,0.84
0.48,-1.48,0.87
0.47,-1.48,0.92
0.45,-1.48,0.99
0.47,-1.52,1.07
0.56,-1.59,1.08
0.56,-1.62,1.05
0.53,-1.6,1.08
0.51,-1.55,1.15
0.53,-1.45,1.26
0.5,-0.66,2.49
0.93,-0.91,3.82
1.72,-2.6,2.81
1.03,-2.25,1.04
-0.09,-1.02,0.3
-0.54,-1,0.21
-0.73,-1.19,0.27
-0.58,-1.19,0.25
-0.47,-1.04,0.21
-0.33,-0.86,0.21
-0.17,-0.77,0.18
0.02,-0.77,0.26
0.19,-0.79,0.28
0.27,-0.81,0.28
0.44,-0.82,0.25
0.57,-0.84,0.2
0.64,-0.86,0.17
0.63,-0.87,0.19
0.58,-0.88,0.2
0.56,-0.9,0.13
0.54,-0.92,0.05
0.48,-0.9,-0.01
0.41,-0.88,-0.07
0.37,-0.87,-0.1
0.36,-0.83,-0.1
0.38,-0.81,-0.1
0.41,-0.8,-0.09
0.45,-0.78,-0.07
0.49,-0.76,-0.04
0.5,-0.75,0.01
0.49,-0.76,0.06
0.5,-0.76,0.1
0.5,-0.77,0.12
0.49,-0.78,0.13
0.48,-0.78,0.12
0.48,-0.79,0.12
0.46,-0.81,0.13
0.44,-0.83,0.12
0.44,-0.88,0.09
0.45,-0.9,0.11
0.46,-0.92,0.15
0.48,-0.93,0.15
0.48,-0.94,0.19
0.47,-0.95,0.22
0.47,-0.97,0.2
0.46,-1,0.38
0.16,-1.08,0.9
0.22,-1.2,1.36
0.48,-1.22,1.33
0.28,-1.18,0.98
0.21,-1.11,0.61
0.26,-0.99,0.39
0.31,-0.92,0.31
0.35,-0.92,0.27
0.41,-0.94,0.27
0.43,-0.96,0.3
0.45,-0.95,0.28
0.47,-0.94,0.28
0.5,-0.93,0.31
0.53,-0.93,0.26
0.52,-0.93,0.19
0.48,-0.89,0.14
0.48,-0.84,0.1
0.47,-0.85,0.07
0.46,-0.87,0.09
0.43,-0.88,0.11
0.42,-0.87,0.13
0.42,-0.86,0.15
0.44,-0.87,0.15
0.47,-0.87,0.16
0.49,-0.86,0.15
0.51,-0.86,0.14
0.52,-0.86,0.14
0.53,-0.86,0.14
0.52,-0.87,0.14
0.51,-0.88,0.15
0.5,-0.88,0.16
0.49,-0.88,0.17
0.48,-0.88,0.17
0.48,-0.88,0.18
0.47,-0.88,0.18
0.47,-0.87,0.18
0.47,-0.87,0.19
0.47,-0.87,0.19
0.46,-0.86,0.2
0.45,-0.85,0.21
0.44,-0.85,0.22
0.43,-0.85,0.23
0.41,-0.84,0.24
0.4,-0.85,0.24
0.39,-0.86,0.24
0.4,-0.86,0.24
0.41,-0.87,0.23
0.42,-0.89,0.23
0.42,-0.91,0.23
0.42,-0.92,0.23
0.42,-0.93,0.24
0.41,-0.93,0.25
0.41,-0.93,0.26
0.41,-0.93,0.27
0.42,-0.92,0.29
0.42,-0.92,0.31
0.4,-0.91,0.33
0.4,-0.89,0.36
0.4,-0.88,0.41
0.4,-0.88,0.45
0.38,-0.89,0.47
0.38,-0.88,0.48
0.37,-0.88,0.45
0.38,-0.87,0.42
0.41,-0.86,0.42
0.41,-0.85,0.4
0.4,-0.85,0.39
0.41,-0.86,0.37
0.42,-0.87,0.33
0.42,-0.87,0.31
0.41,-0.87,0.29
0.42,-0.89,0.29
0.42,-0.9,0.27
0.42,-0.91,0.27
0.42,-0.91,0.26
0.42,-0.92,0.25
0.43,-0.94,0.24
0.45,-0.98,0.22
0.47,-1.03,0.21
0.49,-1.08,0.21
0.5,-1.09,0.21
0.5,-1.07,0.22
0.48,-1.02,0.23
0.47,-0.96,0.23
0.46,-0.9,0.22
0.45,-0.85,0.21
0.42,-0.81,0.19
0.41,-0.79,0.19
0.44,-0.79,0.21
0.44,-0.79,0.22
0.43,-0.8,0.23
0.42,-0.8,0.24
0.44,-0.82,0.25
0.44,-0.84,0.26
0.42,-0.85,0.25
0.42,-0.86,0.25
0.43,-0.86,0.23
0.44,-0.87,0.22
0.45,-0.86,0.22
0.46,-0.86,0.21
0.47,-0.87,0.21
0.48,-0.86,0.21
0.48,-0.85,0.21
0.48,-0.85,0.22
0.49,-0.85,0.22
0.5,-0.85,0.22
0.49,-0.86,0.23
0.49,-0.88,0.23
0.49,-0.91,0.23
0.49,-0.94,0.24
0.49,-0.97,0.23
0.5,-1,0.24
0.5,-1.01,0.25
0.51,-1.01,0.26
0.53,-1.01,0.25
0.54,-1,0.24
0.53,-0.99,0.24
0.52,-0.97,0.23
0.51,-0.94,0.22
0.5,-0.92,0.21
0.49,-0.9,0.21
0.49,-0.88,0.21
0.49,-0.86,0.21
0.48,-0.83,0.21
0.48,-0.81,0.21
0.48,-0.79,0.2
0.49,-0.77,0.2
0.5,-0.77,0.2
0.5,-0.77,0.2
0.49,-0.76,0.2
0.5,-0.76,0.2
0.51,-0.76,0.2
0.51,-0.76,0.2
0.51,-0.77,0.21
0.51,-0.78,0.22
0.51,-0.79,0.23
0.5,-0.82,0.22
0.5,-0.84,0.2
0.49,-0.84,0.19
0.47,-0.84,0.2
0.49,-0.84,0.22
0.5,-0.83,0.22
0.48,-0.83,0.23
0.46,-0.82,0.24
0.46,-0.81,0.25
0.45,-0.82,0.26
0.43,-0.82,0.27
0.42,-0.83,0.27
0.41,-0.84,0.29
0.38,-0.86,0.3
0.38,-0.87,0.32
0.38,-0.89,0.34
0.38,-0.9,0.35
0.38,-0.91,0.36
0.38,-0.93,0.37
0.39,-0.95,0.37
0.37,-0.95,0.37
0.35,-0.93,0.39
0.34,-0.93,0.42
0.33,-0.95,0.47
0.31,-1,0.56
0.28,-1.06,0.65
0.23,-1.13,0.69
0.17,-1.19,0.69
0.08,-1.19,0.7
-0.01,-1.17,0.73
-0.08,-1.17,0.84
-0.15,-1.17,0.91
-0.22,-1.17,1.04
-0.3,-1.23,1.22
-0.35,-1.31,1.27
-0.37,-1.38,1.26
-0.42,-1.41,1.23
-0.45,-1.41,1.21
-0.4,-1.45,1.18
-0.27,-1.53,1.2
-0.27,-1.57,1.22
-0.28,-1.59,1.2
-0.26,-1.63,1.17
-0.22,-1.68,1.14
-0.21,-1.7,1.11
-0.19,-1.71,1.08
-0.14,-1.71,1.05
-0.11,-1.67,1.05
-0.07,-1.64,1.07
-0.01,-1.62,1.02
0.03,-1.61,0.93
0.05,-1.62,0.89
0.09,-1.63,0.89
0.13,-1.6,0.86
0.17,-1.52,0.85
0.2,-1.42,0.85
0.21,-1.32,0.8
0.27,-1.24,0.71
0.32,-1.16,0.54
0.44,-1.1,0.48
0.5,-1.1,0.5
0.43,-1.12,0.49
0.44,-1.05,0.49
0.37,-0.93,0.49
0.37,-0.76,0.45
0.49,-0.55,0.37
0.38,-0.51,0.33
0.25,-0.5,0.19
0.15,-0.41,0.2
0.23,-0.29,0.29
0.29,-0.24,0.24
0.28,-0.13,0.22
0.26,-0.02,0.22
0.21,0.06,0.2
0.17,0.08,0.19
0.15,0.07,0.19
0.17,0.06,0.18
0.21,0.06,0.17
0.21,0.11,0.16
0.18,0.17,0.17
0.14,0.22,0.2
0.11,0.22,0.25
0.1,0.17,0.31
0.05,0.15,0.36
0.02,0.19,0.37
0.02,0.27,0.39
0.04,0.28,0.44
0.02,0.21,0.51
-0.01,0.15,0.57
-0.05,0.11,0.61
-0.13,0.12,0.65
-0.17,0.17,0.73
-0.16,0.18,0.78
-0.16,0.14,0.84
-0.2,0.1,0.89
-0.23,0.09,0.92
-0.24,0.12,0.92
-0.23,0.16,0.93
-0.22,0.18,0.96
-0.23,0.17,1
-0.23,0.13,1.02
-0.24,0.1,1.03
-0.25,0.11,1.03
-0.24,0.13,1.03
-0.24,0.14,1.03
-0.25,0.14,1.03
-0.24,0.15,1.03
-0.22,0.13,1.03
-0.2,0.09,1.04
-0.18,0.06,1.04
-0.17,0.06,1.02
-0.17,0.07,1.01
-0.17,0.09,1.02
-0.16,0.09,1.03
-0.14,0.09,1.04
-0.12,0.07,1.05
-0.1,0.05,1.03
-0.1,0.03,1.02
-0.11,0.02,1.01
-0.11,0,1.02
-0.11,-0.01,1.01
-0.09,-0.01,0.99
-0.08,-0.01,0.96
-0.07,-0.01,0.93
-0.07,0,0.91
-0.08,0.02,0.92
-0.1,0.02,0.96
-0.11,0.02,0.98
-0.12,0.02,1
-0.12,0.03,1
-0.12,0.03,1.01
-0.13,0,1.02
-0.14,-0.02,1.02
-0.13,-0.03,1.04
-0.11,-0.01,1.06
-0.09,0,1.09
-0.08,0,1.12
-0.09,-0.01,1.14
-0.1,-0.02,1.13
-0.13,-0.03,1.12
-0.15,-0.04,1.12
-0.17,-0.03,1.12
-0.17,-0.02,1.12
-0.16,-0.01,1.13
-0.09,-0.04,1.11
-0.09,-0.05,1.11
-0.12,-0.05,1.1
-0.15,-0.05,1.08
-0.18,-0.04,1.06
-0.22,-0.02,1.04
-0.26,-0.02,1.05
-0.27,-0.03,1.04
-0.25,-0.02,1.01
-0.23,-0.02,0.98
-0.22,-0.01,0.96
-0.21,0.01,0.95
-0.18,0.02,0.95
-0.18,0.02,0.97
-0.19,0.01,0.99
-0.22,0.01,1
-0.24,0.01,0.98
-0.25,0.01,0.96
-0.25,0.01,0.93
-0.25,0.01,0.92
-0.24,0.01,0.94
-0.21,0.01,0.96
-0.2,0.01,0.96
-0.19,0,0.97
-0.19,-0.01,0.97
-0.19,-0.02,0.94
-0.19,-0.01,0.93
-0.18,-0.02,0.91
-0.18,-0.02,0.89
-0.16,-0.01,0.88
-0.15,-0.01,0.87
-0.13,-0.01,0.85
-0.11,-0.02,0.83
-0.1,-0.03,0.8
-0.08,-0.04,0.76
-0.06,-0.06,0.71
-0.03,-0.08,0.65
-0.01,-0.09,0.6
0.03,-0.08,0.55
0.09,-0.08,0.5
0.14,-0.1,0.47
0.16,-0.14,0.44
0.18,-0.17,0.43
0.2,-0.19,0.42
0.22,-0.23,0.42
0.24,-0.28,0.4
0.26,-0.33,0.36
0.26,-0.35,0.34
0.26,-0.38,0.31
0.28,-0.41,0.3
0.31,-0.39,0.32
0.32,-0.38,0.42
0.29,-0.4,0.46
0.25,-0.44,0.49
0.22,-0.49,0.51
0.21,-0.52,0.51
0.22,-0.54,0.5
0.22,-0.57,0.5
0.21,-0.61,0.53
0.22,-0.65,0.57
0.25,-0.7,0.61
0.3,-0.78,0.68
0.36,-0.85,0.77
0.39,-0.88,0.81
0.38,-0.91,0.84
0.34,-0.95,0.86
0.34,-0.95,0.83
0.33,-0.95,0.82
0.31,-0.99,0.88
0.3,-1.06,0.96
0.3,-1.13,1.03
0.3,-1.15,1.08
0.33,-1.13,1.09
0.34,-1.11,1.08
0.36,-1.08,1.07
0.37,-1.08,1.06
0.39,-1.1,1.05
0.41,-1.15,1.04
0.42,-1.22,1.01
0.43,-1.21,1.04
0.43,-1.18,1.06
0.45,-1.16,1.06
0.46,-1.16,1.05
0.43,-1.17,1.05
0.45,-1.25,1.04
0.51,-1.36,1.04
0.6,-1.39,1.07
0.66,-1.39,1.1
0.7,-1.4,1.37
1.05,-1.51,2.35
0.86,-1.74,2.97
0.05,-1.66,2.22
0.01,-1.26,1.16
0.19,-1.09,0.59
0.06,-1.2,0.38
0.14,-1.36,0.47
0.39,-1.45,0.72
0.45,-1.46,0.81
0.53,-1.39,0.75
0.77,-1.33,0.65
0.99,-1.26,0.56
1.08,-1.2,0.53
1.08,-1.2,0.49
1.11,-1.16,0.48
1.1,-0.99,0.47
1.29,-0.89,0.42
1.33,-0.82,0.37
1.27,-0.76,0.34
1.21,-0.68,0.32
1.25,-0.58,0.32
1.25,-0.47,0.36
1.23,-0.38,0.41
1.21,-0.34,0.42
1.14,-0.33,0.33
1.07,-0.28,0.24
1.13,-0.15,0.18
1.14,-0.08,0.1
1.04,-0.1,0.04
1.02,-0.12,0.06
1,-0.16,0.02
0.92,-0.15,-0.01
0.85,-0.07,0.07
0.85,0.03,0.08
0.75,0.13,0.06
0.64,0.18,0.06
0.65,0.21,0.01
0.68,0.23,-0.13
0.63,0.22,-0.14
0.64,0.23,-0.07
0.71,0.25,-0.09
0.7,0.21,-0.09
0.64,0.21,-0.09
0.55,0.27,-0.07
0.49,0.3,-0.05
0.47,0.24,-0.08
0.5,0.13,-0.11
0.48,0.06,-0.11
0.43,0.05,-0.09
0.44,0.01,-0.05
0.51,0.02,0
0.55,0.01,0.1
0.63,-0.06,0.22
0.61,-0.01,0.38
0.44,0.03,0.61
0.35,0.07,0.8
0.37,0.18,0.87
0.53,0.26,0.74
0.68,0.29,0.52
0.75,0.32,0.36
0.76,0.35,0.26
0.79,0.39,0.19
0.86,0.4,0.16
0.93,0.37,0.16
0.92,0.33,0.18
0.87,0.31,0.25
0.85,0.3,0.32
0.8,0.25,0.46
0.66,0.22,0.54
0.66,0.21,0.58
0.67,0.22,0.58
0.68,0.24,0.58
0.66,0.26,0.54
0.68,0.26,0.47
0.75,0.27,0.38
0.84,0.29,0.34
0.94,0.29,0.33
1.01,0.27,0.35
0.98,0.29,0.39
0.93,0.34,0.43
0.93,0.37,0.47
0.91,0.39,0.53
0.85,0.4,0.58
0.81,0.43,0.61
0.79,0.47,0.61
0.78,0.49,0.6
0.79,0.47,0.58
0.81,0.44,0.56
0.81,0.4,0.57
0.81,0.36,0.55
0.81,0.35,0.52
0.81,0.37,0.52
0.82,0.39,0.54
0.82,0.39,0.58
0.74,0.36,0.55
0.73,0.36,0.52
0.76,0.34,0.51
0.78,0.33,0.52
0.76,0.32,0.53
0.74,0.32,0.51
0.73,0.32,0.49
0.73,0.3,0.48
0.7,0.29,0.49
0.68,0.28,0.51
0.65,0.28,0.53
0.63,0.29,0.54
0.59,0.33,0.51
0.55,0.36,0.47
0.57,0.36,0.47
0.63,0.34,0.53
0.7,0.31,0.59
0.74,0.31,0.61
0.73,0.36,0.58
0.73,0.4,0.49
0.73,0.43,0.43
0.73,0.44,0.43
0.77,0.43,0.48
0.82,0.4,0.57
0.87,0.4,0.63
0.87,0.4,0.63
0.8,0.44,0.56
0.77,0.45,0.53
0.74,0.44,0.53
0.72,0.43,0.52
0.72,0.4,0.54
0.73,0.39,0.56
0.71,0.4,0.56
0.7,0.43,0.55
0.7,0.45,0.52
0.7,0.45,0.51
0.72,0.43,0.51
0.72,0.41,0.52
0.73,0.39,0.53
0.73,0.39,0.52
0.73,0.41,0.5
0.72,0.43,0.48
0.7,0.45,0.46
0.68,0.47,0.46
0.67,0.48,0.49
0.69,0.46,0.52
0.72,0.45,0.55
0.76,0.41,0.55
0.79,0.38,0.54
0.78,0.36,0.5
0.74,0.36,0.47
0.72,0.37,0.44
0.7,0.37,0.45
0.68,0.36,0.44
0.7,0.33,0.43
0.72,0.3,0.42
0.75,0.25,0.42
0.75,0.2,0.43
0.72,0.15,0.42
0.64,0.14,0.41
0.46,0.13,0.4
0.3,0.08,0.37
0.23,0.06,0.37
0.26,0.07,0.41
0.31,0.06,0.44
0.27,0.03,0.39
0.28,-0.02,0.35
0.31,-0.08,0.36
0.3,-0.1,0.3
0.29,-0.09,0.2
0.25,-0.05,0.11
0.2,-0.02,0.06
0.2,0,0.03
0.28,0.02,0.05
0.32,0.05,0.06
0.31,0,0.04
0.46,-0.06,0.03
0.46,-0.19,0.05
0.38,-0.4,0.03
0.36,-0.46,0.1
0.4,-0.66,0
0.47,-0.89,-0.21
0.77,-0.95,-0.41
1.14,-0.86,-0.47
1.39,-0.76,-0.4
1.6,-0.81,-0.35
1.74,-1.01,-0.36
1.7,-1.17,-0.36
1.6,-1.25,-0.34
1.5,-1.26,-0.34
1.38,-1.21,-0.35
1.27,-1.19,-0.3
1.19,-1.21,-0.19
1.18,-1.26,-0.09
1.2,-1.33,-0.04
1.2,-1.41,-0.01
1.23,-1.49,0
1.28,-1.51,-0.02
1.25,-1.49,-0.01
1.17,-1.48,0
1.14,-1.46,-0.01
1.14,-1.45,-0.02
1.13,-1.44,-0.03
1.07,-1.43,-0.01
0.97,-1.36,0.04
0.83,-1.34,0.05
0.78,-1.32,0.09
0.74,-1.32,0.1
0.71,-1.3,0.11
0.67,-1.26,0.09
0.7,-1.24,0.07
0.75,-1.21,-0.02
0.82,-1.16,-0.15
0.85,-1.1,-0.19
0.84,-1.05,-0.19
0.87,-1.01,-0.15
0.96,-0.98,-0.14
1.04,-0.99,-0.17
1.08,-1.05,-0.22
1.02,-1.01,-0.23
0.89,-0.89,-0.21
0.86,-0.83,-0.23
0.83,-0.79,-0.24
0.77,-0.76,-0.21
0.73,-0.74,-0.19
0.7,-0.71,-0.16
0.68,-0.68,-0.15
0.67,-0.67,-0.18
0.65,-0.67,-0.2
0.63,-0.67,-0.18
0.59,-0.74,-0.19
0.53,-0.78,-0.22
0.52,-0.79,-0.18
0.52,-0.79,-0.12
0.5,-0.77,-0.11
0.46,-0.78,-0.12
0.44,-0.79,-0.12
0.44,-0.8,-0.09
0.43,-0.83,-0.05
0.42,-0.87,0
0.39,-0.91,0.02
0.38,-0.94,0.03
0.39,-0.94,0.04
0.41,-0.95,0.05
0.41,-0.98,0.09
0.4,-1.01,0.16
0.37,-1.08,0.24
0.34,-1.12,0.32
0.33,-1.11,0.43
0.32,-1.08,0.55
0.27,-1.1,0.63
0.23,-1.1,0.69
0.28,-1.05,0.9
0.46,-1.07,1.37
0.56,-1.21,1.58
0.33,-1.33,1.21
0.1,-1.23,0.86
0.16,-1.09,0.75
0.33,-1.17,0.64
0.51,-1.14,0.86
0.16,-1.04,1.13
-0.15,-1.06,1.11
0.03,-1.07,1.01
0.25,-1.06,0.98
0.39,-1.13,1
0.42,-1.18,1.03
0.36,-1.21,1.05
0.29,-1.24,1.03
0.24,-1.28,0.99
0.21,-1.35,1.06
0.11,-1.4,1.15
-0.05,-1.44,1.21
-0.1,-1.44,1.25
-0.08,-1.43,1.23
-0.08,-1.46,1.15
-0.09,-1.5,1.08
-0.03,-1.54,1.05
0.12,-1.53,1.02
0.22,-1.51,1
0.28,-1.52,0.9
0.29,-1.53,0.85
0.24,-1.49,0.89
0.22,-1.45,0.79
0.37,-1.37,0.72
0.42,-1.3,0.68
0.4,-1.22,0.65
0.36,-1.16,0.63
0.37,-1.12,0.6
0.38,-1.08,0.59
0.36,-1.04,0.58
0.34,-0.96,0.57
0.34,-0.89,0.55
0.36,-0.85,0.54
0.33,-0.77,0.58
0.28,-0.71,0.58
0.25,-0.68,0.51
0.23,-0.63,0.48
0.26,-0.54,0.45
0.26,-0.48,0.48
0.2,-0.48,0.56
0.16,-0.46,0.62
0.14,-0.41,0.63
0.14,-0.35,0.58
0.12,-0.3,0.51
0.05,-0.25,0.42
0.01,-0.19,0.34
-0.03,-0.14,0.28
-0.07,-0.1,0.27
-0.09,-0.06,0.37
-0.09,-0.01,0.44
-0.1,0.01,0.49
-0.1,0.02,0.51
-0.12,0.03,0.51
-0.13,0.03,0.47
-0.14,0.03,0.43
-0.14,0.06,0.4
-0.13,0.08,0.38
-0.1,0.09,0.4
-0.09,0.09,0.45
-0.09,0.07,0.5
-0.09,0.07,0.55
-0.09,0.1,0.57
-0.09,0.09,0.56
-0.1,0.08,0.54
-0.1,0.09,0.53
-0.11,0.1,0.54
-0.12,0.09,0.56
-0.1,0.08,0.59
-0.11,0.08,0.62
-0.13,0.09,0.66
-0.15,0.09,0.7
-0.16,0.08,0.73
-0.17,0.08,0.76
-0.18,0.08,0.77
-0.18,0.09,0.79
-0.19,0.08,0.82
-0.19,0.07,0.85
-0.2,0.06,0.88
-0.2,0.05,0.91
-0.22,0.02,0.95
-0.23,0.01,0.97
-0.23,0.02,0.99
-0.22,0.02,1.01
-0.21,0.03,1.01
-0.2,0.04,1.02
-0.2,0.01,1.06
-0.21,-0.03,1.09
-0.23,-0.04,1.11
-0.24,-0.03,1.14
-0.25,-0.04,1.15
-0.25,-0.05,1.16
-0.27,-0.05,1.15
-0.27,-0.06,1.14
-0.25,-0.06,1.14
-0.22,-0.06,1.14
-0.2,-0.07,1.13
-0.17,-0.08,1.08
-0.13,-0.09,1.02
-0.1,-0.14,0.97
-0.07,-0.18,0.92
-0.03,-0.17,0.86
0.06,-0.16,0.77
0.08,-0.16,0.69
0.11,-0.18,0.6
0.14,-0.2,0.52
0.16,-0.22,0.45
0.18,-0.26,0.41
0.2,-0.27,0.38
0.23,-0.27,0.35
0.25,-0.27,0.32
0.27,-0.28,0.29
0.27,-0.31,0.27
0.27,-0.36,0.25
0.27,-0.42,0.26
0.27,-0.49,0.3
0.27,-0.54,0.31
0.28,-0.58,0.27
0.31,-0.59,0.24
0.31,-0.6,0.22
0.29,-0.65,0.24
0.31,-0.71,0.31
0.33,-0.75,0.39
0.36,-0.83,0.46
0.37,-0.89,0.5
0.4,-0.94,0.51
0.44,-1,0.5
0.47,-1.07,0.5
0.52,-1.26,0.59
0.52,-1.35,0.66
0.49,-1.39,0.73
0.47,-1.4,0.79
0.45,-1.41,0.84
0.43,-1.43,0.88
0.4,-1.43,0.95
0.39,-1.44,0.99
0.37,-1.48,1.03
0.36,-1.51,1.07
0.34,-1.51,1.09
0.31,-1.5,1.15
0.31,-1.48,1.19
0.32,-1.48,1.21
0.32,-1.47,1.24
0.29,-1.43,1.31
0.29,-1.42,1.34
0.32,-1.35,1.27
0.29,-1.12,1.37
0.15,-1.41,2.75
-0.37,-1.76,3.59
-0.37,-1.56,2.26
-0.27,-1.09,1.12
-0.66,-0.87,0.8
-0.66,-1.05,0.65
-0.66,-1.09,0.74
-0.64,-1.16,0.77
0.11,-1.05,0.77
0.15,-0.94,0.75
0.11,-0.92,0.7
0.12,-0.94,0.61
0.21,-0.97,0.5
0.31,-0.97,0.42
0.39,-0.94,0.37
0.44,-0.96,0.36
0.45,-0.99,0.34
0.44,-0.99,0.32
0.43,-0.96,0.29
0.42,-0.94,0.26
0.41,-0.94,0.22
0.4,-0.94,0.19
0.36,-0.95,0.17
0.33,-0.95,0.14
0.32,-0.94,0.11
0.33,-0.92,0.1
0.37,-0.93,0.07
0.38,-0.92,0.06
0.38,-0.89,0.07
0.4,-0.88,0.06
0.4,-0.86,0.06
0.39,-0.86,0.08
0.39,-0.85,0.09
0.38,-0.83,0.09
0.38,-0.8,0.09
0.38,-0.8,0.09
0.38,-0.82,0.09
0.38,-0.85,0.08
0.38,-0.85,0.09
0.37,-0.83,0.09
0.36,-0.82,0.1
0.36,-0.82,0.11
0.36,-0.82,0.13
0.35,-0.83,0.14
0.34,-0.84,0.16
0.33,-0.85,0.17
0.33,-0.86,0.19
0.34,-0.88,0.19
0.35,-0.88,0.2
0.35,-0.88,0.21
0.35,-0.88,0.21
0.35,-0.88,0.22
0.33,-0.92,0.24
0.31,-0.96,0.27
0.29,-0.98,0.3
0.28,-0.98,0.31
0.27,-0.98,0.33
0.26,-0.98,0.34
0.24,-0.99,0.35
0.23,-1,0.36
0.22,-1,0.36
0.22,-1,0.37
0.2,-1.01,0.38
0.19,-1.02,0.4
0.18,-1.02,0.41
0.17,-1.01,0.42
0.17,-1,0.43
0.16,-0.99,0.44
0.15,-0.99,0.45
0.15,-1.01,0.47
0.14,-1.03,0.48
0.14,-1.04,0.48
0.14,-1.03,0.47
0.14,-1.02,0.44
0.11,-1.03,0.47
0.04,-1.03,0.57
-0.05,-1.04,0.65
-0.02,-1.05,0.66
0.1,-1.04,0.62
0.17,-1.01,0.56
0.21,-0.98,0.5
0.23,-0.98,0.45
0.25,-0.97,0.42
0.27,-0.96,0.41
0.28,-0.95,0.38
0.29,-0.95,0.32
0.27,-0.97,0.3
0.25,-0.98,0.29
0.24,-0.98,0.28
0.25,-0.97,0.27
0.27,-0.95,0.27
0.28,-0.94,0.27
0.28,-0.94,0.27
0.29,-0.95,0.27
0.29,-0.96,0.27
0.3,-0.97,0.26
0.32,-0.96,0.24
0.33,-0.95,0.22
0.34,-0.94,0.2
0.36,-0.94,0.19
0.37,-0.94,0.2
0.38,-0.95,0.21
0.39,-0.97,0.22
0.39,-0.97,0.22
0.4,-0.96,0.21
0.41,-0.94,0.2
0.41,-0.94,0.19
0.4,-0.94,0.18
0.39,-0.94,0.17
0.39,-0.94,0.18
0.4,-0.91,0.18
0.4,-0.9,0.21
0.42,-0.9,0.22
0.43,-0.89,0.21
0.43,-0.89,0.2
0.43,-0.9,0.19
0.43,-0.9,0.2
0.43,-0.9,0.21
0.43,-0.89,0.23
0.44,-0.87,0.24
0.44,-0.86,0.25
0.44,-0.85,0.25
0.45,-0.85,0.25
0.44,-0.85,0.25
0.44,-0.86,0.25
0.43,-0.86,0.26
0.43,-0.85,0.25
0.42,-0.84,0.25
0.43,-0.84,0.26
0.42,-0.84,0.26
0.4,-0.85,0.26
0.39,-0.86,0.27
0.4,-0.87,0.27
0.39,-0.88,0.27
0.37,-0.89,0.28
0.37,-0.89,0.29
0.37,-0.89,0.29
0.37,-0.91,0.28
0.36,-0.92,0.28
0.35,-0.91,0.29
0.34,-0.91,0.31
0.33,-0.94,0.31
0.32,-0.94,0.31
0.32,-0.95,0.33
0.32,-0.97,0.37
0.28,-0.97,0.39
0.25,-0.96,0.44
0.2,-0.94,0.48
0.12,-0.94,0.5
0.05,-0.96,0.51
-0.01,-0.99,0.5
-0.03,-0.97,0.48
-0.03,-0.95,0.45
-0.03,-0.95,0.43
-0.02,-0.97,0.48
0,-0.98,0.54
0.07,-1,0.58
0.12,-1.03,0.63
0.12,-1.05,0.65
0.05,-1.07,0.67
-0.07,-1.09,0.64
-0.11,-1.1,0.6
-0.14,-1.09,0.65
-0.16,-1.1,0.79
-0.13,-1.19,1.07
-0.22,-1.24,1.13
-0.29,-1.26,1.1
-0.38,-1.28,1.04
-0.39,-1.31,1
-0.38,-1.35,1.03
-0.34,-1.41,1.09
-0.25,-1.45,1.12
-0.21,-1.49,1.13
-0.21,-1.5,1.14
-0.21,-1.52,1.14
-0.18,-1.56,1.13
-0.13,-1.56,1.11
-0.1,-1.58,1.09
-0.06,-1.59,1.05
-0.03,-1.58,0.99
0,-1.57,0.92
0.04,-1.6,0.84
0.09,-1.6,0.79
0.09,-1.55,0.78
0.13,-1.5,0.77
0.19,-1.41,0.74
0.18,-1.33,0.72
0.19,-1.29,0.69
0.2,-1.28,0.65
0.19,-1.27,0.59
0.17,-1.13,0.53
0.17,-1.02,0.56
0.18,-0.95,0.6
0.2,-0.91,0.62
0.2,-0.87,0.62
0.2,-0.83,0.57
0.24,-0.74,0.46
0.33,-0.61,0.42
0.33,-0.51,0.5
0.25,-0.5,0.6
0.13,-0.51,0.71
0.08,-0.52,0.74
0.07,-0.51,0.67
0.05,-0.48,0.59
0.07,-0.41,0.53
0.1,-0.37,0.48
0.06,-0.34,0.48
0.02,-0.27,0.48
0.02,-0.21,0.49
0.02,-0.15,0.5
0,-0.11,0.47
0.01,-0.06,0.39
0.01,-0.01,0.34
-0.01,0.03,0.29
-0.02,0.06,0.24
0.01,0.08,0.22
0.01,0.12,0.26
0,0.15,0.29
0,0.15,0.33
-0.01,0.16,0.37
-0.03,0.18,0.39
-0.05,0.17,0.39
-0.08,0.18,0.41
-0.07,0.18,0.42
-0.05,0.14,0.43
-0.06,0.1,0.49
-0.08,0.09,0.54
-0.12,0.11,0.58
-0.16,0.13,0.62
-0.16,0.13,0.65
-0.15,0.12,0.67
-0.16,0.1,0.68
-0.17,0.07,0.68
-0.15,0.05,0.67
-0.15,0.03,0.66
-0.15,0.03,0.68
-0.15,0.04,0.69
-0.15,0.02,0.68
-0.15,0.01,0.65
-0.12,-0.01,0.6
-0.11,-0.05,0.56
-0.12,-0.1,0.56
-0.12,-0.09,0.55
-0.02,-0.1,0.51
0.01,-0.12,0.46
0.02,-0.14,0.4
0.03,-0.19,0.37
0.03,-0.26,0.4
0.07,-0.28,0.46
0.14,-0.3,0.51
0.18,-0.34,0.53
0.2,-0.38,0.54
0.19,-0.42,0.5
0.18,-0.46,0.43
0.16,-0.5,0.38
0.17,-0.53,0.42
0.25,-0.56,0.52
0.35,-0.62,0.61
0.4,-0.71,0.64
0.43,-0.77,0.62
0.43,-0.82,0.59
0.39,-0.86,0.59
0.37,-0.91,0.63
0.39,-0.91,0.67
0.41,-0.89,0.69
0.44,-0.94,0.68
0.49,-1.02,0.64
0.49,-1.13,0.67
0.51,-1.2,0.75
0.58,-1.24,0.78
0.58,-1.22,0.79
0.57,-1.19,0.84
0.6,-1.22,0.82
0.61,-1.31,0.84
0.59,-1.36,0.92
0.58,-1.39,0.95
0.54,-1.41,0.95
0.52,-1.39,0.9
0.51,-1.37,0.87
0.5,-1.38,0.84
0.49,-1.43,0.86
0.47,-1.44,0.92
0.45,-1.43,0.97
0.45,-1.42,1.02
0.47,-1.4,1.06
0.46,-1.33,1.08
0.45,-1.29,1.07
0.43,-1.29,1.03
0.39,-1.27,0.98
0.36,-1.24,0.94
0.36,-1.15,0.88
0.44,-1.15,1.11
0.39,-1.36,2.12
0.09,-1.49,2.66
-0.19,-1.47,0.97
-0.42,-0.92,0.71
-0.76,-0.96,0.73
-0.86,-1.1,0.85
-0.73,-1.19,0.86
-0.31,-1.11,0.76
0,-0.95,0.66
0.01,-0.95,0.54
0.13,-0.96,0.45
0.31,-0.93,0.41
0.37,-0.93,0.44
0.32,-0.95,0.53
0.23,-1.01,0.61
0.12,-1.08,0.61
0.04,-1.12,0.54
-0.04,-1.13,0.54
-0.12,-1.14,0.64
-0.14,-1.19,0.75
-0.12,-1.23,0.81
-0.09,-1.27,0.83
-0.12,-1.29,0.86
-0.17,-1.35,0.9
-0.19,-1.46,0.94
-0.19,-1.51,0.97
-0.18,-1.45,1.03
-0.19,-1.33,1.08
-0.2,-1.25,1.09
-0.15,-1.29,1.04
-0.11,-1.34,1.01
-0.08,-1.38,1
-0.04,-1.37,1.01
-0.01,-1.35,1.03
0.02,-1.36,1
0.05,-1.41,0.94
0.08,-1.46,0.87
0.11,-1.47,0.84
0.15,-1.47,0.86
0.18,-1.47,0.89
0.19,-1.47,0.87
0.18,-1.45,0.8
0.17,-1.42,0.71
0.17,-1.31,0.64
0.19,-1.18,0.6
0.21,-1.09,0.59
0.22,-1.02,0.61
0.23,-0.93,0.65
0.23,-0.83,0.72
0.19,-0.73,0.73
0.18,-0.66,0.66
0.2,-0.62,0.57
0.19,-0.6,0.48
0.22,-0.6,0.42
0.27,-0.62,0.4
0.31,-0.54,0.44
0.26,-0.46,0.45
0.27,-0.39,0.43
0.25,-0.31,0.4
0.24,-0.22,0.38
0.24,-0.19,0.38
0.21,-0.19,0.38
0.18,-0.16,0.38
0.14,-0.11,0.36
0.11,-0.05,0.37
0.1,0,0.39
0.09,0.04,0.39
0.08,0.08,0.4
0.1,0.06,0.38
0.1,0.02,0.37
0.07,0.02,0.38
0.06,0.06,0.42
0.04,0.1,0.47
0.01,0.12,0.51
-0.03,0.12,0.55
-0.07,0.09,0.56
-0.09,0.09,0.53
-0.09,0.1,0.5
-0.08,0.12,0.5
-0.08,0.12,0.56
-0.08,0.09,0.63
-0.12,0.06,0.72
-0.16,0.07,0.69
-0.17,0.07,0.63
-0.16,0.07,0.57
-0.14,0.05,0.53
-0.12,0.03,0.5
-0.06,0.02,0.48
0,0.03,0.47
0.04,0.04,0.47
0.06,0.01,0.46
0.05,-0.01,0.44
0.04,-0.04,0.43
0.02,-0.07,0.42
0.01,-0.11,0.41
0.01,-0.13,0.39
0.04,-0.13,0.37
0.07,-0.12,0.4
0.12,-0.15,0.43
0.15,-0.24,0.44
0.15,-0.34,0.43
0.14,-0.37,0.44
0.14,-0.4,0.46
0.15,-0.44,0.47
0.21,-0.48,0.46
0.27,-0.47,0.44
0.26,-0.46,0.42
0.26,-0.49,0.45
0.33,-0.61,0.5
0.39,-0.71,0.55
0.4,-0.81,0.6
0.37,-0.88,0.67
0.35,-0.89,0.66
0.35,-0.84,0.59
0.34,-0.81,0.58
0.37,-0.84,0.61
0.44,-0.92,0.64
0.5,-1.01,0.67
0.53,-1.07,0.71
0.59,-1.13,0.76
0.67,-1.16,0.82
0.68,-1.16,0.85
0.63,-1.16,0.82
0.6,-1.15,0.73
0.61,-1.17,0.68
0.64,-1.21,0.74
0.69,-1.29,0.84
0.71,-1.39,0.94
0.7,-1.43,1.03
0.67,-1.4,1.05
0.62,-1.35,0.98
0.56,-1.33,0.92
0.49,-1.34,0.92
0.45,-1.35,0.98
0.49,-1.32,1
0.52,-1.32,0.99
0.53,-1.32,0.96
0.51,-1.29,0.93
0.47,-1.24,0.91
0.45,-1.19,0.9
0.45,-1.22,0.88
0.41,-1.21,0.87
0.53,-1.23,1.06
0.71,-1.41,2.23
0.42,-1.46,2.87
0.03,-1.46,2.03
-0.02,-1.34,1.24
-0.11,-1.06,0.81
-0.35,-1,0.65
-0.46,-1.08,0.57
-0.46,-1.08,0.56
-0.35,-1.07,0.65
0.01,-1.07,0.73
0.32,-1.09,0.75
0.26,-1.06,0.66
0.1,-0.98,0.49
0.05,-0.93,0.35
0.07,-0.9,0.26
0.1,-0.95,0.26
0.05,-1.01,0.49
-0.05,-1.12,0.56
-0.08,-1.11,0.61
-0.09,-1.07,0.66
-0.1,-1.06,0.78
-0.08,-1.08,0.88
-0.04,-1.12,0.91
-0.05,-1.17,0.9
-0.08,-1.22,0.86
-0.15,-1.26,0.87
-0.17,-1.28,0.9
-0.18,-1.31,0.98
-0.18,-1.35,1.06
-0.12,-1.39,1.11
-0.1,-1.44,1.11
-0.08,-1.46,1.06
-0.09,-1.44,1.01
-0.07,-1.41,0.99
-0.01,-1.41,1
0.05,-1.43,1.03
0.06,-1.46,1.06
0.05,-1.47,1.04
0.03,-1.43,1.01
0,-1.35,0.98
0.01,-1.33,0.97
0.03,-1.34,0.94
0.08,-1.36,0.81
0.1,-1.27,0.82
0.14,-1.24,0.83
0.18,-1.23,0.78
0.14,-1.18,0.76
0.11,-1.14,0.69
0.14,-1.09,0.56
0.21,-1.05,0.47
0.23,-0.97,0.43
0.22,-0.86,0.48
0.3,-0.8,0.57
0.3,-0.75,0.6
0.24,-0.71,0.54
0.18,-0.66,0.47
0.16,-0.61,0.43
0.18,-0.52,0.39
0.22,-0.41,0.36
0.23,-0.34,0.39
0.23,-0.3,0.42
0.2,-0.27,0.46
0.12,-0.24,0.5
0.1,-0.18,0.5
0.07,-0.12,0.5
0.06,-0.1,0.52
0.06,-0.1,0.52
0.02,-0.04,0.51
0.01,0.02,0.49
0.01,0.07,0.47
0,0.06,0.46
-0.02,0.05,0.48
-0.02,0.03,0.53
-0.01,0.02,0.56
0,0.04,0.56
-0.01,0.09,0.55
-0.04,0.13,0.51
-0.07,0.16,0.49
-0.09,0.16,0.49
-0.11,0.14,0.54
-0.15,0.11,0.59
-0.17,0.11,0.63
-0.19,0.12,0.65
-0.17,0.14,0.65
-0.17,0.16,0.67
-0.17,0.16,0.73
-0.16,0.13,0.78
-0.16,0.11,0.79
-0.2,0.11,0.79
-0.22,0.13,0.79
-0.22,0.13,0.81
-0.24,0.11,0.86
-0.25,0.12,0.89
-0.25,0.13,0.92
-0.26,0.13,0.94
-0.25,0.12,0.95
-0.23,0.12,0.95
-0.22,0.11,0.94
-0.2,0.11,0.92
-0.18,0.11,0.91
-0.17,0.1,0.88
-0.16,0.1,0.85
-0.14,0.09,0.81
-0.12,0.08,0.74
-0.09,0.08,0.65
-0.05,0.09,0.56
-0.01,0.08,0.49
0.01,0.08,0.42
0.04,0.08,0.35
0.07,0.07,0.31
0.08,0.06,0.29
0.1,0.02,0.27
0.11,-0.03,0.25
0.11,-0.09,0.21
0.12,-0.13,0.17
0.13,-0.15,0.15
0.13,-0.18,0.17
0.15,-0.2,0.21
0.18,-0.2,0.25
0.21,-0.26,0.27
0.24,-0.38,0.26
0.26,-0.58,0.25
0.29,-0.63,0.3
0.31,-0.66,0.37
0.32,-0.7,0.44
0.31,-0.75,0.49
0.28,-0.77,0.48
0.23,-0.81,0.48
0.23,-0.89,0.48
0.27,-0.99,0.49
0.3,-1.09,0.54
0.32,-1.19,0.59
0.33,-1.27,0.64
0.34,-1.31,0.69
0.35,-1.32,0.74
0.34,-1.33,0.8
0.33,-1.35,0.83
0.34,-1.37,0.83
0.36,-1.41,0.82
0.36,-1.48,0.8
0.33,-1.54,0.82
0.29,-1.6,0.89
0.29,-1.62,0.95
0.31,-1.58,1
0.31,-1.51,1.02
0.3,-1.45,1.03
0.28,-1.45,1.03
0.26,-1.51,1.04
0.23,-1.64,1.07
0.19,-1.66,1.14
0.19,-1.59,1.19
0.18,-1.47,1.22
0.16,-1.34,1.22
0.13,-1.26,1.18
0.12,-1.22,1.12
0.08,-1.22,1.08
0.03,-1.24,1.08
0.04,-1.24,1.07
0.04,-1.25,1.03
0.04,-1.3,1.22
-0.12,-1.35,1.76
-0.38,-1.24,2
-0.54,-1.13,1.57
-0.57,-1.13,1.04
-0.5,-1.06,0.79
-0.33,-1.02,0.69
-0.03,-1,0.63
0.2,-1.04,0.62
0.26,-1.07,0.61
0.22,-1.05,0.55
0.23,-1.03,0.4
0.28,-1,0.23
0.29,-1,0.12
0.28,-0.98,0.04
0.3,-0.96,0.04
0.3,-0.93,0.05
0.28,-0.92,0.07
0.27,-0.92,0.09
0.29,-0.93,0.09
0.3,-0.95,0.06
0.31,-0.97,0.03
0.34,-0.98,-0.02
0.4,-0.99,-0.07
0.45,-0.98,-0.1
0.48,-0.96,-0.1
0.48,-0.97,-0.09
0.47,-0.98,-0.08
0.47,-0.97,-0.1
0.49,-0.96,-0.13
0.55,-0.94,-0.15
0.61,-0.91,-0.14
0.62,-0.86,-0.14
0.64,-0.82,-0.17
0.59,-0.77,-0.15
0.53,-0.74,-0.09
0.49,-0.73,-0.04
0.46,-0.76,0.01
0.45,-0.76,0.07
0.45,-0.76,0.12
0.44,-0.78,0.18
0.4,-0.88,0.21
0.4,-0.92,0.24
0.39,-0.95,0.28
0.37,-0.99,0.33
0.34,-1.02,0.37
0.29,-1.05,0.45
0.24,-1.08,0.54
0.19,-1.12,0.59
0.14,-1.11,0.61
0.08,-1.11,0.64
0.02,-1.12,0.69
-0.03,-1.11,0.74
-0.07,-1.11,0.84
-0.1,-1.08,0.96
-0.12,-1.05,1.03
-0.14,-1.04,1.11
-0.18,-1.06,1.18
-0.23,-1.1,1.24
-0.26,-1.12,1.26
-0.29,-1.16,1.28
-0.33,-1.21,1.35
-0.35,-1.26,1.38
-0.36,-1.34,1.36
-0.33,-1.42,1.35
-0.3,-1.51,1.33
-0.27,-1.6,1.41
-0.19,-1.7,1.4
-0.2,-1.7,1.34
-0.21,-1.71,1.24
-0.2,-1.75,1.15
-0.17,-1.84,1.12
-0.09,-1.89,1.1
-0.01,-1.88,1.09
0.02,-1.86,1.08
0.05,-1.83,1.06
0.1,-1.8,0.99
0.14,-1.82,0.9
0.17,-1.83,0.81
0.2,-1.74,0.73
0.24,-1.64,0.71
0.26,-1.61,0.69
0.26,-1.57,0.65
0.25,-1.5,0.61
0.26,-1.42,0.56
0.29,-1.35,0.5
0.31,-1.28,0.45
0.31,-1.2,0.41
0.3,-1.12,0.36
0.3,-0.98,0.3
0.29,-0.82,0.28
0.28,-0.72,0.31
0.3,-0.7,0.32
0.32,-0.58,0.23
0.34,-0.49,0.17
0.32,-0.41,0.1
0.27,-0.31,0.07
0.25,-0.23,0.09
0.24,-0.19,0.11
0.24,-0.17,0.08
0.28,-0.12,0.03
0.29,-0.04,-0.02
0.26,0.02,-0.04
0.24,0.04,-0.04
0.21,0.09,-0.04
0.18,0.15,-0.03
0.17,0.19,-0.04
0.18,0.24,-0.02
0.18,0.22,0.04
0.17,0.16,0.08
0.16,0.18,0.11
0.15,0.22,0.15
0.14,0.23,0.15
0.11,0.23,0.14
0.07,0.24,0.13
0.06,0.23,0.15
0.06,0.2,0.18
0.04,0.17,0.23
0.02,0.16,0.28
0.04,0.15,0.28
0.09,0.14,0.24
0.12,0.09,0.19
0.11,0.02,0.16
0.1,-0.05,0.14
0.08,-0.08,0.14
0.09,-0.08,0.16
0.11,-0.1,0.17
0.12,-0.15,0.16
0.14,-0.24,0.14
0.16,-0.35,0.11
0.13,-0.47,0.15
0.09,-0.53,0.21
0.13,-0.52,0.27
0.21,-0.52,0.34
0.25,-0.57,0.4
0.27,-0.63,0.44
0.3,-0.72,0.45
0.32,-0.86,0.45
0.31,-1,0.47
0.3,-1.09,0.49
0.37,-1.09,0.49
0.42,-0.88,0.56
0.43,-1.03,0.48
0.45,-1.37,0.48
0.41,-1.38,0.63
0.37,-1.5,0.67
0.39,-1.6,0.67
0.37,-1.68,0.68
0.41,-1.69,0.71
0.47,-1.68,0.73
0.47,-1.69,0.76
0.46,-1.73,0.82
0.48,-1.73,0.87
0.47,-1.7,0.88
0.43,-1.71,0.9
0.4,-1.75,0.93
0.41,-1.8,0.93
0.41,-1.81,0.91
0.38,-1.81,0.9
0.34,-1.81,0.92
0.34,-1.76,0.97
0.34,-1.68,1.02
0.33,-1.62,1.01
0.34,-1.56,0.96
0.36,-1.49,0.93
0.36,-1.46,1.01
0.77,-1.68,1.43
1.25,-2.25,2.88
-0.45,-2.02,3.31
-1.48,-1.07,1.75
-0.68,-0.71,0.47
-0.55,-0.73,0.4
-0.76,-0.91,0.54
-0.36,-1.25,0.7
0.4,-1.44,0.82
0.62,-1.44,0.71
0.42,-1.27,0.43
0.48,-1.02,0.16
0.64,-0.87,-0.1
0.68,-0.88,-0.31
0.6,-0.89,-0.35
0.48,-0.88,-0.27
0.37,-0.85,-0.19
0.34,-0.83,-0.15
0.3,-0.82,-0.1
0.26,-0.76,-0.04
0.27,-0.72,0.01
0.27,-0.72,0.06
0.31,-0.73,0.1
0.36,-0.73,0.12
0.4,-0.76,0.07
0.43,-0.77,0.02
0.45,-0.77,-0.02
0.45,-0.77,-0.04
0.45,-0.76,-0.06
0.46,-0.75,-0.05
0.49,-0.75,-0.04
0.5,-0.75,-0.01
0.48,-0.78,0
0.46,-0.8,0.03
0.43,-0.83,0.05
0.4,-0.86,0.07
0.38,-0.9,0.08
0.37,-0.93,0.07
0.37,-0.94,0.05
0.37,-0.96,0.04
0.37,-0.99,0.04
0.36,-1.05,0.06
0.36,-1.11,0.08
0.36,-1.15,0.09
0.36,-1.17,0.1
0.35,-1.17,0.09
0.36,-1.19,0.07
0.35,-1.23,0.04
0.35,-1.26,0.02
0.35,-1.27,0.04
0.36,-1.28,0.06
0.36,-1.27,0.09
0.36,-1.25,0.12
0.36,-1.22,0.13
0.36,-1.17,0.13
0.35,-1.09,0.16
0.35,-1.01,0.17
0.36,-0.95,0.2
0.4,-0.87,0.24
0.39,-0.84,0.28
0.34,-0.81,0.3
0.33,-0.79,0.3
0.3,-0.79,0.23
0.21,-0.84,0.28
0.02,-0.94,0.48
-0.18,-1.06,0.68
-0.06,-1.13,0.77
0.34,-1.19,0.68
0.61,-1.27,0.47
0.6,-1.3,0.36
0.51,-1.29,0.33
0.49,-1.25,0.26
0.47,-1.2,0.23
0.42,-1.14,0.23
0.39,-1.08,0.24
0.38,-0.99,0.23
0.36,-0.9,0.21
0.34,-0.83,0.19
0.32,-0.77,0.18
0.31,-0.72,0.16
0.33,-0.68,0.13
0.35,-0.65,0.13
0.35,-0.62,0.14
0.31,-0.58,0.19
0.26,-0.53,0.22
0.25,-0.52,0.22
0.26,-0.53,0.21
0.28,-0.54,0.2
0.33,-0.56,0.18
0.38,-0.58,0.15
0.37,-0.61,0.14
0.35,-0.62,0.13
0.35,-0.62,0.12
0.34,-0.64,0.12
0.36,-0.66,0.14
0.36,-0.67,0.19
0.31,-0.68,0.25
0.27,-0.72,0.28
0.29,-0.73,0.26
0.35,-0.72,0.18
0.36,-0.73,0.15
0.35,-0.73,0.17
0.35,-0.73,0.17
0.32,-0.75,0.17
0.27,-0.77,0.2
0.24,-0.76,0.22
0.22,-0.78,0.19
0.19,-0.83,0.17
0.17,-0.93,0.2
0.14,-1.05,0.3
0.15,-1.23,0.58
0.14,-1.19,0.56
0.42,-1.09,0.41
0.68,-1.02,0.29
0.74,-0.94,0.18
0.68,-0.91,0.09
0.63,-0.9,-0.02
0.59,-0.87,-0.07
0.59,-0.9,-0.06
0.57,-0.9,0.02
0.51,-0.85,0.12
0.53,-0.8,0.17
0.59,-0.76,0.17
0.58,-0.71,0.17
0.52,-0.67,0.19
0.46,-0.66,0.27
0.41,-0.68,0.38
0.39,-0.72,0.51
0.38,-0.78,0.63
0.4,-0.85,0.74
0.45,-0.9,0.8
0.51,-0.9,0.78
0.57,-0.83,0.71
0.6,-0.79,0.61
0.57,-0.79,0.52
0.56,-0.77,0.49
0.55,-0.81,0.52
0.57,-0.85,0.55
0.58,-0.87,0.56
0.6,-0.86,0.55
0.6,-0.83,0.55
0.58,-0.79,0.55
0.58,-0.78,0.54
0.59,-0.79,0.56
0.6,-0.82,0.61
0.62,-0.87,0.65
0.64,-0.91,0.67
0.64,-0.93,0.68
0.63,-0.93,0.68
0.63,-0.95,0.69
0.66,-0.97,0.73
0.71,-1,0.79
0.7,-1,0.86
0.6,-0.94,0.94
0.5,-0.85,1
0.44,-0.75,0.98
0.4,-0.65,0.92
0.39,-0.56,0.86
0.39,-0.5,0.81
0.4,-0.45,0.75
0.43,-0.4,0.69
0.47,-0.36,0.66
0.52,-0.3,0.61
0.62,-0.26,0.62
0.63,-0.27,0.67
0.63,-0.27,0.74
0.63,-0.27,0.8
0.61,-0.27,0.85
0.59,-0.27,0.88
0.59,-0.27,0.89
0.61,-0.25,0.92
0.62,-0.26,0.97
0.59,-0.29,1.03
0.55,-0.32,1.1
0.54,-0.37,1.1
0.56,-0.41,1.04
0.58,-0.44,0.95
0.6,-0.46,0.88
0.61,-0.49,0.84
0.61,-0.52,0.78
