Acc_x,Acc_y,Acc_z
0.6,-0.39,0.72
0.6,-0.39,0.72
0.6,-0.4,0.73
0.59,-0.39,0.73
0.59,-0.39,0.73
0.58,-0.39,0.74
0.59,-0.38,0.73
0.6,-0.39,0.72
0.6,-0.39,0.72
0.6,-0.39,0.72
0.61,-0.39,0.71
0.61,-0.39,0.71
0.61,-0.39,0.71
0.61,-0.38,0.71
0.62,-0.38,0.71
0.61,-0.39,0.71
0.6,-0.39,0.72
0.6,-0.39,0.72
0.61,-0.39,0.72
0.61,-0.4,0.72
0.61,-0.4,0.71
0.62,-0.4,0.72
0.63,-0.41,0.73
0.66,-0.42,0.73
0.65,-0.43,0.74
0.64,-0.42,0.73
0.63,-0.42,0.73
0.58,-0.41,0.75
0.58,-0.39,0.76
0.62,-0.4,0.76
0.63,-0.42,0.79
0.6,-0.43,0.82
0.59,-0.44,0.83
0.6,-0.44,0.81
0.58,-0.42,0.83
0.56,-0.42,0.87
0.55,-0.43,0.9
0.55,-0.43,0.96
0.59,-0.45,1.02
0.62,-0.48,1.05
0.61,-0.49,1.05
0.59,-0.48,1.03
0.6,-0.47,1.03
0.61,-0.48,1.04
0.62,-0.48,1.05
0.64,-0.45,1.06
0.66,-0.43,1.07
0.67,-0.41,1.09
0.67,-0.38,1.1
0.67,-0.36,1.11
0.66,-0.36,1.11
0.64,-0.35,1.11
0.61,-0.33,1.12
0.6,-0.31,1.13
0.59,-0.31,1.14
0.63,-0.33,1.18
0.69,-0.35,1.2
0.7,-0.34,1.17
0.68,-0.3,1.1
0.65,-0.23,0.97
0.59,-0.11,0.91
0.55,-0.05,0.83
0.54,0,0.77
0.54,0.04,0.73
0.51,0.09,0.7
0.48,0.13,0.65
0.45,0.19,0.59
0.44,0.23,0.54
0.45,0.23,0.49
0.4,0.24,0.48
0.34,0.29,0.5
0.28,0.31,0.51
0.28,0.32,0.49
0.32,0.32,0.48
0.32,0.31,0.48
0.29,0.32,0.48
0.27,0.33,0.45
0.26,0.34,0.43
0.23,0.34,0.42
0.21,0.35,0.41
0.22,0.36,0.39
0.21,0.37,0.34
0.16,0.38,0.33
0.12,0.38,0.32
0.15,0.39,0.3
0.19,0.38,0.33
0.2,0.33,0.35
0.3,0.31,0.36
0.37,0.27,0.39
0.36,0.26,0.41
0.34,0.26,0.43
0.32,0.26,0.42
0.29,0.26,0.4
0.26,0.26,0.36
0.21,0.27,0.31
0.18,0.28,0.26
0.16,0.26,0.2
0.2,0.27,0.21
0.28,0.23,0.26
0.3,0.13,0.27
0.34,0.07,0.29
0.43,0.03,0.32
0.5,-0.02,0.33
0.55,-0.07,0.32
0.54,-0.09,0.35
0.43,-0.12,0.43
0.39,-0.17,0.48
0.28,-0.2,0.58
0.2,-0.23,0.66
0.21,-0.29,0.62
0.2,-0.33,0.55
0.18,-0.39,0.48
0.25,-0.6,0.47
0.37,-0.79,0.6
0.09,-2.46,2.36
1.72,-3.15,3.99
2.44,-1.7,4
0.82,-0.94,3.8
0.6,-0.85,2.59
0.59,-0.62,1.13
0.28,-0.14,0.43
0.14,0.06,0.08
0.26,-0.01,-0.07
0.34,-0.12,-0.07
0.32,-0.19,-0.01
0.3,-0.25,0.05
0.28,-0.25,0.14
0.27,-0.29,0.24
0.35,-0.39,0.44
0.55,-0.48,0.79
0.73,-0.57,1.16
0.85,-0.58,1.33
0.81,-0.53,1.35
0.61,-0.43,1.34
0.47,-0.34,1.21
0.45,-0.31,1
0.49,-0.3,0.78
0.5,-0.28,0.52
0.5,-0.33,0.48
0.53,-0.38,0.5
0.58,-0.42,0.57
0.6,-0.44,0.67
0.63,-0.44,0.75
0.64,-0.43,0.81
0.64,-0.41,0.85
0.62,-0.39,0.86
0.57,-0.37,0.84
0.52,-0.35,0.81
0.51,-0.35,0.78
0.52,-0.36,0.76
0.52,-0.37,0.75
0.53,-0.39,0.75
0.54,-0.4,0.76
0.55,-0.4,0.77
0.56,-0.39,0.77
0.57,-0.38,0.77
0.58,-0.38,0.77
0.59,-0.38,0.77
0.59,-0.38,0.77
0.59,-0.38,0.77
0.61,-0.38,0.78
0.61,-0.39,0.8
0.62,-0.38,0.81
0.6,-0.37,0.83
0.55,-0.35,0.86
0.55,-0.36,0.86
0.56,-0.38,0.86
0.58,-0.38,0.87
0.61,-0.39,0.88
0.6,-0.39,0.87
0.59,-0.39,0.9
0.59,-0.39,0.94
0.61,-0.38,0.95
0.62,-0.38,0.96
0.62,-0.39,0.96
0.6,-0.4,0.97
0.58,-0.39,0.99
0.56,-0.41,1
0.53,-0.44,1.01
0.5,-0.44,1.03
0.51,-0.44,1.04
0.54,-0.45,1.06
0.58,-0.47,1.06
0.62,-0.5,1.04
0.64,-0.51,1.06
0.66,-0.51,1.08
0.68,-0.51,1.1
0.69,-0.5,1.11
0.67,-0.48,1.12
0.64,-0.46,1.04
0.58,-0.39,1.05
0.59,-0.34,1.03
0.65,-0.3,0.97
0.69,-0.3,0.89
0.71,-0.28,0.83
0.74,-0.24,0.82
0.73,-0.18,0.8
0.72,-0.14,0.78
0.68,-0.11,0.77
0.63,-0.07,0.78
0.61,-0.04,0.75
0.63,-0.03,0.7
0.61,-0.01,0.66
0.56,0.02,0.62
0.56,0.06,0.59
0.56,0.07,0.55
0.49,0.1,0.5
0.42,0.14,0.49
0.41,0.17,0.49
0.41,0.18,0.48
0.38,0.19,0.48
0.38,0.21,0.52
0.41,0.22,0.54
0.43,0.23,0.53
0.41,0.25,0.53
0.39,0.29,0.52
0.37,0.29,0.52
0.39,0.29,0.52
0.38,0.32,0.51
0.34,0.35,0.5
0.31,0.39,0.48
0.29,0.42,0.47
0.26,0.43,0.47
0.26,0.44,0.49
0.28,0.45,0.49
0.31,0.45,0.5
0.34,0.45,0.51
0.34,0.46,0.5
0.32,0.46,0.48
0.27,0.48,0.45
0.24,0.48,0.42
0.23,0.48,0.41
0.26,0.45,0.44
0.35,0.41,0.49
0.43,0.36,0.55
0.46,0.34,0.61
0.49,0.32,0.66
0.47,0.32,0.67
0.4,0.31,0.66
0.33,0.33,0.62
0.27,0.35,0.55
0.21,0.37,0.37
0.11,0.38,0.26
0.11,0.35,0.2
0.23,0.3,0.22
0.4,0.19,0.31
0.56,0.08,0.42
0.63,0.01,0.49
0.54,-0.01,0.54
0.44,0.01,0.58
0.35,-0.01,0.59
0.26,-0.03,0.56
0.19,-0.06,0.51
0.19,-0.09,0.44
0.26,-0.13,0.42
0.34,-0.19,0.43
0.41,-0.3,0.48
0.38,-0.4,0.59
0.29,-0.45,0.69
0.28,-0.51,0.72
0.29,-0.59,0.72
0.86,-0.77,0.86
1.85,-2.37,2.28
2.42,-2.43,3.77
1.98,-0.76,3.97
1.25,-0.72,3.42
0.91,-0.94,2.21
0.45,-0.53,1.16
0.05,0.13,0.25
0.06,-0.04,0.11
0.13,-0.15,0.08
0.22,-0.14,0.08
0.2,-0.15,0.13
0.19,-0.22,0.23
0.28,-0.31,0.42
0.42,-0.41,0.75
0.65,-0.53,1.04
0.85,-0.58,1.2
0.93,-0.56,1.28
0.88,-0.54,1.26
0.72,-0.52,1.14
0.58,-0.48,0.96
0.46,-0.39,0.8
0.39,-0.34,0.66
0.36,-0.35,0.55
0.37,-0.36,0.51
0.41,-0.38,0.55
0.49,-0.41,0.62
0.55,-0.42,0.72
0.59,-0.42,0.81
0.62,-0.4,0.87
0.62,-0.38,0.91
0.61,-0.36,0.9
0.57,-0.35,0.87
0.48,-0.34,0.81
0.47,-0.36,0.81
0.46,-0.38,0.81
0.47,-0.4,0.81
0.49,-0.4,0.82
0.52,-0.4,0.85
0.55,-0.41,0.88
0.58,-0.43,0.9
0.58,-0.44,0.91
0.56,-0.43,0.92
0.56,-0.43,0.94
0.57,-0.44,0.95
0.59,-0.44,0.98
0.63,-0.45,1
0.65,-0.46,1
0.66,-0.45,1
0.66,-0.43,0.98
0.66,-0.42,0.96
0.68,-0.41,0.95
0.7,-0.4,0.95
0.74,-0.38,0.94
0.79,-0.36,0.95
0.83,-0.34,0.97
0.84,-0.31,0.98
0.84,-0.29,0.98
0.8,-0.26,0.96
0.76,-0.2,0.95
0.74,-0.18,0.94
0.74,-0.16,0.92
0.71,-0.13,0.87
0.7,-0.09,0.87
0.73,-0.08,0.91
0.71,-0.09,0.91
0.69,-0.08,0.88
0.67,-0.04,0.84
0.65,0.01,0.81
0.65,0.05,0.78
0.66,0.06,0.77
0.65,0.06,0.75
0.59,0.1,0.7
0.55,0.14,0.69
0.58,0.18,0.69
0.59,0.2,0.63
0.6,0.21,0.59
0.6,0.25,0.59
0.55,0.29,0.57
0.51,0.33,0.57
0.53,0.35,0.58
0.58,0.35,0.57
0.55,0.35,0.53
0.48,0.41,0.47
0.45,0.46,0.44
0.44,0.5,0.45
0.42,0.52,0.47
0.45,0.53,0.5
0.45,0.52,0.49
0.41,0.54,0.46
0.37,0.57,0.44
0.35,0.59,0.43
0.35,0.59,0.42
0.34,0.59,0.4
0.32,0.6,0.37
0.34,0.62,0.35
0.35,0.61,0.34
0.34,0.61,0.33
0.31,0.63,0.32
0.26,0.64,0.32
0.24,0.64,0.34
0.25,0.63,0.33
0.27,0.63,0.33
0.3,0.62,0.36
0.3,0.61,0.38
0.31,0.6,0.38
0.33,0.59,0.38
0.35,0.58,0.37
0.34,0.56,0.36
0.3,0.55,0.34
0.27,0.55,0.3
0.22,0.54,0.24
0.19,0.5,0.27
0.22,0.47,0.32
0.26,0.43,0.35
0.33,0.39,0.41
0.39,0.36,0.45
0.4,0.34,0.45
0.39,0.34,0.42
0.36,0.35,0.39
0.31,0.34,0.33
0.26,0.33,0.28
0.23,0.3,0.25
0.24,0.26,0.27
0.25,0.23,0.34
0.28,0.18,0.43
0.35,0.13,0.49
0.47,0.09,0.54
0.57,0.04,0.55
0.59,0,0.54
0.58,-0.03,0.57
0.56,-0.08,0.63
0.52,-0.13,0.65
0.46,-0.15,0.62
0.4,-0.18,0.58
0.35,-0.22,0.55
0.35,-0.28,0.49
0.35,-0.42,0.41
0.4,-0.5,0.43
1.53,-2.01,1.72
2.53,-2.28,3.48
2.14,-1.08,3.99
1.47,-0.9,3.48
0.99,-0.65,2.18
0.64,-0.28,0.95
0.18,0.19,0.3
0.06,0.25,0.04
0.16,0.03,-0.03
0.23,-0.12,-0.02
0.27,-0.11,0.03
0.24,-0.09,0.09
0.23,-0.14,0.17
0.3,-0.22,0.31
0.41,-0.33,0.61
0.65,-0.53,1
0.94,-0.62,1.26
1.06,-0.58,1.32
0.9,-0.55,1.29
0.69,-0.51,1.19
0.56,-0.42,1.01
0.49,-0.34,0.8
0.45,-0.29,0.64
0.43,-0.29,0.56
0.44,-0.35,0.61
0.53,-0.37,0.68
0.59,-0.38,0.76
0.63,-0.37,0.82
0.62,-0.36,0.85
0.58,-0.35,0.85
0.51,-0.35,0.81
0.44,-0.34,0.78
0.41,-0.33,0.8
0.47,-0.36,0.82
0.58,-0.36,0.84
0.63,-0.36,0.85
0.67,-0.39,0.88
0.75,-0.38,0.9
0.86,-0.39,0.89
0.94,-0.4,0.87
0.97,-0.41,0.85
0.99,-0.41,0.83
0.99,-0.39,0.83
1,-0.38,0.85
1.04,-0.38,0.9
1.05,-0.36,0.93
1.04,-0.33,0.93
1.03,-0.3,0.92
1,-0.26,0.94
0.96,-0.22,0.91
0.92,-0.14,0.89
0.87,-0.11,0.88
0.84,-0.08,0.86
0.81,-0.07,0.85
0.78,-0.05,0.84
0.74,-0.02,0.81
0.71,0,0.79
0.7,0.01,0.78
0.68,0.02,0.78
0.68,0.02,0.77
0.67,0.02,0.76
0.66,0.03,0.77
0.63,0.04,0.77
0.6,0.07,0.76
0.59,0.1,0.73
0.6,0.12,0.72
0.57,0.14,0.72
0.54,0.16,0.71
0.5,0.19,0.65
0.47,0.25,0.6
0.52,0.31,0.57
0.59,0.32,0.54
0.63,0.31,0.54
0.64,0.32,0.57
0.64,0.3,0.61
0.57,0.29,0.61
0.39,0.35,0.45
0.35,0.39,0.38
0.32,0.38,0.33
0.32,0.37,0.32
0.3,0.36,0.3
0.21,0.36,0.22
0.15,0.39,0.16
0.15,0.39,0.09
0.19,0.38,0.06
0.27,0.37,0.08
0.29,0.33,0.1
0.27,0.34,0.12
0.25,0.35,0.14
0.25,0.33,0.13
0.25,0.28,0.14
0.27,0.23,0.19
0.28,0.22,0.29
0.26,0.21,0.35
0.22,0.16,0.38
0.27,0.13,0.45
0.45,0.05,0.53
0.56,-0.02,0.57
0.58,0.01,0.57
0.61,0.01,0.55
0.57,-0.03,0.49
0.53,-0.05,0.39
0.46,-0.06,0.33
0.51,-0.19,0.46
0.56,-0.28,0.65
0.56,-0.27,0.71
0.58,-0.25,0.6
0.52,-0.24,0.48
0.5,-0.3,0.38
0.46,-0.41,0.26
0.32,-0.5,0.15
0.12,-0.57,0.1
1.9,-1.34,1.74
3.88,-2.9,3.7
2.85,-2.19,4
1.04,-0.41,3.4
0.33,-0.38,1.8
0.02,-0.44,0.48
-0.19,-0.07,0.1
0,-0.01,-0.02
0.23,-0.27,-0.12
0.38,-0.36,-0.16
0.41,-0.29,-0.09
0.43,-0.39,0.06
0.53,-0.57,0.33
0.68,-0.58,0.66
0.84,-0.65,0.9
0.98,-0.7,0.97
0.96,-0.68,0.85
0.65,-0.65,0.84
0.48,-0.56,0.84
0.41,-0.51,0.8
0.38,-0.52,0.74
0.37,-0.49,0.7
0.37,-0.46,0.7
0.39,-0.44,0.72
0.4,-0.43,0.77
0.42,-0.42,0.83
0.47,-0.42,0.86
0.49,-0.42,0.88
0.51,-0.41,0.9
0.52,-0.4,0.91
0.49,-0.4,0.9
0.46,-0.39,0.89
0.42,-0.39,0.92
0.44,-0.4,0.93
0.43,-0.39,0.91
0.37,-0.37,0.92
0.33,-0.34,0.92
0.35,-0.33,0.91
0.38,-0.32,0.9
0.39,-0.33,0.89
0.4,-0.32,0.87
0.43,-0.31,0.89
0.5,-0.37,0.97
0.62,-0.4,0.98
0.66,-0.41,0.97
0.63,-0.41,0.96
0.58,-0.4,0.99
0.62,-0.41,1.03
0.72,-0.42,1.08
0.83,-0.43,1.1
0.86,-0.41,1.12
0.84,-0.35,1.13
0.81,-0.3,1.14
0.79,-0.26,1.15
0.77,-0.23,1.15
0.76,-0.2,1.14
0.75,-0.15,1.13
0.74,-0.11,1.11
0.73,-0.08,1.08
0.7,-0.04,1.06
0.67,-0.02,1.05
0.62,0,1.02
0.6,0.03,0.99
0.59,0.05,0.98
0.55,0.07,0.95
0.52,0.1,0.89
0.51,0.12,0.84
0.51,0.13,0.8
0.5,0.15,0.73
0.5,0.16,0.71
0.48,0.17,0.68
0.46,0.2,0.64
0.44,0.22,0.62
0.44,0.22,0.62
0.43,0.22,0.61
0.38,0.26,0.56
0.34,0.31,0.51
0.34,0.33,0.49
0.33,0.33,0.46
0.3,0.36,0.42
0.3,0.38,0.39
0.29,0.38,0.37
0.28,0.38,0.35
0.26,0.41,0.34
0.24,0.41,0.34
0.24,0.42,0.35
0.23,0.44,0.36
0.22,0.45,0.37
0.22,0.46,0.37
0.22,0.47,0.37
0.2,0.48,0.34
0.18,0.5,0.32
0.16,0.51,0.29
0.15,0.52,0.28
0.16,0.51,0.3
0.21,0.47,0.33
0.27,0.44,0.38
0.3,0.41,0.41
0.3,0.41,0.41
0.28,0.41,0.38
0.24,0.4,0.34
0.2,0.39,0.29
0.16,0.38,0.24
0.16,0.35,0.23
0.23,0.29,0.3
0.3,0.21,0.39
0.32,0.18,0.47
0.32,0.17,0.53
0.32,0.17,0.52
0.31,0.19,0.4
0.3,0.17,0.29
0.29,0.14,0.2
0.28,0.07,0.17
0.28,-0.02,0.24
0.38,-0.13,0.47
0.58,-0.28,0.73
0.69,-0.38,0.82
0.66,-0.39,0.79
0.57,-0.39,0.74
0.5,-0.36,0.68
1.35,-2.15,2.31
2.19,-0.52,3.62
1.27,-0.84,3.5
0.63,-0.65,2.41
0.48,-0.4,1.45
0.23,-0.17,0.89
0.1,-0.04,0.56
0.19,-0.04,0.36
0.27,-0.14,0.27
0.28,-0.25,0.26
0.24,-0.26,0.33
0.22,-0.21,0.41
0.28,-0.18,0.46
0.35,-0.25,0.52
0.43,-0.34,0.6
0.53,-0.4,0.7
0.66,-0.46,0.82
0.8,-0.52,0.95
0.86,-0.54,1.05
0.81,-0.53,1.11
0.7,-0.49,1.12
0.58,-0.42,1.05
0.48,-0.35,0.93
0.43,-0.31,0.78
0.4,-0.28,0.68
0.39,-0.27,0.63
0.38,-0.29,0.68
0.47,-0.3,0.74
0.53,-0.31,0.81
0.59,-0.32,0.89
0.62,-0.34,0.93
0.61,-0.34,0.93
0.58,-0.32,0.91
0.54,-0.3,0.87
0.51,-0.29,0.82
0.51,-0.28,0.8
0.53,-0.29,0.79
0.55,-0.3,0.81
0.56,-0.31,0.83
0.56,-0.32,0.87
0.58,-0.34,0.92
0.6,-0.37,0.96
0.6,-0.38,1
0.58,-0.38,1
0.6,-0.38,0.98
0.63,-0.37,0.98
0.65,-0.37,1.01
0.68,-0.39,1.06
0.72,-0.4,1.12
0.72,-0.4,1.16
0.71,-0.39,1.18
0.7,-0.37,1.16
0.7,-0.36,1.16
0.68,-0.28,1.15
0.69,-0.26,1.15
0.68,-0.23,1.13
0.65,-0.19,1.1
0.64,-0.16,1.08
0.63,-0.14,1.07
0.63,-0.11,1.06
0.62,-0.11,1.06
0.61,-0.11,1.05
0.59,-0.1,1.03
0.58,-0.08,1
0.58,-0.07,0.97
0.57,-0.04,0.93
0.56,-0.01,0.88
0.56,0.02,0.85
0.55,0.04,0.8
0.51,0.08,0.74
0.53,0.11,0.72
0.55,0.1,0.71
0.51,0.11,0.67
0.47,0.14,0.64
0.41,0.17,0.61
0.35,0.2,0.57
0.31,0.24,0.54
0.28,0.28,0.5
0.22,0.32,0.38
0.15,0.4,0.33
0.12,0.43,0.3
0.11,0.45,0.28
0.11,0.46,0.28
0.11,0.46,0.28
0.12,0.45,0.3
0.13,0.44,0.32
0.14,0.44,0.32
0.13,0.44,0.3
0.12,0.44,0.27
0.12,0.44,0.24
0.13,0.42,0.23
0.16,0.4,0.25
0.2,0.36,0.31
0.27,0.32,0.4
0.33,0.28,0.49
0.37,0.26,0.54
0.38,0.27,0.55
0.36,0.28,0.53
0.31,0.3,0.48
0.27,0.32,0.42
0.24,0.33,0.35
0.2,0.35,0.3
0.17,0.37,0.29
0.17,0.36,0.32
0.2,0.33,0.43
0.29,0.23,0.54
0.43,0.13,0.68
0.49,0.05,0.73
0.46,0.03,0.7
0.42,0.05,0.62
0.37,0.05,0.53
0.32,0.02,0.45
0.29,-0.03,0.42
0.27,-0.09,0.45
0.33,-0.17,0.54
0.41,-0.27,0.6
0.43,-0.35,0.58
0.41,-0.4,0.57
0.45,-0.51,0.71
2.24,-1.21,2.24
3.07,-1.03,3.51
1.5,-0.7,3.61
0.83,-0.84,3.33
0.74,-0.52,2.15
0.39,-0.31,1.25
0.12,-0.02,0.78
0.23,-0.02,0.42
0.33,-0.16,0.24
0.27,-0.19,0.2
0.22,-0.17,0.28
0.27,-0.18,0.52
0.39,-0.24,0.65
0.44,-0.31,0.74
0.52,-0.38,0.84
0.62,-0.44,0.92
0.7,-0.51,0.99
0.73,-0.55,1.06
0.74,-0.54,1.13
0.72,-0.49,1.15
0.67,-0.42,1.11
0.65,-0.38,1.1
0.65,-0.38,1.09
0.64,-0.37,1.08
0.65,-0.35,1.08
0.67,-0.34,1.08
0.68,-0.32,1.09
0.68,-0.31,1.09
0.66,-0.3,1.1
0.65,-0.27,1.11
0.66,-0.23,1.1
0.63,-0.2,1.09
0.61,-0.17,1.09
0.61,-0.15,1.08
0.63,-0.15,1.06
0.62,-0.14,1.02
0.57,-0.12,0.98
0.52,-0.11,0.91
0.53,-0.08,0.89
0.53,-0.05,0.86
0.52,-0.01,0.82
0.54,0.02,0.8
0.56,0.04,0.79
0.56,0.05,0.77
0.53,0.07,0.77
0.5,0.1,0.77
0.48,0.12,0.78
0.48,0.12,0.8
0.49,0.13,0.8
0.5,0.16,0.78
0.48,0.19,0.73
0.46,0.25,0.67
0.46,0.29,0.62
0.44,0.31,0.58
0.43,0.34,0.58
0.41,0.36,0.6
0.4,0.38,0.63
0.4,0.39,0.64
0.38,0.4,0.63
0.35,0.43,0.6
0.33,0.46,0.56
0.32,0.49,0.53
0.31,0.52,0.51
0.3,0.53,0.53
0.33,0.52,0.57
0.31,0.53,0.57
0.31,0.54,0.56
0.31,0.55,0.55
0.31,0.55,0.55
0.3,0.56,0.54
0.3,0.58,0.53
0.3,0.59,0.51
0.28,0.59,0.5
0.26,0.6,0.47
0.25,0.61,0.46
0.25,0.61,0.46
0.26,0.6,0.46
0.25,0.61,0.46
0.25,0.61,0.45
0.24,0.62,0.45
0.23,0.62,0.43
0.22,0.62,0.42
0.21,0.62,0.41
0.21,0.61,0.41
0.21,0.59,0.43
0.2,0.58,0.43
0.19,0.56,0.42
0.18,0.56,0.42
0.18,0.54,0.42
0.17,0.52,0.39
0.12,0.5,0.39
0.12,0.47,0.39
0.12,0.45,0.38
0.15,0.44,0.42
0.23,0.39,0.5
0.27,0.33,0.55
0.28,0.31,0.58
0.28,0.3,0.58
0.26,0.29,0.54
0.25,0.27,0.48
0.26,0.24,0.44
0.3,0.2,0.44
0.38,0.13,0.49
0.51,0.05,0.6
0.59,-0.03,0.66
0.6,-0.07,0.65
0.58,-0.06,0.6
0.54,-0.05,0.54
0.51,-0.07,0.48
0.49,-0.1,0.44
0.47,-0.14,0.43
0.45,-0.2,0.46
0.41,-0.26,0.5
0.35,-0.32,0.52
0.3,-0.35,0.5
0.25,-0.4,2.18
1.78,-2.1,3.82
2.75,-1.07,3.83
1.72,-0.96,3.57
0.89,-0.66,2.66
0.66,-0.47,1.66
0.26,-0.34,0.93
0.11,-0.01,0.59
0.16,0.03,0.3
0.21,-0.13,0.14
0.27,-0.23,0.14
0.28,-0.27,0.21
0.23,-0.24,0.32
0.24,-0.22,0.43
0.35,-0.28,0.53
0.45,-0.36,0.63
0.54,-0.42,0.77
0.64,-0.47,0.9
0.8,-0.53,1
0.87,-0.54,1.13
0.76,-0.51,1.2
0.59,-0.46,1.17
0.47,-0.38,1.05
0.4,-0.32,0.89
0.38,-0.28,0.76
0.37,-0.27,0.67
0.38,-0.27,0.65
0.48,-0.29,0.71
0.56,-0.33,0.77
0.64,-0.34,0.83
0.67,-0.35,0.89
0.64,-0.36,0.95
0.62,-0.37,1.01
0.59,-0.4,1.03
0.58,-0.44,1.01
0.58,-0.46,0.99
0.62,-0.48,0.95
0.68,-0.5,0.92
0.68,-0.51,0.9
0.67,-0.49,0.9
0.66,-0.48,0.9
0.65,-0.47,0.9
0.69,-0.44,0.9
0.71,-0.42,0.93
0.7,-0.37,1
0.7,-0.3,1.02
0.69,-0.24,1.03
0.68,-0.2,1.04
0.67,-0.16,1.02
0.65,-0.13,1
0.66,-0.11,1
0.67,-0.09,0.99
0.65,-0.07,0.98
0.63,-0.02,0.99
0.63,0,1
0.62,0.01,0.98
0.58,0.04,0.95
0.56,0.07,0.93
0.58,0.09,0.93
0.59,0.1,0.92
0.56,0.11,0.89
0.55,0.13,0.87
0.56,0.14,0.87
0.56,0.15,0.85
0.53,0.17,0.81
0.49,0.2,0.76
0.44,0.24,0.7
0.44,0.27,0.68
0.45,0.28,0.66
0.42,0.29,0.63
0.4,0.32,0.61
0.39,0.33,0.59
0.38,0.35,0.58
0.39,0.35,0.57
0.39,0.36,0.56
0.38,0.38,0.55
0.36,0.4,0.52
0.35,0.42,0.5
0.34,0.43,0.46
0.29,0.47,0.44
0.31,0.48,0.45
0.31,0.46,0.46
0.31,0.47,0.46
0.31,0.49,0.45
0.31,0.49,0.44
0.29,0.5,0.42
0.27,0.51,0.4
0.25,0.52,0.37
0.23,0.53,0.35
0.22,0.53,0.35
0.22,0.52,0.37
0.24,0.52,0.39
0.27,0.5,0.42
0.3,0.48,0.47
0.3,0.47,0.49
0.3,0.47,0.49
0.29,0.46,0.46
0.27,0.45,0.42
0.22,0.45,0.37
0.16,0.44,0.33
0.21,0.4,0.41
0.36,0.3,0.6
0.45,0.19,0.75
0.48,0.18,0.81
0.48,0.21,0.78
0.39,0.24,0.57
0.36,0.24,0.49
0.33,0.25,0.43
0.3,0.26,0.41
0.29,0.26,0.42
0.28,0.26,0.47
0.33,0.23,0.57
0.4,0.16,0.65
0.43,0.11,0.65
0.44,0.11,0.61
0.55,0.07,0.65
0.65,-0.03,0.69
0.62,-0.08,0.65
0.53,-0.1,0.58
0.41,-0.12,0.49
0.29,-0.17,0.41
0.24,-0.24,0.39
0.25,-0.36,0.42
0.33,-0.48,0.5
0.91,-1.96,1.94
1.6,-2.03,3.21
2.28,-0.69,3.15
2.12,-0.71,3
1.29,-0.6,2.4
0.94,-0.45,1.47
0.6,-0.24,0.76
0.32,-0.02,0.31
0.26,-0.12,0.24
0.18,-0.16,0.25
0.17,-0.16,0.29
0.21,-0.14,0.35
0.28,-0.15,0.46
0.38,-0.25,0.57
0.48,-0.34,0.68
0.56,-0.41,0.79
0.66,-0.47,0.92
0.77,-0.52,1.02
0.8,-0.52,1.08
0.77,-0.48,1.08
0.67,-0.42,1.04
0.53,-0.36,0.95
0.45,-0.28,0.84
0.43,-0.24,0.74
0.43,-0.24,0.68
0.44,-0.25,0.65
0.45,-0.27,0.66
0.49,-0.29,0.71
0.53,-0.32,0.76
0.55,-0.34,0.84
0.58,-0.34,0.91
0.6,-0.35,0.96
0.61,-0.35,0.98
0.6,-0.34,0.94
0.55,-0.33,0.93
0.57,-0.33,0.93
0.63,-0.34,0.98
0.72,-0.39,1.03
0.78,-0.45,1.06
0.79,-0.47,1.09
0.77,-0.47,1.09
0.76,-0.44,1.08
0.8,-0.4,1.08
0.82,-0.36,1.11
0.82,-0.33,1.16
0.85,-0.28,1.17
0.87,-0.23,1.16
0.85,-0.19,1.15
0.81,-0.15,1.12
0.77,-0.11,1.1
0.73,-0.09,1.08
0.73,-0.08,1.07
0.72,-0.07,1.05
0.68,-0.05,0.99
0.68,-0.01,0.94
0.65,0.02,0.89
0.63,0.05,0.85
0.63,0.07,0.82
0.57,0.08,0.72
0.51,0.14,0.7
0.44,0.17,0.68
0.41,0.19,0.65
0.38,0.22,0.65
0.36,0.24,0.64
0.34,0.25,0.6
0.32,0.29,0.54
0.34,0.32,0.5
0.38,0.33,0.49
0.37,0.35,0.45
0.33,0.37,0.4
0.32,0.4,0.36
0.31,0.41,0.34
0.3,0.41,0.34
0.29,0.42,0.34
0.28,0.43,0.35
0.29,0.45,0.37
0.3,0.44,0.39
0.3,0.44,0.4
0.29,0.45,0.38
0.28,0.46,0.36
0.27,0.48,0.32
0.25,0.5,0.28
0.26,0.51,0.26
0.28,0.49,0.27
0.29,0.48,0.32
0.33,0.43,0.44
0.39,0.42,0.5
0.4,0.42,0.52
0.39,0.42,0.51
0.35,0.43,0.48
0.31,0.44,0.43
0.26,0.44,0.38
0.21,0.44,0.33
0.19,0.44,0.27
0.17,0.43,0.23
0.16,0.41,0.22
0.2,0.37,0.22
0.26,0.32,0.24
0.35,0.28,0.32
0.46,0.2,0.43
0.49,0.13,0.47
0.47,0.1,0.45
0.44,0.09,0.39
0.39,0.08,0.33
0.33,0.05,0.27
0.3,0.01,0.25
0.28,-0.06,0.3
0.32,-0.15,0.39
0.38,-0.23,0.49
0.44,-0.31,0.57
0.47,-0.37,0.58
0.45,-0.49,0.5
0.43,-0.58,0.85
2.26,-0.88,2.59
3.53,-0.69,3.99
2.06,-0.76,3.87
1.1,-0.83,3.13
1.08,-0.47,1.86
0.67,-0.36,0.96
0.26,-0.05,0.55
0.21,0.07,0.28
0.19,-0.04,0.16
0.12,-0.15,0.15
0.11,-0.17,0.18
0.11,-0.15,0.25
0.17,-0.14,0.34
0.26,-0.18,0.45
0.38,-0.27,0.56
0.53,-0.37,0.69
0.67,-0.44,0.87
0.86,-0.48,1.07
1.01,-0.53,1.18
0.99,-0.55,1.22
0.84,-0.51,1.18
0.67,-0.44,1.06
0.53,-0.35,0.9
0.45,-0.28,0.75
0.42,-0.27,0.65
0.42,-0.29,0.66
0.44,-0.3,0.71
0.5,-0.32,0.78
0.57,-0.36,0.88
0.63,-0.39,0.94
0.64,-0.41,0.99
0.6,-0.41,1.02
0.54,-0.41,1
0.52,-0.39,0.95
0.61,-0.39,0.9
0.83,-0.41,0.81
0.98,-0.4,0.79
0.97,-0.39,0.86
0.99,-0.36,0.93
1,-0.35,1.01
0.99,-0.32,1.06
1,-0.29,1.07
1,-0.26,1.02
1.01,-0.22,0.98
0.99,-0.16,0.94
0.97,-0.12,0.89
0.96,-0.08,0.87
0.96,-0.06,0.86
0.94,-0.03,0.84
0.88,-0.01,0.83
0.86,0.03,0.81
0.82,0.05,0.79
0.8,0.08,0.76
0.78,0.09,0.72
0.76,0.11,0.7
0.74,0.13,0.68
0.7,0.14,0.65
0.66,0.17,0.62
0.64,0.19,0.6
0.62,0.21,0.58
0.63,0.23,0.56
0.56,0.24,0.52
0.49,0.28,0.48
0.5,0.32,0.48
0.49,0.32,0.49
0.43,0.32,0.45
0.37,0.36,0.41
0.37,0.39,0.37
0.38,0.4,0.35
0.36,0.41,0.33
0.33,0.43,0.3
0.3,0.45,0.28
0.31,0.47,0.27
0.3,0.48,0.25
0.29,0.48,0.25
0.29,0.49,0.26
0.29,0.49,0.28
0.25,0.49,0.27
0.23,0.5,0.26
0.22,0.5,0.27
0.21,0.5,0.27
0.21,0.5,0.26
0.22,0.49,0.26
0.23,0.48,0.27
0.23,0.47,0.27
0.2,0.47,0.27
0.21,0.46,0.29
0.24,0.42,0.3
0.23,0.39,0.3
0.21,0.38,0.28
0.2,0.37,0.25
0.19,0.34,0.22
0.22,0.3,0.21
0.26,0.25,0.24
0.28,0.19,0.26
0.28,0.14,0.27
0.29,0.11,0.29
0.34,0.07,0.3
0.43,0.04,0.33
0.51,-0.01,0.38
0.54,-0.06,0.42
0.58,-0.09,0.44
0.58,-0.13,0.38
0.47,-0.17,0.34
0.4,-0.21,0.3
0.32,-0.28,0.28
0.25,-0.37,0.3
0.2,-0.49,0.34
2.07,-1.76,1.82
3.45,-1.53,3.64
2.45,-0.66,4
1.54,-0.9,3.48
0.93,-0.57,2.22
0.46,-0.4,1.16
0.1,-0.15,0.67
0.02,0.03,0.41
0.1,-0.03,0.21
0.17,-0.18,0.13
0.17,-0.21,0.17
0.16,-0.19,0.25
0.18,-0.16,0.31
0.24,-0.17,0.37
0.32,-0.25,0.45
0.44,-0.33,0.55
0.61,-0.4,0.7
0.78,-0.47,0.88
1.01,-0.56,1.02
1.13,-0.58,1.13
1.02,-0.46,1.13
0.64,-0.41,1.01
0.51,-0.32,0.86
0.45,-0.27,0.71
0.43,-0.26,0.61
0.43,-0.25,0.58
0.46,-0.26,0.6
0.5,-0.28,0.65
0.58,-0.29,0.73
0.69,-0.3,0.82
0.79,-0.33,0.89
0.85,-0.36,0.93
0.86,-0.38,0.98
0.83,-0.4,1.03
0.77,-0.42,1.04
0.71,-0.43,1.05
0.68,-0.43,1.05
0.7,-0.43,1.04
0.73,-0.41,0.99
0.76,-0.4,0.94
0.77,-0.38,0.92
0.78,-0.34,0.93
0.78,-0.3,0.96
0.81,-0.28,0.97
0.84,-0.24,0.96
0.82,-0.19,0.95
0.87,-0.17,0.87
0.92,-0.12,0.84
0.94,-0.08,0.83
0.97,-0.07,0.86
0.94,-0.05,0.89
0.89,-0.03,0.91
0.84,-0.02,0.92
0.83,-0.03,0.95
0.84,-0.06,0.95
0.81,-0.05,0.91
0.79,0,0.84
0.75,0.06,0.77
0.75,0.1,0.73
0.73,0.12,0.69
0.67,0.14,0.64
0.62,0.18,0.59
0.56,0.21,0.56
0.52,0.24,0.54
0.46,0.26,0.48
0.37,0.29,0.42
0.31,0.33,0.34
0.26,0.38,0.27
0.19,0.41,0.21
0.14,0.45,0.17
0.1,0.47,0.16
0.1,0.48,0.15
0.08,0.48,0.15
0.05,0.49,0.14
0.04,0.49,0.13
0.06,0.49,0.16
0.12,0.46,0.21
0.17,0.42,0.26
0.2,0.39,0.32
0.25,0.39,0.37
0.29,0.37,0.39
0.29,0.36,0.37
0.26,0.38,0.33
0.24,0.4,0.27
0.21,0.41,0.21
0.16,0.39,0.17
0.13,0.37,0.15
0.15,0.33,0.17
0.2,0.27,0.21
0.2,0.21,0.24
0.21,0.19,0.26
0.24,0.16,0.27
0.25,0.12,0.27
0.27,0.09,0.27
0.32,0.06,0.29
0.37,-0.01,0.29
0.41,-0.08,0.27
0.43,-0.14,0.26
0.46,-0.27,0.38
0.5,-0.33,0.5
0.5,-0.36,0.57
0.51,-0.39,0.55
0.47,-0.48,0.48
-0.34,-1.63,2.2
1.42,-2.22,3.99
3.97,-1.44,4
2.5,-0.96,3.56
0.88,-0.56,2.75
0.6,-0.43,1.85
0.27,-0.37,1.02
0.05,-0.11,0.58
0,0.01,0.3
0.05,-0.06,0.13
0.15,-0.15,0.1
0.23,-0.23,0.12
0.23,-0.23,0.19
0.23,-0.19,0.26
0.28,-0.2,0.34
0.32,-0.27,0.45
0.42,-0.34,0.59
0.58,-0.42,0.78
0.8,-0.49,0.96
1.04,-0.54,1.13
1.06,-0.53,1.28
0.85,-0.5,1.22
0.49,-0.39,1.05
0.44,-0.31,0.85
0.42,-0.27,0.69
0.4,-0.26,0.59
0.39,-0.27,0.54
0.4,-0.27,0.55
0.43,-0.27,0.6
0.5,-0.29,0.67
0.58,-0.32,0.74
0.63,-0.34,0.82
0.65,-0.35,0.9
0.64,-0.34,0.95
0.6,-0.33,0.96
0.56,-0.32,0.93
0.54,-0.31,0.86
0.53,-0.3,0.8
0.52,-0.3,0.75
0.51,-0.3,0.72
0.52,-0.31,0.71
0.54,-0.31,0.71
0.56,-0.32,0.73
0.58,-0.32,0.76
0.6,-0.32,0.79
0.6,-0.32,0.81
0.6,-0.32,0.82
0.58,-0.32,0.81
0.54,-0.32,0.8
0.54,-0.32,0.78
0.53,-0.32,0.77
0.55,-0.31,0.78
0.59,-0.34,0.81
0.61,-0.37,0.83
0.61,-0.37,0.85
0.61,-0.35,0.88
0.62,-0.35,0.94
0.64,-0.39,0.98
0.67,-0.44,1.01
0.66,-0.48,1
0.62,-0.48,0.93
0.62,-0.45,0.87
0.68,-0.44,0.86
0.76,-0.46,0.88
0.81,-0.52,0.91
0.81,-0.55,0.92
0.77,-0.54,0.88
0.73,-0.49,0.83
0.74,-0.44,0.8
0.75,-0.42,0.8
0.8,-0.39,0.82
0.84,-0.34,0.85
0.82,-0.27,0.89
0.79,-0.23,0.96
0.69,-0.16,0.97
0.67,-0.12,0.99
0.66,-0.11,0.98
0.63,-0.08,0.94
0.62,-0.04,0.9
0.63,0,0.87
0.66,0.03,0.85
0.67,0.04,0.86
0.66,0.04,0.87
0.63,0.07,0.86
0.63,0.1,0.87
0.59,0.13,0.85
0.58,0.16,0.87
0.6,0.18,0.89
0.59,0.16,0.89
0.58,0.16,0.84
0.57,0.19,0.76
0.59,0.23,0.7
0.57,0.26,0.65
0.51,0.3,0.62
0.47,0.33,0.59
0.44,0.35,0.59
0.43,0.37,0.6
0.4,0.37,0.59
0.34,0.4,0.56
0.34,0.42,0.51
0.27,0.45,0.45
0.26,0.48,0.41
0.26,0.48,0.39
0.24,0.48,0.37
0.22,0.5,0.35
0.21,0.51,0.35
0.21,0.51,0.35
0.2,0.51,0.35
0.19,0.53,0.33
0.2,0.53,0.33
0.22,0.53,0.34
0.24,0.52,0.37
0.28,0.5,0.41
0.32,0.49,0.45
0.36,0.47,0.48
0.37,0.46,0.49
0.35,0.45,0.46
0.31,0.46,0.4
0.28,0.46,0.35
0.26,0.45,0.31
0.23,0.43,0.28
0.23,0.41,0.29
0.31,0.37,0.36
0.39,0.31,0.45
0.42,0.28,0.53
0.47,0.25,0.64
0.44,0.23,0.61
0.4,0.24,0.55
0.36,0.24,0.47
0.31,0.22,0.4
0.27,0.2,0.34
0.26,0.16,0.31
0.26,0.12,0.29
0.31,0.08,0.33
0.44,0.01,0.46
0.58,-0.08,0.6
0.64,-0.13,0.67
0.61,-0.14,0.62
0.52,-0.14,0.49
0.41,-0.15,0.36
0.28,-0.22,0.3
0.19,-0.3,0.29
0.13,-0.38,0.32
0.13,-0.47,0.36
2.06,-1.54,1.97
2.52,-1.7,3.49
1.73,-0.85,3.7
1.7,-0.7,3.42
0.92,-0.63,2.32
0.58,-0.52,1.46
0.17,-0.22,0.97
0.08,-0.1,0.36
0.23,-0.15,0.2
0.28,-0.24,0.18
0.24,-0.27,0.24
0.18,-0.2,0.33
0.24,-0.2,0.39
0.33,-0.25,0.44
0.44,-0.32,0.52
0.57,-0.38,0.64
0.71,-0.45,0.81
0.89,-0.51,1
0.98,-0.52,1.18
0.86,-0.48,1.29
0.67,-0.45,1.27
0.51,-0.4,1.15
0.4,-0.35,0.96
0.35,-0.31,0.79
0.35,-0.29,0.65
0.37,-0.28,0.58
0.39,-0.29,0.55
0.45,-0.3,0.57
0.53,-0.3,0.63
0.6,-0.31,0.7
0.65,-0.32,0.78
0.68,-0.32,0.84
0.67,-0.32,0.9
0.63,-0.32,0.92
0.56,-0.33,0.9
0.53,-0.33,0.86
0.51,-0.32,0.82
0.5,-0.32,0.79
0.52,-0.32,0.78
0.54,-0.33,0.79
0.56,-0.34,0.81
0.59,-0.34,0.86
0.64,-0.37,0.94
0.71,-0.42,1.03
0.73,-0.49,1.09
0.72,-0.51,1.12
0.69,-0.52,1.14
0.71,-0.51,1.13
0.76,-0.48,1.08
0.8,-0.44,1.03
0.83,-0.39,1
0.8,-0.34,0.98
0.78,-0.3,0.98
0.81,-0.27,0.99
0.84,-0.25,1.02
0.85,-0.22,1.05
0.82,-0.19,1.07
0.81,-0.16,1.07
0.79,-0.14,1.06
0.77,-0.12,1
0.69,-0.07,0.98
0.68,-0.06,0.96
0.67,-0.05,0.95
0.62,-0.04,0.92
0.59,-0.01,0.88
0.6,0.02,0.84
0.57,0.05,0.78
0.53,0.09,0.72
0.52,0.14,0.69
0.51,0.18,0.67
0.5,0.19,0.67
0.45,0.19,0.64
0.37,0.22,0.59
0.35,0.26,0.55
0.35,0.29,0.51
0.35,0.3,0.48
0.34,0.32,0.45
0.29,0.34,0.41
0.27,0.37,0.4
0.26,0.38,0.39
0.26,0.39,0.39
0.27,0.4,0.41
0.27,0.41,0.41
0.25,0.42,0.38
0.22,0.45,0.35
0.22,0.47,0.31
0.2,0.48,0.29
0.18,0.5,0.24
0.16,0.52,0.2
0.16,0.53,0.19
0.18,0.52,0.22
0.22,0.5,0.27
0.28,0.47,0.34
0.34,0.45,0.42
0.36,0.44,0.45
0.34,0.44,0.44
0.31,0.44,0.39
0.27,0.44,0.33
0.23,0.44,0.25
0.19,0.44,0.18
0.18,0.43,0.12
0.18,0.4,0.1
0.24,0.34,0.18
0.39,0.23,0.37
0.49,0.1,0.53
0.48,0.07,0.62
0.43,0.1,0.62
0.39,0.13,0.56
0.36,0.13,0.48
0.3,0.11,0.41
0.24,0.07,0.36
0.21,0.01,0.34
0.23,-0.13,0.45
0.24,-0.19,0.53
0.26,-0.24,0.55
0.26,-0.31,0.5
0.24,-0.39,0.44
0.27,-0.42,0.44
2.14,-1.09,2.22
3.52,-1.47,3.76
2.27,-1.27,3.71
1.19,-0.82,3.3
0.76,-0.47,2.12
0.38,-0.54,1.28
0.06,-0.21,0.86
0.02,-0.05,0.51
0.11,-0.11,0.28
0.14,-0.17,0.2
0.09,-0.22,0.22
0.08,-0.25,0.27
0.1,-0.21,0.32
0.15,-0.19,0.37
0.28,-0.25,0.42
0.38,-0.33,0.5
0.48,-0.39,0.7
0.72,-0.45,0.9
1,-0.53,1.04
1.15,-0.55,1.18
0.81,-0.47,1.26
0.6,-0.42,1.14
0.45,-0.35,0.96
0.36,-0.3,0.8
0.32,-0.28,0.67
0.32,-0.27,0.59
0.36,-0.27,0.56
0.42,-0.29,0.58
0.49,-0.3,0.64
0.57,-0.31,0.72
0.64,-0.31,0.8
0.69,-0.3,0.86
0.69,-0.29,0.92
0.64,-0.28,0.96
0.59,-0.28,0.98
0.57,-0.28,0.97
0.56,-0.29,0.96
0.55,-0.32,0.95
0.58,-0.35,0.94
0.6,-0.36,0.97
0.59,-0.37,1.01
0.61,-0.4,1.04
0.61,-0.44,1.08
0.61,-0.48,1.08
0.64,-0.49,1.06
0.66,-0.47,1.04
0.69,-0.42,0.98
0.75,-0.37,0.96
0.78,-0.35,0.99
0.77,-0.34,1
0.77,-0.31,0.99
0.78,-0.26,0.99
0.76,-0.22,0.99
0.71,-0.18,0.98
0.67,-0.14,0.96
0.67,-0.12,0.97
0.66,-0.12,1
0.65,-0.12,1.05
0.65,-0.1,1.08
0.65,-0.06,1.06
0.67,0,0.98
0.68,0.04,0.9
0.68,0.05,0.86
0.64,0.05,0.82
0.58,0.06,0.8
0.55,0.09,0.8
0.55,0.11,0.78
0.55,0.14,0.76
0.54,0.18,0.74
0.53,0.22,0.72
0.51,0.26,0.7
0.47,0.3,0.67
0.43,0.36,0.59
0.41,0.37,0.55
0.44,0.39,0.53
0.46,0.39,0.53
0.44,0.41,0.51
0.43,0.44,0.5
0.43,0.46,0.48
0.37,0.49,0.43
0.32,0.53,0.37
0.28,0.56,0.32
0.26,0.57,0.3
0.25,0.58,0.28
0.23,0.59,0.26
0.21,0.61,0.25
0.2,0.61,0.24
0.17,0.62,0.24
0.14,0.63,0.24
0.13,0.63,0.23
0.13,0.63,0.2
0.15,0.63,0.18
0.18,0.62,0.18
0.21,0.61,0.2
0.22,0.59,0.23
0.22,0.58,0.28
0.23,0.57,0.34
0.24,0.54,0.4
0.24,0.53,0.41
0.21,0.54,0.38
0.18,0.54,0.33
0.14,0.53,0.27
0.1,0.51,0.21
0.07,0.5,0.16
0.05,0.47,0.14
0.03,0.44,0.14
0.03,0.4,0.18
0.04,0.36,0.24
0.06,0.32,0.28
0.1,0.28,0.31
0.15,0.24,0.34
0.21,0.2,0.33
0.27,0.16,0.28
0.33,0.1,0.28
0.37,0.02,0.27
0.35,-0.05,0.25
0.33,-0.1,0.24
0.34,-0.17,0.28
0.38,-0.28,0.34
0.4,-0.38,0.38
0.39,-0.47,0.39
0.31,-0.57,0.38
0.24,-0.67,0.37
0.53,-0.87,0.56
2.42,-1.51,3.99
1.89,-0.84,4
1.23,-1.13,3.07
1.09,-0.72,1.59
0.41,-0.21,0.8
0.07,0.1,0.41
0.13,0.07,0.17
0.17,-0.1,0.05
0.21,-0.15,0.02
0.19,-0.15,0.06
0.15,-0.16,0.14
0.16,-0.16,0.24
0.24,-0.18,0.35
0.34,-0.26,0.48
0.41,-0.39,0.67
0.6,-0.47,0.9
0.89,-0.51,1.12
1,-0.55,1.31
0.9,-0.56,1.39
0.73,-0.53,1.35
0.56,-0.45,1.19
0.46,-0.35,0.96
0.41,-0.28,0.76
0.39,-0.27,0.62
0.39,-0.27,0.54
0.4,-0.27,0.52
0.41,-0.29,0.63
0.55,-0.33,0.71
0.63,-0.36,0.8
0.68,-0.37,0.92
0.69,-0.38,1.01
0.67,-0.4,1.05
0.64,-0.41,1.03
0.59,-0.39,0.97
0.55,-0.36,0.89
0.54,-0.34,0.81
0.54,-0.36,0.77
0.57,-0.38,0.76
0.59,-0.4,0.79
0.61,-0.41,0.86
0.65,-0.44,0.94
0.7,-0.49,1.03
0.72,-0.51,1.08
0.69,-0.48,1.08
0.65,-0.45,1.04
0.66,-0.42,0.99
0.71,-0.39,0.95
0.72,-0.38,0.94
0.68,-0.36,0.95
0.7,-0.33,0.98
0.7,-0.3,1
0.68,-0.27,1
0.73,-0.22,0.99
0.81,-0.18,0.99
0.84,-0.14,1.01
0.84,-0.12,1.02
0.82,-0.1,1.02
0.8,-0.08,1.02
0.77,-0.05,1.02
0.75,-0.01,1.01
0.73,0.02,0.99
0.72,0.04,0.96
0.69,0.08,0.92
0.66,0.12,0.87
0.67,0.16,0.85
0.67,0.17,0.82
0.62,0.18,0.77
0.55,0.2,0.74
0.51,0.23,0.73
0.51,0.24,0.73
0.5,0.25,0.7
0.46,0.27,0.66
0.45,0.29,0.62
0.43,0.31,0.58
0.37,0.32,0.53
0.33,0.35,0.49
0.32,0.38,0.49
0.34,0.39,0.48
0.34,0.41,0.42
0.25,0.44,0.37
0.2,0.47,0.31
0.16,0.5,0.26
0.13,0.53,0.22
0.11,0.55,0.19
0.08,0.56,0.18
0.07,0.58,0.17
0.07,0.59,0.17
0.08,0.6,0.19
0.09,0.6,0.22
0.1,0.59,0.27
0.13,0.58,0.32
0.16,0.58,0.36
0.18,0.57,0.39
0.19,0.57,0.4
0.19,0.57,0.4
0.21,0.56,0.4
0.22,0.55,0.39
0.21,0.55,0.38
0.18,0.55,0.35
0.16,0.53,0.33
0.17,0.49,0.33
0.19,0.45,0.34
0.24,0.4,0.4
0.32,0.35,0.48
0.37,0.3,0.53
0.36,0.32,0.47
0.33,0.33,0.39
0.29,0.33,0.3
0.24,0.33,0.21
0.2,0.32,0.13
0.19,0.3,0.1
0.21,0.25,0.15
0.27,0.18,0.24
0.3,0.11,0.31
0.32,0.07,0.37
0.37,0.04,0.43
0.4,0,0.48
0.43,-0.03,0.51
0.42,-0.05,0.51
0.41,-0.08,0.49
0.36,-0.11,0.45
0.26,-0.15,0.43
0.18,-0.24,0.46
0.14,-0.39,0.5
0.75,-0.95,2.15
2.67,-1.76,3.9
3.45,-1.24,4
2.16,-0.72,3.78
1.25,-0.89,2.92
0.94,-0.6,1.76
0.57,-0.32,0.56
0.23,0.02,0.26
0.17,-0.04,0.12
0.11,-0.19,0.12
0.09,-0.21,0.16
0.13,-0.13,0.2
0.18,-0.1,0.27
0.25,-0.16,0.35
0.36,-0.22,0.44
0.52,-0.29,0.56
0.71,-0.37,0.74
1,-0.44,0.93
1.25,-0.48,1.12
1.21,-0.49,1.25
0.98,-0.47,1.26
0.75,-0.42,1.17
0.58,-0.33,1.01
0.45,-0.26,0.82
0.38,-0.23,0.67
0.34,-0.23,0.57
0.33,-0.23,0.54
0.35,-0.25,0.55
0.4,-0.26,0.6
0.48,-0.27,0.69
0.58,-0.31,0.77
0.67,-0.34,0.85
0.71,-0.33,0.95
0.67,-0.31,0.94
0.63,-0.29,0.89
0.59,-0.28,0.82
0.56,-0.26,0.77
0.52,-0.26,0.73
0.51,-0.26,0.7
0.53,-0.27,0.7
0.56,-0.27,0.71
0.59,-0.28,0.74
0.62,-0.29,0.78
0.64,-0.29,0.83
0.63,-0.3,0.87
0.62,-0.3,0.89
0.6,-0.29,0.89
0.58,-0.28,0.9
0.56,-0.28,0.92
0.58,-0.3,0.92
0.62,-0.3,0.9
0.64,-0.28,0.91
0.66,-0.29,0.92
0.66,-0.3,0.91
0.65,-0.31,0.91
0.69,-0.37,0.94
0.76,-0.42,0.99
0.82,-0.43,1.06
0.84,-0.42,1.13
0.89,-0.33,1.1
0.87,-0.28,1.09
0.86,-0.25,1.1
0.88,-0.22,1.08
0.86,-0.18,1.08
0.82,-0.14,1.07
0.79,-0.11,1.06
0.79,-0.08,1.07
0.79,-0.08,1.09
0.78,-0.08,1.08
0.74,-0.06,1.03
0.7,-0.02,0.96
0.71,0,0.93
0.69,0,0.88
0.67,0.03,0.85
0.65,0.06,0.84
0.6,0.09,0.82
0.56,0.13,0.78
0.53,0.16,0.74
0.51,0.19,0.71
0.48,0.21,0.69
0.49,0.21,0.67
0.46,0.22,0.63
0.4,0.24,0.58
0.36,0.27,0.52
0.33,0.31,0.45
0.29,0.36,0.44
0.28,0.39,0.43
0.31,0.41,0.42
0.33,0.42,0.41
0.33,0.44,0.38
0.32,0.48,0.37
0.28,0.51,0.36
0.26,0.52,0.35
0.24,0.54,0.31
0.22,0.55,0.28
0.21,0.56,0.27
0.19,0.57,0.27
0.17,0.57,0.28
0.17,0.58,0.3
0.18,0.58,0.32
0.18,0.58,0.34
0.17,0.59,0.33
0.18,0.6,0.33
0.19,0.59,0.33
0.19,0.59,0.33
0.2,0.6,0.32
0.22,0.59,0.33
0.23,0.58,0.33
0.23,0.57,0.34
0.24,0.56,0.36
0.25,0.53,0.36
0.24,0.5,0.35
0.23,0.49,0.32
0.2,0.48,0.29
0.18,0.46,0.28
0.15,0.44,0.28
0.16,0.42,0.31
0.23,0.37,0.38
0.24,0.3,0.45
0.23,0.28,0.49
0.27,0.27,0.5
0.29,0.23,0.47
0.28,0.22,0.41
0.3,0.2,0.34
0.33,0.16,0.3
0.33,0.1,0.28
0.32,0.05,0.29
0.33,-0.01,0.32
0.34,-0.08,0.35
0.35,-0.14,0.37
0.36,-0.2,0.38
0.36,-0.25,0.37
0.35,-0.33,0.35
0.28,-0.42,0.32
0.26,-0.7,1.52
2.12,-1.44,3.35
3.84,-1.35,3.81
1.32,-1.03,2.97
1.05,-0.69,1.64
0.61,-0.36,0.75
0.21,0.04,0.41
0.09,0.06,0.18
0.12,-0.12,0.06
0.17,-0.21,0.05
0.16,-0.2,0.13
0.11,-0.18,0.23
0.13,-0.18,0.32
0.25,-0.21,0.41
0.38,-0.29,0.51
0.5,-0.38,0.66
0.66,-0.45,0.83
0.88,-0.52,1.03
1.07,-0.54,1.22
1.03,-0.52,1.32
0.82,-0.5,1.29
0.62,-0.43,1.16
0.5,-0.34,0.94
0.45,-0.28,0.74
0.41,-0.26,0.6
0.4,-0.26,0.53
0.4,-0.27,0.51
0.41,-0.26,0.54
0.46,-0.26,0.68
0.63,-0.32,0.77
0.67,-0.34,0.86
0.67,-0.34,0.94
0.64,-0.33,0.99
0.6,-0.32,0.98
0.56,-0.31,0.93
0.54,-0.3,0.85
0.54,-0.3,0.78
0.54,-0.31,0.73
0.55,-0.32,0.7
0.56,-0.31,0.69
0.58,-0.31,0.72
0.61,-0.31,0.77
0.65,-0.34,0.85
0.69,-0.38,0.93
0.73,-0.42,0.99
0.73,-0.46,1.03
0.71,-0.49,1.05
0.66,-0.51,1.04
0.58,-0.48,1
0.58,-0.44,0.96
0.61,-0.43,0.91
0.64,-0.43,0.89
0.65,-0.4,0.89
0.64,-0.37,0.88
0.63,-0.35,0.92
0.69,-0.35,0.97
0.71,-0.31,1
0.72,-0.27,1.02
0.73,-0.22,1.04
0.77,-0.22,1.07
0.82,-0.22,1.09
0.85,-0.21,1.11
0.84,-0.18,1.11
0.79,-0.13,1.06
0.76,-0.07,1
0.76,-0.05,0.96
0.76,-0.03,0.93
0.74,0,0.9
0.75,0.03,0.9
0.76,0.05,0.92
0.72,0.07,0.92
0.69,0.11,0.91
0.64,0.15,0.85
0.59,0.18,0.78
0.57,0.21,0.71
0.58,0.23,0.65
0.6,0.24,0.63
0.6,0.24,0.62
0.58,0.25,0.62
0.54,0.27,0.61
0.48,0.3,0.53
0.36,0.38,0.48
0.28,0.42,0.42
0.27,0.45,0.39
0.29,0.46,0.39
0.27,0.46,0.38
0.28,0.47,0.4
0.29,0.48,0.42
0.26,0.49,0.42
0.24,0.51,0.4
0.23,0.53,0.39
0.24,0.54,0.4
0.24,0.54,0.39
0.23,0.56,0.37
0.22,0.56,0.37
0.21,0.57,0.36
0.19,0.58,0.36
0.17,0.59,0.34
0.15,0.6,0.32
0.14,0.6,0.3
0.14,0.61,0.29
0.17,0.6,0.3
0.2,0.59,0.31
0.21,0.59,0.33
0.21,0.58,0.36
0.24,0.56,0.41
0.26,0.55,0.47
0.24,0.56,0.45
0.2,0.57,0.41
0.16,0.57,0.35
0.14,0.57,0.3
0.12,0.55,0.27
0.16,0.53,0.3
0.29,0.46,0.4
0.41,0.39,0.51
0.44,0.36,0.55
0.43,0.38,0.54
0.4,0.39,0.48
0.36,0.38,0.41
0.31,0.37,0.34
0.28,0.35,0.28
0.26,0.32,0.24
0.26,0.29,0.21
0.28,0.24,0.18
0.31,0.19,0.19
0.34,0.11,0.22
0.39,0.05,0.3
0.43,-0.01,0.46
0.45,-0.05,0.64
0.45,-0.07,0.72
0.4,-0.06,0.67
0.33,-0.02,0.53
0.26,-0.02,0.31
0.14,-0.21,0.26
0.11,-0.34,0.25
0.18,-1.01,2.12
2.12,-1.65,3.99
3.33,-1.23,4
1.98,-1.02,3.74
0.9,-0.85,2.98
0.48,-0.38,1.94
0.2,-0.36,1.16
-0.13,-0.2,0.8
-0.11,0.05,0.51
0.09,-0.02,0.23
0.26,-0.19,0.08
0.29,-0.29,0.11
0.19,-0.23,0.25
0.2,-0.15,0.34
0.26,-0.18,0.41
0.32,-0.25,0.49
0.39,-0.32,0.57
0.5,-0.39,0.71
0.73,-0.47,0.91
1.02,-0.52,1.1
1.11,-0.59,1.18
0.91,-0.62,1.2
0.65,-0.52,1.22
0.47,-0.41,1.15
0.25,-0.36,0.8
0.24,-0.31,0.67
0.29,-0.3,0.59
0.33,-0.31,0.56
0.4,-0.31,0.58
0.49,-0.32,0.64
0.57,-0.32,0.73
0.62,-0.32,0.81
0.63,-0.33,0.86
0.64,-0.31,0.9
0.62,-0.29,0.94
0.57,-0.28,0.95
0.51,-0.29,0.92
0.48,-0.28,0.88
0.47,-0.28,0.84
0.49,-0.28,0.8
0.51,-0.29,0.77
0.53,-0.31,0.77
0.56,-0.32,0.8
0.59,-0.32,0.85
0.61,-0.32,0.9
0.62,-0.34,0.94
0.6,-0.35,0.98
0.65,-0.38,1.06
0.72,-0.44,1.11
0.68,-0.49,1.13
0.6,-0.44,1.15
0.6,-0.41,1.1
0.6,-0.4,1.05
0.62,-0.38,1.02
0.64,-0.34,1.02
0.68,-0.32,1.03
0.69,-0.32,1.07
0.69,-0.3,1.13
0.7,-0.27,1.17
0.71,-0.25,1.21
0.7,-0.23,1.21
0.68,-0.21,1.19
0.65,-0.18,1.15
0.62,-0.15,1.1
0.58,-0.13,1.03
0.56,-0.09,0.96
0.56,-0.07,0.9
0.57,-0.04,0.87
0.56,0,0.88
0.54,0.03,0.88
0.45,0.08,0.83
0.35,0.14,0.74
0.32,0.18,0.63
0.35,0.21,0.55
0.37,0.24,0.51
0.4,0.27,0.53
0.44,0.29,0.67
0.41,0.29,0.72
0.35,0.3,0.74
0.35,0.31,0.72
0.37,0.32,0.69
0.38,0.34,0.65
0.35,0.37,0.61
0.33,0.39,0.56
0.36,0.4,0.54
0.41,0.41,0.54
0.41,0.42,0.52
0.38,0.46,0.5
0.39,0.48,0.5
0.37,0.48,0.51
0.31,0.5,0.48
0.3,0.53,0.45
0.29,0.53,0.43
0.26,0.54,0.41
0.23,0.56,0.38
0.2,0.58,0.35
0.18,0.59,0.32
0.17,0.6,0.3
0.16,0.61,0.28
0.16,0.61,0.28
0.16,0.61,0.29
0.16,0.6,0.31
0.18,0.59,0.32
0.2,0.58,0.33
0.21,0.57,0.36
0.21,0.55,0.38
0.18,0.54,0.39
0.15,0.54,0.36
0.11,0.52,0.33
0.07,0.51,0.29
0.04,0.49,0.25
0.03,0.47,0.23
0.04,0.44,0.23
0.08,0.4,0.25
0.16,0.34,0.33
0.24,0.26,0.4
0.28,0.22,0.43
0.28,0.22,0.42
0.28,0.21,0.39
0.28,0.19,0.35
0.28,0.16,0.31
0.29,0.11,0.29
0.31,0.04,0.32
0.34,-0.05,0.36
0.34,-0.11,0.41
0.32,-0.15,0.42
0.3,-0.21,0.39
0.27,-0.27,0.34
0.24,-0.44,0.31
0.01,-1.54,2.15
1.89,-2.27,3.99
3.79,-1.56,4
2.67,-1.22,3.72
1.55,-0.97,2.68
1.25,-0.6,1.3
0.71,-0.29,0.51
0.25,0.1,0.23
0.19,0.07,0.06
0.21,-0.16,-0.02
0.19,-0.21,0.05
0.15,-0.16,0.16
0.15,-0.16,0.23
0.19,-0.22,0.33
0.28,-0.29,0.47
0.41,-0.35,0.64
0.54,-0.42,0.85
0.67,-0.47,1.06
0.82,-0.48,1.24
0.92,-0.48,1.33
0.86,-0.47,1.31
0.72,-0.42,1.19
0.58,-0.35,1
0.49,-0.28,0.81
0.44,-0.26,0.65
0.41,-0.28,0.51
0.41,-0.28,0.51
0.43,-0.28,0.56
0.49,-0.3,0.64
0.57,-0.33,0.74
0.63,-0.36,0.84
0.65,-0.36,0.93
0.65,-0.34,0.99
0.62,-0.32,1
0.6,-0.3,0.95
0.6,-0.29,0.89
0.6,-0.29,0.82
0.6,-0.3,0.77
0.59,-0.3,0.75
0.58,-0.3,0.78
0.61,-0.32,0.84
0.67,-0.37,0.91
0.71,-0.43,0.97
0.71,-0.46,1.03
0.72,-0.48,1.07
0.76,-0.48,1.05
0.83,-0.47,1.03
0.88,-0.48,0.99
0.84,-0.46,0.94
0.8,-0.42,0.9
0.8,-0.4,0.88
0.78,-0.33,0.94
0.82,-0.27,1.02
0.82,-0.22,1.08
0.81,-0.19,1.1
0.79,-0.16,1.09
0.76,-0.13,1.07
0.72,-0.1,1.03
0.68,-0.06,0.97
0.66,-0.02,0.93
0.63,0,0.9
0.61,0,0.87
0.63,-0.01,0.84
0.66,0,0.82
0.65,0.03,0.8
0.62,0.06,0.81
0.58,0.09,0.82
0.54,0.11,0.79
0.52,0.14,0.75
0.5,0.16,0.71
0.47,0.19,0.68
0.45,0.2,0.66
0.45,0.22,0.63
0.47,0.25,0.61
0.49,0.28,0.59
0.48,0.3,0.58
0.44,0.33,0.56
0.4,0.38,0.54
0.36,0.39,0.51
0.35,0.42,0.48
0.37,0.46,0.47
0.39,0.46,0.48
0.39,0.46,0.49
0.37,0.48,0.49
0.36,0.49,0.48
0.35,0.5,0.47
0.34,0.5,0.45
0.33,0.51,0.45
0.33,0.52,0.45
0.32,0.53,0.45
0.32,0.53,0.46
0.31,0.53,0.46
0.31,0.54,0.45
0.3,0.54,0.43
0.28,0.55,0.41
0.26,0.57,0.39
0.25,0.57,0.37
0.22,0.58,0.35
0.21,0.58,0.35
0.2,0.58,0.36
0.21,0.57,0.39
0.23,0.55,0.42
0.26,0.53,0.47
0.29,0.51,0.48
0.28,0.5,0.45
0.26,0.49,0.4
0.24,0.47,0.36
0.24,0.44,0.34
0.24,0.42,0.33
0.27,0.38,0.37
0.33,0.33,0.44
0.36,0.29,0.51
0.36,0.28,0.54
0.39,0.28,0.53
0.41,0.27,0.48
0.4,0.26,0.42
0.35,0.25,0.37
0.3,0.24,0.32
0.3,0.22,0.29
0.32,0.17,0.31
0.33,0.11,0.37
0.35,0.06,0.46
0.37,0.03,0.53
0.34,0.01,0.52
0.3,0,0.44
0.25,-0.04,0.34
0.21,-0.12,0.26
0.18,-0.2,0.22
0.15,-0.3,0.2
0.13,-0.44,2.08
3.39,-2.27,3.84
2.42,-1.1,3.85
1.28,-1.13,3.58
0.59,-0.68,2.52
0.25,-0.48,1.55
-0.07,-0.21,0.96
-0.17,-0.05,0.58
-0.03,-0.02,0.3
0.22,-0.15,0.1
0.28,-0.26,0.08
0.23,-0.28,0.17
0.23,-0.24,0.28
0.25,-0.19,0.36
0.25,-0.23,0.43
0.3,-0.28,0.49
0.4,-0.35,0.59
0.59,-0.42,0.75
0.89,-0.5,0.93
1.17,-0.57,1.1
1.14,-0.56,1.26
0.82,-0.51,1.33
0.53,-0.45,1.25
0.37,-0.38,1.06
0.32,-0.32,0.85
0.31,-0.29,0.7
0.31,-0.28,0.57
0.37,-0.29,0.59
0.44,-0.31,0.64
0.52,-0.32,0.73
0.6,-0.33,0.83
0.65,-0.34,0.92
0.66,-0.36,0.98
0.62,-0.35,1.01
0.59,-0.36,1.04
0.58,-0.4,1.04
0.56,-0.44,0.99
0.52,-0.46,0.93
0.53,-0.46,0.9
0.51,-0.48,0.92
0.49,-0.5,0.97
0.51,-0.49,1.03
0.54,-0.49,1.1
0.56,-0.49,1.12
0.57,-0.47,1.09
0.59,-0.43,1.04
0.62,-0.39,0.99
0.66,-0.35,0.94
0.69,-0.31,0.91
0.72,-0.28,0.91
0.78,-0.23,0.93
0.77,-0.19,0.97
0.75,-0.15,1.05
0.7,-0.08,1.03
0.69,-0.04,1
0.69,-0.02,0.98
0.68,0,0.95
0.67,0.01,0.91
0.67,0.03,0.87
0.67,0.05,0.83
0.7,0.07,0.81
0.69,0.09,0.8
0.64,0.12,0.79
0.61,0.16,0.78
0.61,0.18,0.78
0.61,0.19,0.77
0.58,0.2,0.73
0.56,0.22,0.67
0.55,0.26,0.61
0.54,0.29,0.55
0.55,0.3,0.52
0.53,0.32,0.5
0.51,0.35,0.5
0.5,0.37,0.5
0.46,0.38,0.49
0.42,0.41,0.46
0.39,0.44,0.42
0.36,0.45,0.39
0.34,0.46,0.34
0.29,0.47,0.31
0.29,0.48,0.28
0.29,0.47,0.27
0.26,0.47,0.25
0.23,0.47,0.24
0.22,0.48,0.23
0.23,0.47,0.23
0.26,0.46,0.25
0.28,0.44,0.28
0.32,0.41,0.33
0.33,0.39,0.38
0.31,0.38,0.4
0.27,0.38,0.39
0.24,0.38,0.36
0.22,0.37,0.31
0.21,0.37,0.27
0.2,0.35,0.23
0.16,0.33,0.2
0.15,0.28,0.19
0.16,0.22,0.19
0.18,0.17,0.26
0.26,0.11,0.39
0.37,0.04,0.52
0.45,0.01,0.56
0.46,0.04,0.51
0.42,0.09,0.3
0.25,0.09,0.23
0.18,-0.01,0.15
0.11,-0.15,0.08
0.06,-0.27,0.06
0.04,-0.37,0.06
0.07,-0.48,0.11
1.65,-1.68,2.06
3.59,-2.57,3.99
3.19,-1.85,4
1.97,-1.2,3.82
1.08,-1.05,2.76
0.53,-0.72,1.42
0.21,-0.13,0.69
0.02,0.04,0.3
0.14,-0.15,0.09
0.22,-0.25,0.03
0.21,-0.2,0.1
0.16,-0.22,0.18
0.11,-0.23,0.27
0.18,-0.23,0.34
0.27,-0.28,0.4
0.34,-0.34,0.53
0.48,-0.39,0.73
0.68,-0.41,0.92
0.9,-0.45,1.13
1.02,-0.47,1.42
0.73,-0.4,1.35
0.58,-0.37,1.16
0.52,-0.31,0.93
0.47,-0.27,0.74
0.44,-0.27,0.61
0.42,-0.28,0.53
0.42,-0.29,0.49
0.44,-0.31,0.52
0.51,-0.33,0.58
0.59,-0.36,0.68
0.63,-0.37,0.8
0.64,-0.37,0.91
0.67,-0.37,1
0.68,-0.39,1.05
0.69,-0.43,1.08
0.7,-0.45,1.08
0.68,-0.46,1.07
0.6,-0.46,1.05
0.58,-0.44,1.02
0.62,-0.41,1.01
0.65,-0.39,1.02
0.62,-0.38,1.03
0.6,-0.35,1.05
0.6,-0.33,1.07
0.61,-0.35,1.07
0.61,-0.36,1.02
0.59,-0.31,0.98
0.59,-0.27,0.95
0.58,-0.24,0.92
0.59,-0.23,0.9
0.58,-0.22,0.88
0.57,-0.21,0.88
0.56,-0.19,0.86
0.58,-0.18,0.84
0.62,-0.18,0.81
0.64,-0.17,0.77
0.65,-0.16,0.75
0.7,-0.14,0.76
0.74,-0.13,0.76
0.73,-0.12,0.76
0.7,-0.08,0.75
0.67,-0.03,0.75
0.66,0.01,0.77
0.66,0.04,0.77
0.65,0.08,0.78
0.64,0.11,0.79
0.6,0.14,0.8
0.58,0.18,0.79
0.58,0.19,0.8
0.56,0.21,0.78
0.54,0.24,0.74
0.54,0.26,0.69
0.51,0.3,0.69
0.5,0.31,0.69
0.46,0.32,0.71
0.43,0.35,0.71
0.41,0.38,0.68
0.45,0.39,0.66
0.47,0.39,0.63
0.46,0.42,0.55
0.49,0.44,0.47
0.52,0.44,0.4
0.52,0.45,0.36
0.5,0.47,0.37
0.47,0.46,0.39
0.43,0.45,0.42
0.42,0.46,0.42
0.42,0.48,0.42
0.41,0.49,0.41
0.41,0.5,0.41
0.4,0.52,0.4
0.38,0.53,0.38
0.36,0.54,0.35
0.35,0.55,0.32
0.31,0.57,0.27
0.28,0.59,0.24
0.28,0.59,0.23
0.28,0.58,0.25
0.35,0.54,0.28
0.41,0.53,0.31
0.43,0.5,0.33
0.43,0.49,0.33
0.4,0.49,0.3
0.37,0.49,0.27
0.33,0.47,0.24
0.28,0.44,0.21
0.23,0.42,0.19
0.18,0.4,0.19
0.16,0.36,0.22
0.17,0.32,0.26
0.19,0.27,0.31
0.21,0.25,0.38
0.24,0.24,0.41
0.25,0.2,0.41
0.25,0.16,0.39
0.24,0.13,0.35
0.22,0.09,0.33
0.2,0.03,0.31
0.19,-0.03,0.28
0.19,-0.13,0.24
0.18,-0.21,0.2
0.16,-0.3,0.18
0.11,-0.43,0.15
0.1,-0.55,2.05
3.96,-2.56,3.98
3.33,-1.9,4
1.85,-1.25,3.78
0.83,-0.89,2.73
0.44,-0.58,1.49
0.08,-0.2,0.84
-0.09,-0.05,0.45
0.01,-0.1,0.21
0.17,-0.23,0.09
0.22,-0.26,0.08
0.18,-0.23,0.14
0.14,-0.21,0.22
0.17,-0.21,0.28
0.24,-0.23,0.34
0.31,-0.29,0.43
0.41,-0.36,0.59
0.62,-0.41,0.81
0.93,-0.46,1.02
1.13,-0.5,1.25
1.02,-0.47,1.43
0.75,-0.42,1.45
0.55,-0.38,1.3
0.46,-0.32,1.06
0.4,-0.28,0.83
0.37,-0.26,0.66
0.37,-0.27,0.49
0.41,-0.29,0.48
0.47,-0.31,0.53
0.56,-0.33,0.62
0.63,-0.35,0.72
0.66,-0.36,0.82
0.66,-0.35,0.91
0.62,-0.33,0.97
0.58,-0.32,0.98
0.54,-0.32,0.94
0.52,-0.31,0.88
0.51,-0.3,0.81
0.5,-0.3,0.75
0.51,-0.3,0.71
0.54,-0.31,0.69
0.56,-0.32,0.69
0.59,-0.32,0.71
0.61,-0.32,0.74
0.62,-0.32,0.78
0.6,-0.32,0.81
0.58,-0.32,0.83
0.56,-0.32,0.84
0.53,-0.32,0.84
0.52,-0.32,0.83
0.51,-0.32,0.81
0.51,-0.32,0.79
0.51,-0.33,0.78
0.54,-0.32,0.77
0.56,-0.32,0.78
0.57,-0.32,0.79
0.58,-0.32,0.79
0.58,-0.32,0.8
0.58,-0.32,0.79
0.57,-0.31,0.79
0.57,-0.31,0.78
0.56,-0.31,0.78
0.56,-0.31,0.77
0.57,-0.3,0.77
0.58,-0.3,0.77
0.59,-0.31,0.77
0.59,-0.31,0.78
0.59,-0.31,0.78
0.59,-0.31,0.78
0.58,-0.31,0.78
0.57,-0.31,0.78
0.57,-0.31,0.78
0.56,-0.31,0.78
0.56,-0.32,0.78
0.56,-0.32,0.78
0.56,-0.33,0.77
0.57,-0.33,0.78
0.57,-0.32,0.78
0.56,-0.33,0.79
0.56,-0.33,0.8
0.56,-0.34,0.81
0.56,-0.35,0.82
0.56,-0.34,0.83
0.57,-0.35,0.88
0.56,-0.37,0.93
0.52,-0.38,0.95
0.54,-0.38,0.96
0.69,-0.4,1.01
0.85,-0.47,1.05
0.82,-0.52,1.1
0.69,-0.55,1.15
0.65,-0.54,1.11
0.7,-0.51,1.05
0.75,-0.48,1
0.78,-0.46,0.96
0.81,-0.41,0.91
0.87,-0.39,0.92
0.9,-0.4,0.97
0.93,-0.4,1.03
0.96,-0.37,1.09
0.89,-0.33,1.12
0.85,-0.29,1.12
0.83,-0.25,1.1
0.79,-0.21,1.05
0.75,-0.16,0.99
0.71,-0.06,0.88
0.69,-0.02,0.84
0.67,0.01,0.82
0.65,0.03,0.8
0.6,0.06,0.77
0.57,0.08,0.73
0.55,0.1,0.66
0.5,0.15,0.59
0.47,0.2,0.54
0.44,0.22,0.51
0.42,0.24,0.49
0.38,0.26,0.49
0.35,0.29,0.47
0.34,0.31,0.44
0.32,0.33,0.41
0.27,0.35,0.38
0.24,0.39,0.33
0.24,0.41,0.3
0.24,0.41,0.29
0.23,0.42,0.29
0.23,0.43,0.3
0.24,0.42,0.31
0.24,0.42,0.33
0.23,0.43,0.32
0.2,0.44,0.31
0.18,0.44,0.3
0.18,0.43,0.3
0.2,0.42,0.31
0.24,0.4,0.35
0.31,0.37,0.4
0.34,0.34,0.45
0.36,0.33,0.47
0.37,0.33,0.47
0.37,0.33,0.45
0.38,0.32,0.44
0.38,0.31,0.43
0.36,0.3,0.42
0.38,0.29,0.45
0.44,0.24,0.52
0.46,0.19,0.56
0.46,0.19,0.59
0.55,0.16,0.66
0.6,0.11,0.71
0.56,0.1,0.73
0.5,0.12,0.71
0.44,0.13,0.67
0.38,0.13,0.62
0.36,0.11,0.59
0.35,0.06,0.58
0.32,0.01,0.6
0.32,-0.02,0.61
0.35,-0.05,0.62
0.36,-0.15,0.6
0.36,-0.21,0.6
0.32,-0.27,0.62
0.27,-0.33,0.65
0.24,-0.38,0.74
0.66,-2.13,2.08
1.43,-2.17,3.2
1.86,-0.56,3.25
1.6,-0.69,3.16
1.28,-0.7,2.36
1.05,-0.55,1.47
0.61,-0.23,0.92
0.4,-0.03,0.58
0.34,-0.06,0.32
0.25,-0.13,0.2
0.21,-0.15,0.2
0.19,-0.14,0.24
0.2,-0.14,0.3
0.25,-0.18,0.39
0.35,-0.26,0.5
0.47,-0.35,0.63
0.59,-0.44,0.79
0.74,-0.51,0.96
0.84,-0.54,1.09
0.85,-0.56,1.16
0.77,-0.52,1.14
0.64,-0.39,0.92
0.42,-0.35,0.79
0.39,-0.31,0.69
0.39,-0.3,0.62
0.41,-0.29,0.6
0.43,-0.31,0.61
0.46,-0.33,0.65
0.51,-0.34,0.71
0.58,-0.35,0.78
0.62,-0.36,0.85
0.62,-0.37,0.91
0.6,-0.35,0.94
0.57,-0.33,0.93
0.54,-0.31,0.88
0.52,-0.3,0.83
0.51,-0.29,0.78
0.51,-0.3,0.74
0.51,-0.3,0.73
0.52,-0.31,0.73
0.54,-0.31,0.75
0.56,-0.32,0.77
0.57,-0.33,0.8
0.57,-0.33,0.82
0.57,-0.33,0.83
0.55,-0.33,0.83
0.54,-0.32,0.81
0.53,-0.32,0.78
0.53,-0.32,0.77
0.54,-0.32,0.77
0.54,-0.32,0.77
0.55,-0.32,0.78
0.56,-0.32,0.79
0.56,-0.32,0.8
0.56,-0.32,0.8
0.56,-0.32,0.81
0.55,-0.32,0.8
0.54,-0.32,0.79
0.54,-0.32,0.79
0.54,-0.32,0.78
0.54,-0.32,0.78
0.55,-0.32,0.78
0.55,-0.32,0.79
0.55,-0.32,0.79
0.56,-0.33,0.79
0.57,-0.33,0.79
0.57,-0.33,0.79
0.56,-0.33,0.79
0.56,-0.32,0.79
0.55,-0.32,0.79
0.55,-0.32,0.79
0.55,-0.32,0.79
0.55,-0.32,0.79
0.55,-0.31,0.79
0.56,-0.32,0.79
0.57,-0.32,0.79
0.56,-0.32,0.79
0.56,-0.32,0.78
0.55,-0.32,0.79
0.55,-0.32,0.79
0.55,-0.32,0.78
0.56,-0.32,0.78
0.56,-0.32,0.79
0.56,-0.32,0.79
0.56,-0.32,0.79
0.56,-0.32,0.79
0.56,-0.32,0.79
0.56,-0.32,0.79
0.56,-0.32,0.79
0.56,-0.32,0.79
0.56,-0.32,0.79
0.56,-0.32,0.79
0.56,-0.32,0.79
0.56,-0.32,0.79
0.56,-0.32,0.79
0.56,-0.32,0.78
0.56,-0.31,0.78
0.56,-0.31,0.79
0.56,-0.32,0.79
0.56,-0.32,0.78
0.56,-0.31,0.78
0.56,-0.32,0.78
0.56,-0.32,0.78
0.56,-0.32,0.78
0.56,-0.32,0.78
0.56,-0.32,0.78
0.56,-0.32,0.79
0.56,-0.32,0.79
0.56,-0.32,0.78
0.56,-0.32,0.78
0.56,-0.32,0.78
0.56,-0.32,0.78
0.56,-0.32,0.78
0.56,-0.31,0.78
0.56,-0.32,0.79
0.56,-0.32,0.79
0.56,-0.31,0.79
0.56,-0.32,0.78
0.56,-0.32,0.78
0.56,-0.31,0.78
0.57,-0.31,0.78
0.56,-0.32,0.78
0.56,-0.32,0.78
0.56,-0.32,0.78
0.56,-0.32,0.79
0.56,-0.31,0.78
0.57,-0.31,0.78
0.56,-0.32,0.78
0.57,-0.32,0.78
0.57,-0.32,0.78
0.56,-0.32,0.78
0.56,-0.31,0.78
0.56,-0.32,0.78
0.56,-0.32,0.78
0.56,-0.32,0.78
0.57,-0.32,0.78
0.57,-0.32,0.78
0.57,-0.32,0.78
0.56,-0.32,0.78
0.56,-0.32,0.78
0.56,-0.31,0.78
0.56,-0.32,0.78
0.56,-0.32,0.78
0.57,-0.31,0.78
0.57,-0.31,0.78
0.57,-0.32,0.78
0.57,-0.32,0.78
0.57,-0.31,0.78
0.56,-0.32,0.78
0.56,-0.31,0.78
0.56,-0.31,0.78
0.56,-0.32,0.79
0.56,-0.32,0.8
0.56,-0.32,0.81
0.56,-0.33,0.81
0.56,-0.33,0.81
0.56,-0.32,0.81
0.55,-0.32,0.83
0.55,-0.32,0.85
0.56,-0.34,0.85
0.61,-0.35,0.87
0.67,-0.37,0.91
0.71,-0.37,0.98
0.73,-0.4,1.05
0.71,-0.45,1.06
0.69,-0.43,1.03
0.69,-0.4,0.98
0.69,-0.4,0.95
0.71,-0.4,0.94
0.75,-0.38,0.95
0.8,-0.36,0.98
0.82,-0.35,1.03
0.83,-0.34,1.09
0.79,-0.33,1.13
0.74,-0.3,1.12
0.72,-0.25,1.08
0.69,-0.19,1.04
0.68,-0.16,0.94
0.66,-0.1,0.91
0.64,-0.07,0.9
0.62,-0.05,0.89
0.61,-0.04,0.87
0.58,-0.02,0.84
0.56,0.01,0.81
0.56,0.03,0.79
0.56,0.04,0.76
0.55,0.05,0.73
0.52,0.08,0.69
0.5,0.1,0.67
0.51,0.12,0.66
0.5,0.12,0.66
0.49,0.14,0.65
0.5,0.17,0.64
0.49,0.19,0.62
0.47,0.21,0.59
0.45,0.24,0.55
0.45,0.26,0.52
0.44,0.28,0.5
0.42,0.29,0.48
0.42,0.3,0.46
0.41,0.32,0.45
0.42,0.33,0.46
0.42,0.33,0.46
0.4,0.34,0.46
0.36,0.36,0.45
0.33,0.37,0.42
0.3,0.39,0.39
0.28,0.4,0.37
0.27,0.4,0.37
0.28,0.38,0.39
0.3,0.37,0.42
0.35,0.34,0.48
0.39,0.31,0.54
0.41,0.29,0.57
0.41,0.29,0.57
0.38,0.28,0.54
0.35,0.28,0.49
0.33,0.27,0.44
0.32,0.25,0.4
0.32,0.24,0.38
0.33,0.21,0.39
0.34,0.18,0.42
0.35,0.15,0.45
0.36,0.13,0.5
0.39,0.08,0.56
0.42,0.03,0.6
0.44,0,0.62
0.45,-0.03,0.63
0.45,-0.05,0.63
0.44,-0.07,0.63
0.45,-0.13,0.67
0.46,-0.17,0.71
0.46,-0.2,0.73
0.44,-0.22,0.68
0.38,-0.22,0.58
0.33,-0.19,0.51
0.92,-0.98,2.23
2.21,-1.66,3.36
2.5,-0.98,3.16
1.62,-0.54,3.35
1.15,-0.7,2.55
0.98,-0.65,1.51
0.6,-0.29,0.87
0.37,0,0.54
0.27,-0.05,0.31
0.19,-0.17,0.18
0.17,-0.18,0.18
0.16,-0.15,0.22
0.16,-0.16,0.27
0.21,-0.2,0.36
0.33,-0.28,0.48
0.48,-0.37,0.62
0.65,-0.45,0.79
