Acc_x,Acc_y,Acc_z
0.54,-0.31,0.79
0.55,-0.31,0.8
0.55,-0.31,0.8
0.55,-0.31,0.8
0.55,-0.31,0.8
0.55,-0.3,0.8
0.55,-0.3,0.8
0.55,-0.3,0.8
0.55,-0.31,0.8
0.56,-0.31,0.8
0.56,-0.31,0.8
0.56,-0.32,0.8
0.56,-0.32,0.8
0.55,-0.31,0.79
0.55,-0.31,0.79
0.55,-0.3,0.79
0.55,-0.3,0.8
0.55,-0.3,0.82
0.56,-0.31,0.84
0.57,-0.32,0.86
0.57,-0.33,0.87
0.56,-0.33,0.87
0.54,-0.33,0.86
0.55,-0.34,0.86
0.58,-0.35,0.88
0.62,-0.36,0.89
0.66,-0.37,0.91
0.68,-0.37,0.93
0.7,-0.38,0.95
0.69,-0.37,0.96
0.67,-0.35,0.96
0.65,-0.33,0.95
0.65,-0.31,0.95
0.67,-0.3,0.96
0.69,-0.3,0.97
0.68,-0.29,0.99
0.66,-0.26,1
0.64,-0.24,1.02
0.63,-0.22,1.03
0.62,-0.2,1.03
0.63,-0.18,1.02
0.63,-0.17,1.02
0.61,-0.15,1
0.59,-0.14,0.99
0.59,-0.13,0.98
0.58,-0.13,0.98
0.58,-0.1,0.95
0.56,-0.09,0.93
0.57,-0.07,0.9
0.58,-0.06,0.88
0.59,-0.05,0.88
0.59,-0.04,0.86
0.57,-0.02,0.85
0.54,0.01,0.83
0.53,0.03,0.83
0.53,0.04,0.82
0.53,0.05,0.8
0.54,0.07,0.79
0.59,0.11,0.77
0.55,0.11,0.76
0.43,0.11,0.73
0.41,0.16,0.67
0.45,0.19,0.66
0.52,0.2,0.67
0.56,0.21,0.68
0.55,0.22,0.68
0.51,0.24,0.69
0.45,0.25,0.7
0.42,0.27,0.7
0.42,0.28,0.7
0.44,0.28,0.69
0.45,0.3,0.66
0.42,0.33,0.61
0.4,0.35,0.58
0.39,0.36,0.57
0.39,0.36,0.58
0.4,0.36,0.59
0.41,0.37,0.6
0.41,0.37,0.61
0.41,0.38,0.61
0.39,0.39,0.6
0.37,0.4,0.57
0.34,0.42,0.54
0.33,0.43,0.52
0.34,0.43,0.5
0.35,0.43,0.49
0.35,0.44,0.49
0.35,0.44,0.5
0.34,0.44,0.51
0.33,0.44,0.52
0.32,0.43,0.53
0.31,0.43,0.55
0.32,0.41,0.56
0.34,0.4,0.57
0.37,0.38,0.57
0.39,0.37,0.56
0.38,0.37,0.53
0.34,0.37,0.48
0.3,0.36,0.4
0.25,0.34,0.36
0.25,0.33,0.34
0.29,0.3,0.33
0.33,0.26,0.35
0.4,0.21,0.4
0.44,0.16,0.45
0.43,0.12,0.48
0.4,0.11,0.49
0.37,0.1,0.47
0.33,0.09,0.42
0.33,0.07,0.4
0.38,0.01,0.42
0.4,-0.06,0.48
0.39,-0.12,0.54
0.38,-0.15,0.58
0.36,-0.18,0.58
0.31,-0.21,0.54
0.27,-0.25,0.5
0.25,-0.29,0.45
0.36,-0.37,0.46
2.22,-1.01,2.23
3.42,-0.87,3.97
2.18,-0.55,3.76
1.28,-0.73,3.02
0.98,-0.52,1.96
0.69,-0.08,0.67
0.24,0.12,0.36
0.26,0.02,0.15
0.23,-0.15,0.09
0.17,-0.17,0.15
0.2,-0.16,0.21
0.24,-0.17,0.29
0.32,-0.22,0.4
0.44,-0.29,0.55
0.57,-0.37,0.73
0.71,-0.43,0.9
0.85,-0.49,1.07
0.92,-0.51,1.22
0.86,-0.5,1.27
0.72,-0.47,1.21
0.56,-0.41,1.07
0.44,-0.34,0.91
0.37,-0.3,0.74
0.37,-0.28,0.62
0.41,-0.28,0.56
0.44,-0.28,0.55
0.48,-0.28,0.58
0.54,-0.29,0.62
0.61,-0.31,0.69
0.67,-0.32,0.76
0.7,-0.32,0.83
0.7,-0.3,0.91
0.62,-0.29,0.9
0.59,-0.28,0.85
0.56,-0.28,0.79
0.54,-0.28,0.75
0.53,-0.28,0.73
0.54,-0.28,0.72
0.55,-0.29,0.73
0.58,-0.3,0.75
0.6,-0.3,0.77
0.61,-0.3,0.79
0.62,-0.3,0.8
0.61,-0.3,0.8
0.6,-0.29,0.8
0.59,-0.29,0.78
0.58,-0.29,0.77
0.58,-0.29,0.76
0.58,-0.29,0.76
0.58,-0.29,0.76
0.59,-0.29,0.76
0.6,-0.29,0.76
0.61,-0.3,0.77
0.61,-0.29,0.77
0.61,-0.29,0.77
0.6,-0.3,0.77
0.6,-0.3,0.77
0.59,-0.3,0.76
0.59,-0.3,0.76
0.59,-0.31,0.76
0.59,-0.3,0.76
0.6,-0.3,0.76
0.6,-0.3,0.76
0.6,-0.3,0.76
0.6,-0.3,0.76
0.61,-0.29,0.76
0.61,-0.29,0.76
0.61,-0.28,0.75
0.61,-0.28,0.76
0.61,-0.27,0.76
0.61,-0.27,0.76
0.61,-0.27,0.76
0.62,-0.27,0.77
0.62,-0.28,0.76
0.62,-0.28,0.77
0.62,-0.29,0.77
0.62,-0.29,0.77
0.61,-0.29,0.77
0.6,-0.29,0.77
0.6,-0.3,0.77
0.59,-0.31,0.77
0.59,-0.31,0.77
0.58,-0.31,0.77
0.58,-0.31,0.77
0.59,-0.31,0.77
0.59,-0.3,0.77
0.58,-0.3,0.77
0.58,-0.3,0.77
0.58,-0.3,0.77
0.58,-0.3,0.77
0.58,-0.3,0.77
0.59,-0.3,0.77
0.6,-0.3,0.77
0.61,-0.3,0.76
0.6,-0.3,0.75
0.6,-0.3,0.75
0.62,-0.29,0.74
0.64,-0.28,0.73
0.63,-0.28,0.74
0.63,-0.28,0.75
0.63,-0.28,0.75
0.63,-0.28,0.76
0.62,-0.28,0.76
0.63,-0.28,0.76
0.63,-0.29,0.76
0.62,-0.3,0.75
0.61,-0.31,0.75
0.61,-0.3,0.76
0.6,-0.3,0.76
0.59,-0.3,0.78
0.58,-0.3,0.79
0.58,-0.3,0.8
0.59,-0.31,0.82
0.6,-0.32,0.83
0.61,-0.33,0.85
0.61,-0.34,0.85
0.63,-0.35,0.84
0.61,-0.34,0.83
0.57,-0.34,0.82
0.55,-0.34,0.82
0.57,-0.34,0.82
0.58,-0.37,0.84
0.56,-0.4,0.87
0.55,-0.42,0.91
0.53,-0.42,0.92
0.52,-0.41,0.92
0.53,-0.4,0.92
0.57,-0.4,0.93
0.62,-0.41,0.96
0.68,-0.44,0.98
0.7,-0.46,0.98
0.68,-0.46,0.96
0.66,-0.45,0.94
0.65,-0.44,0.93
0.66,-0.44,0.95
0.68,-0.44,1.04
0.7,-0.44,1.09
0.69,-0.42,1.13
0.69,-0.41,1.14
0.68,-0.39,1.11
0.66,-0.37,1.08
0.64,-0.34,1.06
0.62,-0.31,1.04
0.61,-0.28,1
0.59,-0.25,0.97
0.59,-0.21,0.95
0.6,-0.18,0.92
0.59,-0.15,0.89
0.57,-0.12,0.89
0.55,-0.09,0.9
0.54,-0.06,0.9
0.51,-0.03,0.89
0.47,-0.01,0.88
0.45,0.03,0.86
0.43,0.07,0.82
0.42,0.11,0.79
0.4,0.14,0.73
0.37,0.17,0.67
0.35,0.21,0.61
0.33,0.24,0.57
0.32,0.27,0.53
0.31,0.28,0.48
0.26,0.32,0.45
0.26,0.33,0.44
0.26,0.33,0.43
0.26,0.34,0.42
0.25,0.34,0.41
0.24,0.35,0.38
0.22,0.36,0.34
0.19,0.38,0.29
0.16,0.4,0.25
0.17,0.39,0.23
0.18,0.38,0.23
0.19,0.37,0.24
0.21,0.35,0.25
0.23,0.32,0.26
0.25,0.31,0.26
0.26,0.31,0.25
0.27,0.31,0.24
0.27,0.29,0.23
0.27,0.28,0.22
0.26,0.27,0.2
0.26,0.26,0.2
0.28,0.25,0.22
0.31,0.21,0.25
0.33,0.18,0.27
0.33,0.15,0.29
0.36,0.04,0.38
0.49,-0.05,0.48
0.54,-0.15,0.58
0.56,-0.22,0.63
0.55,-0.26,0.66
0.53,-0.29,0.66
0.49,-0.34,0.64
0.41,-0.39,0.61
0.35,-0.45,0.56
0.33,-0.55,0.51
0.37,-0.93,1.39
2.2,-1.36,3.14
2.83,-0.91,3.76
1.53,-0.77,3.48
1.04,-0.88,3.16
0.63,-0.5,2.29
0.44,-0.35,1.35
0.19,-0.15,0.8
0.05,0,0.46
0.13,-0.06,0.28
0.22,-0.19,0.18
0.22,-0.21,0.15
0.17,-0.21,0.19
0.2,-0.23,0.27
0.26,-0.27,0.38
0.35,-0.32,0.53
0.49,-0.38,0.92
0.72,-0.46,1.09
0.79,-0.46,1.16
0.81,-0.47,1.15
0.75,-0.42,1.14
0.63,-0.38,1.09
0.52,-0.37,0.96
0.45,-0.32,0.83
0.43,-0.28,0.73
0.43,-0.26,0.66
0.43,-0.26,0.63
0.45,-0.26,0.64
0.49,-0.25,0.67
0.55,-0.26,0.72
0.6,-0.28,0.78
0.64,-0.29,0.87
0.68,-0.32,0.96
0.68,-0.34,1.02
0.68,-0.33,1.04
0.64,-0.31,1.06
0.59,-0.3,1.09
0.56,-0.32,1.13
0.54,-0.38,1.2
0.54,-0.43,1.28
0.56,-0.47,1.35
0.54,-0.49,1.37
0.54,-0.5,1.23
0.53,-0.48,1.13
0.57,-0.5,1.05
0.64,-0.51,1.04
0.69,-0.51,1.05
0.72,-0.46,1.1
0.72,-0.38,1.17
0.71,-0.34,1.23
0.71,-0.32,1.25
0.71,-0.3,1.22
0.7,-0.28,1.15
0.67,-0.25,1.05
0.64,-0.19,0.95
0.62,-0.14,0.87
0.61,-0.12,0.8
0.59,-0.1,0.74
0.6,-0.08,0.71
0.6,-0.07,0.68
0.55,-0.03,0.66
0.52,0.02,0.66
0.5,0.05,0.66
0.45,0.07,0.67
0.38,0.1,0.64
0.33,0.13,0.6
0.29,0.17,0.56
0.26,0.2,0.51
0.24,0.23,0.42
0.25,0.27,0.38
0.24,0.3,0.37
0.24,0.32,0.36
0.23,0.32,0.35
0.22,0.33,0.36
0.21,0.35,0.37
0.2,0.35,0.38
0.19,0.36,0.38
0.18,0.38,0.36
0.17,0.4,0.33
0.17,0.41,0.29
0.19,0.42,0.28
0.23,0.4,0.29
0.25,0.37,0.31
0.28,0.36,0.34
0.32,0.34,0.38
0.36,0.31,0.42
0.37,0.3,0.43
0.36,0.29,0.41
0.35,0.29,0.36
0.34,0.29,0.3
0.33,0.28,0.25
0.31,0.28,0.21
0.28,0.28,0.18
0.27,0.28,0.2
0.3,0.27,0.35
0.42,0.14,0.43
0.46,0.11,0.47
0.49,0.1,0.46
0.5,0.09,0.45
0.49,0.06,0.48
0.47,0,0.53
0.41,-0.04,0.59
0.35,-0.08,0.6
0.31,-0.12,0.6
0.28,-0.18,0.6
0.27,-0.28,0.59
0.25,-0.38,0.6
0.23,-0.49,0.59
0.19,-0.59,0.55
1.38,-2.31,2.25
2.28,-2.44,3.73
1.67,-0.97,3.63
1.02,-1.08,3.65
0.85,-1.06,2.97
0.83,-0.73,1.94
0.39,-0.32,1.19
0.1,-0.13,0.72
0.13,-0.13,0.41
0.25,-0.22,0.24
0.27,-0.27,0.17
0.18,-0.2,0.17
0.12,-0.18,0.25
0.16,-0.19,0.3
0.24,-0.22,0.36
0.33,-0.28,0.49
0.48,-0.36,0.67
0.65,-0.51,0.9
0.82,-0.58,1.14
0.92,-0.54,1.27
0.88,-0.53,1.32
0.76,-0.52,1.26
0.65,-0.46,1.11
0.57,-0.39,0.94
0.51,-0.34,0.79
0.46,-0.3,0.68
0.43,-0.28,0.61
0.4,-0.27,0.58
0.37,-0.25,0.58
0.38,-0.24,0.62
0.43,-0.25,0.68
0.48,-0.27,0.77
0.55,-0.31,0.85
0.61,-0.35,0.94
0.64,-0.37,1
0.62,-0.38,1.01
0.57,-0.37,0.96
0.54,-0.35,0.89
0.46,-0.32,0.78
0.45,-0.32,0.75
0.44,-0.32,0.74
0.45,-0.32,0.74
0.47,-0.33,0.75
0.49,-0.34,0.77
0.52,-0.35,0.8
0.55,-0.36,0.82
0.57,-0.38,0.84
0.56,-0.38,0.85
0.55,-0.38,0.84
0.54,-0.37,0.82
0.51,-0.36,0.81
0.49,-0.35,0.8
0.47,-0.34,0.79
0.46,-0.33,0.78
0.46,-0.32,0.79
0.47,-0.33,0.81
0.5,-0.35,0.83
0.54,-0.37,0.84
0.55,-0.38,0.85
0.55,-0.38,0.84
0.54,-0.38,0.84
0.53,-0.37,0.82
0.51,-0.36,0.81
0.49,-0.35,0.8
0.47,-0.34,0.79
0.46,-0.34,0.79
0.48,-0.34,0.79
0.49,-0.34,0.79
0.51,-0.34,0.8
0.51,-0.34,0.81
0.51,-0.34,0.82
0.51,-0.34,0.82
0.53,-0.35,0.84
0.55,-0.36,0.86
0.56,-0.36,0.88
0.59,-0.36,0.92
0.62,-0.38,0.97
0.65,-0.4,1.03
0.64,-0.4,1.05
0.62,-0.38,1.05
0.61,-0.35,1.04
0.63,-0.35,1.06
0.67,-0.35,1.08
0.7,-0.34,1.1
0.71,-0.32,1.12
0.7,-0.28,1.12
0.69,-0.26,1.12
0.68,-0.23,1.13
0.66,-0.21,1.13
0.64,-0.18,1.11
0.63,-0.12,1.03
0.64,-0.1,0.98
0.63,-0.07,0.93
0.64,-0.05,0.91
0.68,-0.04,0.89
0.69,-0.05,0.88
0.66,-0.04,0.89
0.64,-0.03,0.91
0.63,-0.02,0.92
0.61,0,0.91
0.59,0.03,0.89
0.56,0.07,0.86
0.55,0.11,0.84
0.53,0.13,0.82
0.52,0.14,0.82
0.51,0.15,0.8
0.48,0.18,0.77
0.48,0.2,0.73
0.46,0.23,0.69
0.42,0.27,0.64
0.4,0.3,0.61
0.4,0.31,0.62
0.39,0.31,0.63
0.37,0.32,0.63
0.35,0.34,0.64
0.34,0.35,0.6
0.31,0.37,0.56
0.27,0.4,0.52
0.26,0.41,0.49
0.26,0.41,0.47
0.25,0.41,0.45
0.24,0.41,0.42
0.21,0.42,0.38
0.19,0.43,0.37
0.19,0.43,0.36
0.19,0.41,0.36
0.21,0.4,0.37
0.24,0.38,0.39
0.28,0.36,0.41
0.31,0.35,0.43
0.31,0.34,0.44
0.3,0.34,0.42
0.29,0.34,0.4
0.28,0.33,0.37
0.26,0.32,0.36
0.23,0.31,0.37
0.21,0.28,0.38
0.22,0.27,0.41
0.26,0.25,0.45
0.29,0.22,0.49
0.36,0.19,0.56
0.45,0.13,0.64
0.47,0.06,0.63
0.41,0.06,0.59
0.37,0.05,0.55
0.32,0.04,0.52
0.29,0.04,0.49
0.25,0.02,0.48
0.22,-0.01,0.5
0.22,-0.04,0.54
0.28,-0.08,0.59
0.33,-0.12,0.64
0.36,-0.16,0.66
0.37,-0.2,0.6
0.35,-0.23,0.51
0.31,-0.27,0.43
0.26,-0.32,0.39
0.74,-0.47,0.69
2.38,-1.64,2.49
3.13,-1.46,3.86
2.07,-0.37,3.8
1.21,-0.79,3.38
1.02,-0.84,2.34
0.67,-0.37,1.45
0.18,-0.05,0.93
0.09,0.04,0.58
0.15,-0.05,0.33
0.2,-0.13,0.2
0.18,-0.13,0.23
0.09,-0.15,0.28
0.12,-0.17,0.35
0.25,-0.21,0.43
0.4,-0.27,0.55
0.58,-0.35,0.72
0.78,-0.43,0.94
0.98,-0.49,1.12
1.09,-0.49,1.2
0.99,-0.48,1.22
0.77,-0.44,1.13
0.62,-0.35,0.98
0.52,-0.27,0.82
0.43,-0.24,0.72
0.38,-0.23,0.67
0.36,-0.22,0.65
0.34,-0.22,0.65
0.36,-0.22,0.68
0.43,-0.23,0.72
0.51,-0.26,0.76
0.6,-0.29,0.83
0.68,-0.31,0.9
0.72,-0.32,0.94
0.7,-0.32,0.95
0.64,-0.31,0.92
0.59,-0.29,0.85
0.55,-0.28,0.76
0.49,-0.29,0.73
0.49,-0.29,0.73
0.5,-0.29,0.74
0.53,-0.3,0.77
0.57,-0.31,0.81
0.6,-0.31,0.84
0.61,-0.32,0.87
0.61,-0.32,0.89
0.6,-0.29,0.89
0.61,-0.26,0.89
0.63,-0.25,0.89
0.64,-0.26,0.9
0.66,-0.26,0.93
0.67,-0.27,0.97
0.67,-0.28,1.02
0.71,-0.31,1.07
0.76,-0.36,1.11
0.82,-0.39,1.11
0.84,-0.39,1.07
0.82,-0.37,1.04
0.78,-0.34,1
0.76,-0.32,0.94
0.7,-0.31,0.89
0.67,-0.29,0.88
0.71,-0.25,0.91
0.77,-0.24,1.01
0.89,-0.22,1.04
0.86,-0.19,1.07
0.8,-0.15,1.09
0.74,-0.14,1.09
0.68,-0.13,1.06
0.63,-0.11,1.02
0.58,-0.09,0.97
0.56,-0.05,0.94
0.56,-0.03,0.92
0.56,-0.02,0.9
0.56,-0.01,0.88
0.56,0,0.86
0.53,0.02,0.82
0.5,0.04,0.79
0.5,0.06,0.79
0.48,0.07,0.78
0.43,0.09,0.78
0.42,0.11,0.78
0.4,0.12,0.75
0.37,0.16,0.73
0.39,0.18,0.7
0.39,0.2,0.65
0.35,0.23,0.59
0.33,0.26,0.53
0.32,0.29,0.5
0.31,0.31,0.46
0.26,0.36,0.45
0.26,0.38,0.45
0.27,0.38,0.47
0.27,0.38,0.48
0.26,0.39,0.48
0.25,0.41,0.46
0.22,0.42,0.42
0.19,0.45,0.38
0.17,0.47,0.34
0.17,0.48,0.31
0.18,0.48,0.3
0.21,0.47,0.3
0.23,0.45,0.31
0.22,0.44,0.32
0.2,0.43,0.31
0.19,0.42,0.31
0.18,0.4,0.3
0.18,0.38,0.3
0.18,0.35,0.29
0.2,0.33,0.28
0.21,0.31,0.28
0.22,0.27,0.29
0.22,0.22,0.3
0.22,0.18,0.32
0.21,0.15,0.33
0.2,0.11,0.32
0.24,0.02,0.31
0.27,-0.03,0.31
0.29,-0.09,0.34
0.33,-0.15,0.38
0.36,-0.21,0.45
0.38,-0.28,0.5
0.37,-0.33,0.52
0.36,-0.37,0.52
0.32,-0.42,0.52
0.28,-0.48,0.53
0.22,-0.54,0.52
0.17,-0.63,0.51
0.9,-0.96,1.39
2.81,-1.9,3.13
3.34,-1.44,3.99
2.09,-0.8,3.95
1.35,-1.17,3.39
1.08,-0.88,2.18
0.58,-0.44,1.19
0.16,0,0.68
0.22,0.04,0.35
0.23,-0.17,0.18
0.19,-0.24,0.14
0.23,-0.2,0.11
0.14,-0.17,0.15
0.1,-0.17,0.26
0.16,-0.21,0.29
0.23,-0.24,0.39
0.35,-0.36,0.7
0.56,-0.51,1.05
0.79,-0.54,1.25
0.89,-0.51,1.36
0.84,-0.52,1.41
0.71,-0.49,1.37
0.59,-0.42,1.19
0.51,-0.35,0.97
0.46,-0.3,0.8
0.43,-0.28,0.69
0.41,-0.29,0.62
0.38,-0.3,0.59
0.35,-0.3,0.58
0.34,-0.29,0.61
0.38,-0.3,0.66
0.46,-0.32,0.73
0.53,-0.35,0.82
0.57,-0.37,0.91
0.59,-0.38,0.96
0.59,-0.38,0.98
0.57,-0.37,0.95
0.54,-0.36,0.9
0.52,-0.34,0.84
0.5,-0.33,0.75
0.47,-0.33,0.74
0.48,-0.33,0.74
0.48,-0.34,0.76
0.49,-0.34,0.78
0.51,-0.35,0.8
0.52,-0.36,0.83
0.52,-0.36,0.84
0.51,-0.37,0.84
0.5,-0.37,0.83
0.5,-0.36,0.82
0.49,-0.36,0.8
0.49,-0.35,0.79
0.49,-0.35,0.79
0.49,-0.34,0.79
0.5,-0.34,0.8
0.51,-0.34,0.82
0.52,-0.35,0.84
0.52,-0.35,0.85
0.51,-0.35,0.86
0.5,-0.34,0.87
0.5,-0.34,0.86
0.49,-0.35,0.86
0.49,-0.34,0.84
0.5,-0.34,0.83
0.52,-0.34,0.83
0.53,-0.35,0.83
0.58,-0.37,0.86
0.58,-0.39,0.87
0.57,-0.39,0.9
0.58,-0.39,0.94
0.61,-0.41,0.98
0.64,-0.43,1.04
0.68,-0.45,1.11
0.71,-0.48,1.14
0.73,-0.5,1.12
0.74,-0.47,1.08
0.74,-0.45,1.03
0.73,-0.42,1.01
0.76,-0.41,1
0.78,-0.41,1.03
0.81,-0.39,1.08
0.85,-0.34,1.11
0.86,-0.3,1.12
0.85,-0.25,1.12
0.81,-0.21,1.1
0.78,-0.17,1.08
0.75,-0.14,1.04
0.71,-0.12,1.01
0.69,-0.09,0.96
0.65,-0.07,0.91
0.62,-0.03,0.88
0.63,0,0.86
0.61,0,0.83
0.57,0.03,0.79
0.54,0.06,0.75
0.5,0.11,0.7
0.48,0.17,0.67
0.49,0.21,0.65
0.5,0.22,0.66
0.52,0.21,0.72
0.51,0.19,0.75
0.45,0.21,0.73
0.4,0.26,0.67
0.36,0.3,0.59
0.32,0.34,0.52
0.28,0.38,0.46
0.23,0.41,0.43
0.22,0.43,0.42
0.27,0.43,0.45
0.29,0.42,0.49
0.29,0.4,0.53
0.28,0.4,0.54
0.26,0.42,0.54
0.23,0.45,0.51
0.21,0.47,0.48
0.19,0.48,0.44
0.18,0.49,0.42
0.2,0.49,0.43
0.27,0.45,0.5
0.33,0.43,0.54
0.34,0.42,0.56
0.34,0.44,0.55
0.33,0.46,0.52
0.31,0.47,0.5
0.28,0.48,0.47
0.29,0.49,0.46
0.34,0.49,0.46
0.38,0.49,0.48
0.4,0.5,0.49
0.4,0.52,0.51
0.39,0.54,0.53
0.37,0.55,0.56
0.35,0.57,0.57
0.34,0.58,0.58
0.32,0.58,0.58
0.32,0.57,0.58
0.33,0.56,0.58
0.36,0.53,0.6
0.38,0.51,0.61
0.38,0.49,0.63
0.37,0.48,0.63
0.36,0.47,0.62
0.35,0.46,0.6
0.32,0.46,0.59
0.3,0.45,0.54
0.28,0.45,0.52
0.27,0.45,0.49
0.25,0.45,0.48
0.22,0.44,0.48
0.21,0.44,0.47
0.21,0.43,0.47
0.21,0.42,0.46
0.22,0.4,0.45
0.28,0.36,0.49
0.38,0.3,0.57
0.45,0.22,0.66
0.54,0.14,0.77
0.62,0.05,0.85
0.62,-0.01,0.86
0.6,-0.02,0.81
0.6,-0.02,0.74
0.59,-0.02,0.69
0.56,-0.03,0.66
0.54,-0.04,0.64
0.54,-0.04,0.65
0.54,-0.05,0.71
0.55,-0.07,0.76
0.55,-0.08,0.78
0.54,-0.09,0.72
0.49,-0.1,0.63
0.44,-0.23,0.45
0.64,-0.47,0.89
1.82,-1.23,2.41
2.39,-1.04,3.33
1.65,-0.53,3.09
1.15,-0.88,2.69
1,-0.83,1.97
0.69,-0.46,1.21
0.38,-0.1,0.75
0.35,-0.07,0.46
0.36,-0.2,0.28
0.28,-0.22,0.24
0.22,-0.16,0.25
0.18,-0.17,0.29
0.19,-0.21,0.34
0.26,-0.25,0.44
0.37,-0.3,0.57
0.5,-0.38,0.72
0.64,-0.44,0.9
0.78,-0.46,1.07
0.88,-0.46,1.16
0.91,-0.46,1.16
0.83,-0.43,1.07
0.7,-0.36,0.94
0.6,-0.3,0.81
0.53,-0.27,0.71
0.48,-0.27,0.63
0.41,-0.27,0.63
0.4,-0.28,0.65
0.42,-0.29,0.7
0.48,-0.3,0.76
0.54,-0.33,0.83
0.59,-0.34,0.89
0.63,-0.34,0.92
0.64,-0.33,0.92
0.62,-0.32,0.89
0.59,-0.31,0.84
0.56,-0.31,0.79
0.54,-0.31,0.76
0.52,-0.31,0.74
0.51,-0.32,0.73
0.52,-0.33,0.75
0.53,-0.33,0.77
0.55,-0.33,0.79
0.56,-0.34,0.82
0.57,-0.35,0.84
0.57,-0.35,0.85
0.56,-0.34,0.84
0.55,-0.33,0.83
0.54,-0.32,0.83
0.51,-0.33,0.81
0.47,-0.33,0.81
0.46,-0.34,0.86
0.48,-0.34,0.88
0.51,-0.34,0.91
0.58,-0.36,0.93
0.63,-0.4,0.96
0.67,-0.41,0.98
0.68,-0.39,0.98
0.71,-0.38,0.99
0.77,-0.39,1.01
0.83,-0.4,1.04
0.84,-0.38,1.05
0.84,-0.34,1.06
0.84,-0.29,1.06
0.85,-0.25,1.06
0.84,-0.24,1.07
0.84,-0.22,1.07
0.84,-0.17,1.04
0.82,-0.14,1.01
0.8,-0.13,0.99
0.79,-0.11,0.98
0.78,-0.1,0.97
0.74,-0.07,0.95
0.71,-0.04,0.94
0.71,-0.01,0.93
0.72,0.01,0.91
0.7,0.03,0.88
0.68,0.05,0.79
0.64,0.06,0.75
0.63,0.07,0.73
0.63,0.09,0.73
0.63,0.11,0.74
0.62,0.13,0.73
0.58,0.15,0.74
0.55,0.18,0.73
0.5,0.21,0.7
0.46,0.25,0.66
0.45,0.27,0.62
0.48,0.3,0.6
0.51,0.3,0.6
0.49,0.29,0.59
0.45,0.31,0.59
0.42,0.34,0.57
0.4,0.36,0.54
0.38,0.38,0.52
0.36,0.41,0.5
0.33,0.43,0.47
0.32,0.45,0.46
0.34,0.45,0.48
0.33,0.44,0.48
0.3,0.46,0.47
0.28,0.47,0.47
0.26,0.48,0.46
0.24,0.49,0.44
0.22,0.5,0.43
0.21,0.5,0.43
0.2,0.5,0.43
0.2,0.49,0.44
0.22,0.47,0.47
0.24,0.45,0.5
0.26,0.43,0.52
0.28,0.42,0.53
0.3,0.42,0.52
0.32,0.42,0.51
0.33,0.42,0.49
0.32,0.42,0.46
0.32,0.41,0.43
0.32,0.4,0.4
0.32,0.38,0.37
0.33,0.37,0.32
0.33,0.37,0.29
0.32,0.37,0.27
0.29,0.38,0.26
0.27,0.39,0.26
0.27,0.38,0.29
0.3,0.36,0.32
0.34,0.34,0.36
0.44,0.3,0.45
0.55,0.23,0.52
0.58,0.2,0.49
0.5,0.23,0.44
0.42,0.24,0.38
0.37,0.24,0.33
0.35,0.21,0.31
0.38,0.17,0.34
0.46,0.11,0.41
0.52,0.01,0.54
0.58,-0.11,0.75
0.69,-0.24,0.94
0.85,-0.32,0.93
0.9,-0.3,0.79
0.74,-0.28,0.66
0.49,-0.27,0.55
0.3,-0.27,0.47
0.91,-0.34,1.25
2.18,-1.3,2.92
2.04,-1,3.77
1.21,-0.05,3.82
1.15,-0.75,3.34
1.04,-0.77,2.28
0.66,-0.12,1.38
0.37,0.15,0.8
0.37,0.09,0.46
0.37,-0.07,0.3
0.29,-0.13,0.25
0.23,-0.1,0.24
0.24,-0.12,0.29
0.31,-0.19,0.35
0.39,-0.24,0.42
0.46,-0.28,0.51
0.55,-0.36,0.65
0.71,-0.46,0.81
0.89,-0.56,0.95
0.9,-0.59,1.07
0.81,-0.52,1.14
0.7,-0.45,1.1
0.59,-0.41,0.98
0.55,-0.34,0.85
0.52,-0.29,0.75
0.51,-0.27,0.69
0.49,-0.25,0.66
0.47,-0.23,0.65
0.46,-0.23,0.68
0.48,-0.23,0.74
0.52,-0.25,0.81
0.57,-0.25,0.87
0.61,-0.27,0.91
0.63,-0.27,0.92
0.63,-0.26,0.9
0.61,-0.27,0.87
0.59,-0.27,0.83
0.57,-0.26,0.75
0.53,-0.26,0.74
0.53,-0.27,0.73
0.53,-0.28,0.74
0.54,-0.29,0.76
0.56,-0.3,0.78
0.58,-0.31,0.82
0.59,-0.31,0.84
0.59,-0.31,0.85
0.58,-0.3,0.85
0.58,-0.29,0.84
0.58,-0.29,0.83
0.59,-0.29,0.82
0.59,-0.3,0.8
0.58,-0.3,0.8
0.58,-0.31,0.8
0.59,-0.32,0.83
0.62,-0.35,0.87
0.65,-0.4,0.92
0.7,-0.45,0.96
0.73,-0.49,0.97
0.74,-0.52,0.98
0.76,-0.52,0.97
0.78,-0.5,0.9
0.79,-0.46,0.85
0.78,-0.41,0.82
0.77,-0.37,0.88
0.75,-0.27,0.93
0.74,-0.2,1
0.74,-0.15,1.06
0.75,-0.1,1.1
0.73,-0.06,1.11
0.72,-0.03,1.11
0.72,-0.01,1.09
0.7,0.01,1.05
0.67,0.02,0.99
0.66,0.03,0.95
0.66,0.02,0.93
0.65,0.02,0.91
0.66,0.02,0.91
0.65,0.02,0.91
0.65,0.02,0.91
0.63,0.04,0.9
0.6,0.07,0.87
0.57,0.11,0.82
0.56,0.14,0.78
0.57,0.16,0.77
0.56,0.17,0.78
0.53,0.17,0.75
0.5,0.2,0.71
0.5,0.23,0.7
0.51,0.24,0.68
0.49,0.27,0.69
0.5,0.29,0.69
0.46,0.31,0.67
0.45,0.32,0.66
0.42,0.34,0.64
0.39,0.36,0.61
0.4,0.38,0.6
0.39,0.39,0.58
0.37,0.4,0.55
0.36,0.43,0.53
0.35,0.44,0.5
0.33,0.45,0.48
0.31,0.46,0.46
0.3,0.47,0.46
0.3,0.47,0.46
0.29,0.47,0.45
0.26,0.48,0.43
0.24,0.5,0.4
0.21,0.51,0.35
0.17,0.53,0.31
0.16,0.53,0.28
0.16,0.52,0.27
0.17,0.5,0.27
0.19,0.49,0.29
0.21,0.47,0.32
0.21,0.45,0.35
0.21,0.44,0.37
0.21,0.42,0.36
0.2,0.41,0.34
0.17,0.4,0.3
0.14,0.38,0.26
0.13,0.36,0.23
0.12,0.34,0.21
0.12,0.31,0.19
0.15,0.28,0.2
0.2,0.23,0.25
0.27,0.15,0.32
0.32,0.08,0.37
0.34,0.04,0.37
0.37,0.01,0.36
0.39,-0.01,0.33
0.38,-0.06,0.31
0.35,-0.11,0.33
0.29,-0.17,0.39
0.22,-0.24,0.48
0.15,-0.27,0.58
0.18,-0.37,0.6
0.2,-0.47,0.61
0.18,-0.5,0.62
0.21,-0.58,0.57
0.28,-1.24,2.26
2.16,-1.78,3.99
3.47,-1.01,3.78
1.39,-1.09,3.17
1.19,-0.27,2
0.91,-0.2,0.94
0.4,-0.1,0.54
0.24,-0.04,0.35
0.18,-0.07,0.26
0.14,-0.14,0.22
0.13,-0.14,0.19
0.16,-0.11,0.18
0.22,-0.11,0.18
0.24,-0.13,0.19
0.22,-0.15,0.22
0.26,-0.17,0.31
0.39,-0.27,0.55
0.65,-0.48,0.9
0.98,-0.58,1.22
1.13,-0.51,1.43
1.06,-0.48,1.51
0.87,-0.48,1.41
0.7,-0.42,1.18
0.59,-0.31,0.93
0.5,-0.24,0.75
0.44,-0.23,0.62
0.4,-0.23,0.55
0.36,-0.22,0.52
0.34,-0.21,0.52
0.39,-0.22,0.64
0.49,-0.26,0.72
0.56,-0.3,0.84
0.62,-0.33,0.94
0.66,-0.35,1.01
0.67,-0.36,1.02
0.65,-0.36,0.97
0.6,-0.33,0.89
0.56,-0.31,0.81
0.53,-0.3,0.75
0.5,-0.29,0.72
0.5,-0.28,0.71
0.5,-0.28,0.72
0.52,-0.28,0.74
0.54,-0.29,0.77
0.56,-0.3,0.79
0.58,-0.31,0.82
0.58,-0.31,0.84
0.58,-0.31,0.84
0.57,-0.31,0.83
0.55,-0.3,0.82
0.53,-0.3,0.8
0.53,-0.3,0.79
0.53,-0.3,0.79
0.54,-0.3,0.79
0.56,-0.31,0.8
0.57,-0.32,0.81
0.59,-0.32,0.83
0.6,-0.32,0.85
0.59,-0.33,0.85
0.56,-0.33,0.84
0.53,-0.32,0.85
0.52,-0.32,0.89
0.56,-0.35,0.94
0.64,-0.4,0.97
0.7,-0.45,0.98
0.74,-0.48,1
0.78,-0.47,0.99
0.79,-0.45,0.99
0.79,-0.42,1
0.77,-0.41,0.99
0.77,-0.38,0.98
0.82,-0.33,1.01
0.88,-0.29,1.03
0.86,-0.26,1.08
0.82,-0.19,1.13
0.8,-0.14,1.13
0.77,-0.09,1.12
0.75,-0.05,1.11
0.73,-0.05,1.07
0.71,-0.04,1.03
0.67,-0.04,0.99
0.64,-0.03,0.92
0.56,-0.02,0.89
0.54,0.01,0.87
0.55,0.01,0.86
0.55,0,0.84
0.53,0.02,0.81
0.5,0.06,0.77
0.49,0.09,0.75
0.46,0.11,0.72
0.44,0.14,0.71
0.44,0.16,0.71
0.45,0.18,0.7
0.48,0.21,0.7
0.48,0.22,0.7
0.48,0.23,0.69
0.47,0.25,0.66
0.45,0.28,0.63
0.44,0.31,0.62
0.45,0.32,0.63
0.43,0.33,0.61
0.42,0.36,0.58
0.43,0.39,0.57
0.43,0.4,0.56
0.42,0.41,0.55
0.39,0.43,0.52
0.34,0.47,0.48
0.3,0.52,0.42
0.25,0.53,0.4
0.25,0.54,0.39
0.26,0.54,0.4
0.25,0.53,0.4
0.22,0.54,0.38
0.19,0.56,0.34
0.14,0.58,0.3
0.13,0.58,0.28
0.12,0.58,0.27
0.12,0.57,0.27
0.13,0.55,0.28
0.15,0.53,0.31
0.18,0.5,0.35
0.2,0.48,0.38
0.21,0.47,0.38
0.2,0.45,0.36
0.2,0.45,0.33
0.18,0.43,0.29
0.16,0.41,0.24
0.16,0.39,0.21
0.17,0.37,0.19
0.17,0.34,0.18
0.17,0.3,0.19
0.19,0.25,0.21
0.2,0.19,0.22
0.2,0.08,0.24
0.18,0.01,0.26
0.2,-0.06,0.31
0.22,-0.15,0.37
0.24,-0.22,0.42
0.26,-0.29,0.44
0.26,-0.36,0.45
0.25,-0.42,0.43
0.21,-0.5,0.37
0.17,-0.64,0.33
0.72,-1.78,2.15
1.23,-2.34,3.99
2.15,-1.5,4
2.3,-1.31,3.86
1.16,-1.04,3.2
0.84,-0.62,2.05
0.57,-0.35,1.1
0.26,-0.07,0.6
0.19,-0.07,0.31
0.21,-0.15,0.16
0.23,-0.2,0.09
0.22,-0.18,0.08
0.18,-0.16,0.1
0.15,-0.16,0.13
0.14,-0.17,0.17
0.14,-0.2,0.2
0.2,-0.35,0.49
0.59,-0.52,0.97
0.96,-0.51,1.36
1.01,-0.45,1.55
0.89,-0.42,1.63
0.79,-0.38,1.55
0.68,-0.34,1.31
0.58,-0.27,1.05
0.49,-0.22,0.84
0.44,-0.21,0.68
0.41,-0.21,0.58
0.38,-0.21,0.51
0.36,-0.22,0.5
0.38,-0.23,0.53
0.44,-0.23,0.58
0.52,-0.26,0.65
0.6,-0.29,0.76
0.65,-0.31,0.87
0.66,-0.32,0.96
0.65,-0.32,1.01
0.63,-0.31,1.01
0.59,-0.29,0.95
0.55,-0.27,0.88
0.51,-0.25,0.82
0.49,-0.25,0.78
0.5,-0.25,0.74
0.51,-0.27,0.73
0.53,-0.29,0.75
0.53,-0.31,0.78
0.54,-0.33,0.81
0.53,-0.34,0.84
0.51,-0.35,0.87
0.5,-0.35,0.88
0.48,-0.34,0.87
0.48,-0.33,0.85
0.48,-0.31,0.83
0.48,-0.31,0.8
0.5,-0.3,0.79
0.52,-0.29,0.79
0.54,-0.29,0.79
0.55,-0.29,0.8
0.55,-0.29,0.82
0.55,-0.28,0.83
0.54,-0.28,0.83
0.54,-0.28,0.83
0.54,-0.28,0.82
0.53,-0.28,0.82
0.52,-0.28,0.82
0.53,-0.28,0.81
0.53,-0.28,0.81
0.53,-0.28,0.81
0.53,-0.29,0.81
0.53,-0.29,0.82
0.53,-0.29,0.82
0.53,-0.29,0.82
0.53,-0.29,0.82
0.53,-0.29,0.82
0.53,-0.29,0.82
0.52,-0.29,0.82
0.52,-0.29,0.82
0.52,-0.29,0.81
0.52,-0.29,0.82
0.53,-0.29,0.82
0.53,-0.29,0.82
0.53,-0.29,0.82
0.53,-0.28,0.81
0.53,-0.29,0.82
0.53,-0.29,0.82
0.53,-0.29,0.82
0.52,-0.29,0.82
0.52,-0.29,0.82
0.52,-0.29,0.82
0.52,-0.29,0.82
0.52,-0.29,0.82
0.52,-0.3,0.82
0.52,-0.3,0.82
0.53,-0.3,0.82
0.53,-0.3,0.82
0.52,-0.3,0.82
0.52,-0.3,0.82
0.55,-0.31,0.82
0.52,-0.31,0.82
0.46,-0.32,0.83
0.52,-0.31,0.82
0.58,-0.31,0.79
0.54,-0.31,0.8
0.5,-0.3,0.82
0.51,-0.3,0.83
0.51,-0.27,0.85
0.52,-0.25,0.85
0.54,-0.25,0.86
0.56,-0.25,0.85
0.57,-0.26,0.85
0.56,-0.26,0.85
0.55,-0.27,0.87
0.55,-0.3,0.9
0.55,-0.34,0.95
0.56,-0.4,1
0.61,-0.44,1.06
0.67,-0.49,1.11
0.7,-0.54,1.13
0.72,-0.54,1.1
0.71,-0.49,1.05
0.66,-0.42,1.01
0.67,-0.36,1.07
0.77,-0.31,1.12
0.81,-0.26,1.17
0.82,-0.2,1.2
0.83,-0.15,1.2
0.84,-0.11,1.2
0.84,-0.11,1.2
0.82,-0.13,1.16
0.8,-0.12,1.1
0.8,-0.1,1.05
0.81,-0.09,1.02
0.79,-0.08,0.99
0.76,-0.05,0.96
0.73,-0.02,0.95
0.69,0.01,0.94
0.64,0.03,0.93
0.59,0.06,0.89
0.53,0.11,0.84
0.5,0.14,0.79
0.48,0.14,0.73
0.45,0.17,0.68
0.44,0.19,0.64
0.41,0.21,0.61
0.37,0.24,0.57
0.35,0.26,0.54
0.33,0.28,0.51
0.29,0.3,0.41
0.25,0.37,0.39
0.22,0.38,0.37
0.2,0.4,0.34
0.17,0.42,0.31
0.14,0.44,0.29
0.12,0.46,0.27
0.11,0.46,0.25
0.1,0.46,0.24
0.08,0.47,0.22
0.05,0.5,0.18
0.03,0.52,0.16
0.03,0.51,0.15
0.04,0.49,0.15
0.04,0.49,0.15
0.05,0.48,0.15
0.05,0.47,0.15
0.06,0.46,0.16
0.06,0.45,0.16
0.07,0.44,0.16
0.08,0.41,0.17
0.09,0.38,0.16
0.11,0.34,0.16
0.12,0.3,0.17
0.14,0.24,0.17
0.16,0.2,0.16
0.19,0.15,0.2
0.26,0.04,0.24
0.32,-0.02,0.29
0.38,-0.1,0.36
0.44,-0.17,0.43
0.45,-0.22,0.47
0.43,-0.26,0.49
0.42,-0.31,0.48
0.41,-0.36,0.42
0.39,-0.4,0.33
0.33,-0.44,0.23
0.24,-0.52,0.16
0.23,-0.63,-0.05
1.09,-2.33,1.86
2.95,-2.6,3.97
3.05,-1.16,3.99
1.75,-1.18,3.9
1.46,-0.96,2.91
1.09,-0.36,1.5
0.31,0.03,0.73
0.04,0.13,0.31
0.14,0.1,0.12
0.15,0.01,0.09
0.1,-0.07,0.09
0.05,-0.07,0.16
0.1,-0.07,0.19
0.2,-0.12,0.23
0.34,-0.26,0.37
0.44,-0.37,0.62
0.63,-0.53,0.96
0.85,-0.66,1.28
0.96,-0.64,1.45
0.86,-0.58,1.49
0.7,-0.48,1.37
0.59,-0.35,1.11
0.53,-0.29,0.85
0.47,-0.26,0.69
0.43,-0.26,0.61
0.42,-0.26,0.55
0.42,-0.25,0.53
0.41,-0.25,0.53
0.44,-0.26,0.57
0.49,-0.28,0.66
0.55,-0.31,0.76
0.59,-0.33,0.86
0.6,-0.33,0.95
0.61,-0.33,1.01
0.6,-0.32,1.02
0.57,-0.31,0.97
0.53,-0.29,0.9
0.5,-0.28,0.82
0.49,-0.27,0.76
0.48,-0.27,0.72
0.52,-0.28,0.73
0.54,-0.3,0.76
0.57,-0.32,0.78
0.6,-0.33,0.81
0.61,-0.34,0.82
0.6,-0.34,0.83
0.59,-0.33,0.82
0.57,-0.32,0.8
0.55,-0.31,0.79
0.55,-0.3,0.77
0.54,-0.3,0.76
0.56,-0.3,0.76
0.57,-0.3,0.77
0.58,-0.3,0.77
0.6,-0.29,0.78
0.6,-0.29,0.78
0.61,-0.29,0.78
0.6,-0.29,0.79
0.59,-0.29,0.78
0.58,-0.29,0.78
0.57,-0.29,0.78
0.57,-0.3,0.78
0.57,-0.3,0.78
0.57,-0.3,0.78
0.57,-0.3,0.78
0.58,-0.3,0.78
0.58,-0.3,0.79
0.57,-0.3,0.79
0.57,-0.3,0.79
0.57,-0.3,0.8
0.57,-0.3,0.8
0.57,-0.3,0.8
0.57,-0.3,0.8
0.56,-0.3,0.81
0.56,-0.3,0.8
0.56,-0.3,0.8
0.59,-0.3,0.79
0.6,-0.29,0.78
0.6,-0.28,0.78
0.61,-0.29,0.77
0.6,-0.29,0.78
0.63,-0.29,0.77
0.65,-0.3,0.78
0.62,-0.3,0.8
0.63,-0.31,0.82
0.65,-0.33,0.84
0.66,-0.35,0.88
0.67,-0.36,0.94
0.72,-0.41,0.98
0.83,-0.45,0.98
0.91,-0.48,0.99
0.95,-0.51,0.98
0.96,-0.46,0.93
0.95,-0.4,0.91
0.94,-0.37,0.95
0.95,-0.35,1.01
1.02,-0.31,1.08
1.07,-0.27,1.16
1.07,-0.22,1.23
1.06,-0.18,1.24
1,-0.15,1.18
1.01,-0.13,1.05
1.05,-0.1,0.89
1.02,-0.08,0.8
0.93,-0.05,0.76
0.87,-0.02,0.73
0.85,0,0.72
0.81,0.02,0.72
0.78,0.05,0.69
0.79,0.07,0.64
0.8,0.09,0.61
0.77,0.11,0.6
0.69,0.14,0.58
0.57,0.19,0.56
0.46,0.23,0.54
0.43,0.28,0.52
0.4,0.29,0.5
0.33,0.31,0.49
0.32,0.36,0.45
0.27,0.38,0.41
0.22,0.41,0.38
0.2,0.44,0.34
0.17,0.47,0.32
0.12,0.49,0.31
0.09,0.5,0.29
0.08,0.51,0.27
0.09,0.51,0.26
0.11,0.52,0.26
0.12,0.51,0.26
0.1,0.52,0.24
0.08,0.53,0.24
0.07,0.53,0.24
0.07,0.52,0.23
0.08,0.51,0.24
0.09,0.51,0.23
0.12,0.5,0.21
0.14,0.49,0.21
0.13,0.49,0.2
0.1,0.49,0.19
0.08,0.48,0.18
0.08,0.48,0.18
0.07,0.46,0.19
0.06,0.45,0.19
0.09,0.43,0.2
0.16,0.36,0.19
0.23,0.33,0.2
0.24,0.29,0.21
0.24,0.25,0.2
0.25,0.21,0.18
0.26,0.17,0.16
0.25,0.12,0.16
0.25,0.07,0.17
0.26,0.01,0.2
0.29,-0.05,0.22
0.32,-0.12,0.26
0.33,-0.19,0.29
0.34,-0.28,0.3
0.31,-0.36,0.31
0.25,-0.44,0.3
0.2,-0.56,0.26
0.16,-0.7,0.22
0.1,-0.87,0.21
2.02,-1.99,1.65
3.38,-1.31,3.54
2.78,-0.86,4
2.09,-1.58,3.74
1.55,-0.81,2.55
1.19,-0.39,1.23
0.54,-0.17,0.63
0.3,-0.04,0.31
0.2,-0.12,0.04
0.15,-0.12,0.02
0.15,-0.11,0.04
0.18,-0.13,0.09
0.19,-0.14,0.14
0.19,-0.15,0.17
0.2,-0.18,0.2
0.28,-0.23,0.32
0.46,-0.4,0.76
0.85,-0.55,1.24
1.07,-0.52,1.49
0.95,-0.43,1.62
0.82,-0.38,1.59
0.71,-0.35,1.4
0.62,-0.29,1.11
0.55,-0.24,0.87
0.51,-0.19,0.69
0.5,-0.16,0.56
0.48,-0.17,0.49
0.46,-0.17,0.47
0.46,-0.16,0.49
0.5,-0.18,0.55
0.57,-0.21,0.63
0.64,-0.26,0.73
0.7,-0.3,0.84
0.72,-0.33,0.94
0.7,-0.36,1
0.62,-0.35,0.95
0.57,-0.33,0.87
0.53,-0.31,0.8
0.5,-0.3,0.73
0.49,-0.29,0.69
0.5,-0.29,0.67
0.53,-0.29,0.67
0.56,-0.3,0.7
0.6,-0.3,0.73
0.62,-0.31,0.76
0.64,-0.3,0.79
0.64,-0.3,0.82
0.64,-0.29,0.83
0.63,-0.28,0.82
0.62,-0.27,0.8
0.61,-0.26,0.78
0.6,-0.25,0.76
0.6,-0.25,0.74
0.6,-0.26,0.74
0.6,-0.26,0.74
0.6,-0.26,0.75
0.61,-0.27,0.77
0.61,-0.28,0.78
0.61,-0.28,0.79
0.61,-0.28,0.79
0.61,-0.28,0.78
0.6,-0.28,0.77
0.6,-0.28,0.76
0.59,-0.28,0.75
0.59,-0.28,0.75
0.59,-0.28,0.76
0.59,-0.28,0.76
0.6,-0.29,0.77
0.6,-0.29,0.78
0.6,-0.29,0.78
0.6,-0.29,0.78
0.6,-0.28,0.78
0.6,-0.28,0.78
0.6,-0.28,0.78
0.59,-0.28,0.78
0.59,-0.28,0.77
0.59,-0.28,0.77
0.59,-0.28,0.78
0.6,-0.28,0.77
0.6,-0.29,0.77
0.6,-0.29,0.77
0.6,-0.29,0.77
0.6,-0.28,0.77
0.6,-0.28,0.76
0.6,-0.28,0.76
0.6,-0.28,0.77
0.6,-0.27,0.77
0.61,-0.27,0.78
0.61,-0.27,0.78
0.61,-0.28,0.78
0.6,-0.28,0.78
0.59,-0.28,0.79
0.62,-0.28,0.79
0.59,-0.3,0.78
0.54,-0.31,0.8
0.64,-0.31,0.79
0.71,-0.32,0.77
0.64,-0.31,0.8
0.6,-0.31,0.86
0.63,-0.33,0.9
0.66,-0.35,0.96
0.66,-0.38,1.01
0.65,-0.41,1.02
0.64,-0.4,0.97
0.69,-0.36,0.92
0.75,-0.33,0.92
0.78,-0.33,0.94
0.8,-0.32,0.96
0.81,-0.3,0.98
0.82,-0.29,1.01
0.85,-0.29,1.05
0.89,-0.3,1.08
0.86,-0.31,1.14
0.84,-0.24,1.14
0.82,-0.21,1.14
0.79,-0.18,1.13
0.78,-0.14,1.11
0.76,-0.12,1.08
0.71,-0.09,1.03
0.66,-0.04,0.97
0.63,0.01,0.93
0.61,0.03,0.92
0.61,0.04,0.91
0.59,0.05,0.89
0.58,0.06,0.87
0.6,0.08,0.85
0.59,0.08,0.8
0.56,0.11,0.76
0.54,0.14,0.73
0.55,0.15,0.71
0.53,0.15,0.7
0.52,0.16,0.67
0.48,0.19,0.64
0.45,0.22,0.6
0.42,0.26,0.57
0.39,0.28,0.54
0.37,0.31,0.52
0.35,0.33,0.5
0.32,0.34,0.48
0.28,0.37,0.48
0.27,0.39,0.46
0.26,0.41,0.44
0.25,0.43,0.42
0.26,0.44,0.4
0.25,0.46,0.41
0.25,0.46,0.41
0.25,0.47,0.41
0.23,0.47,0.39
0.21,0.48,0.36
0.2,0.49,0.35
0.21,0.49,0.35
0.22,0.47,0.36
0.22,0.46,0.37
0.23,0.45,0.39
0.24,0.43,0.41
0.26,0.41,0.43
0.28,0.39,0.44
0.27,0.39,0.45
0.26,0.39,0.43
0.24,0.4,0.41
0.22,0.41,0.38
0.2,0.41,0.36
0.22,0.4,0.37
0.32,0.34,0.46
0.46,0.26,0.69
0.55,0.15,0.71
0.53,0.17,0.7
0.49,0.19,0.65
0.45,0.21,0.58
0.41,0.22,0.51
0.36,0.22,0.46
0.33,0.21,0.42
0.32,0.2,0.39
0.31,0.19,0.39
0.3,0.18,0.42
0.3,0.16,0.47
0.3,0.14,0.51
0.29,0.13,0.53
0.31,0.12,0.53
0.31,0.12,0.5
0.29,0.11,0.48
0.26,0.08,0.45
0.23,0.01,0.42
0.17,-0.08,0.4
0.12,-0.18,0.37
0.08,-0.33,0.42
2.01,-0.37,2.23
3.52,-0.41,3.99
2.36,-0.79,3.89
1.44,-0.95,3.46
1.21,-0.75,1.37
0.37,-0.08,0.81
0.2,0.02,0.45
0.17,-0.04,0.24
0.15,-0.12,0.15
0.12,-0.13,0.12
0.11,-0.11,0.13
0.11,-0.1,0.15
0.14,-0.12,0.2
0.21,-0.17,0.27
0.31,-0.25,0.41
0.46,-0.38,0.64
0.73,-0.53,0.94
1.09,-0.56,1.19
1.24,-0.52,1.34
1.12,-0.49,1.39
0.88,-0.47,1.31
0.69,-0.38,1.1
0.58,-0.28,0.87
0.48,-0.24,0.72
0.42,-0.22,0.63
0.39,-0.22,0.57
0.38,-0.23,0.55
0.36,-0.24,0.56
0.38,-0.24,0.61
0.44,-0.26,0.69
0.53,-0.3,0.9
0.65,-0.34,0.98
0.66,-0.33,1
0.66,-0.31,0.97
0.64,-0.28,0.9
0.6,-0.27,0.83
0.58,-0.25,0.77
0.56,-0.23,0.72
0.54,-0.24,0.7
0.53,-0.24,0.69
0.53,-0.25,0.7
0.56,-0.26,0.72
0.61,-0.27,0.74
0.63,-0.29,0.78
0.65,-0.3,0.81
0.65,-0.31,0.83
0.62,-0.3,0.83
0.59,-0.29,0.82
0.56,-0.29,0.8
0.54,-0.28,0.78
0.53,-0.28,0.77
0.53,-0.28,0.77
0.53,-0.28,0.78
0.53,-0.29,0.8
0.54,-0.29,0.81
0.55,-0.29,0.82
0.55,-0.29,0.82
0.55,-0.29,0.81
0.55,-0.29,0.79
0.55,-0.29,0.78
0.56,-0.28,0.78
0.57,-0.28,0.78
0.57,-0.28,0.78
0.57,-0.28,0.78
0.58,-0.27,0.78
0.59,-0.28,0.78
0.59,-0.28,0.78
0.6,-0.28,0.78
0.59,-0.28,0.78
0.59,-0.28,0.77
0.59,-0.28,0.77
0.59,-0.27,0.77
0.6,-0.27,0.77
0.61,-0.27,0.77
0.61,-0.27,0.77
0.6,-0.27,0.77
0.6,-0.27,0.77
0.6,-0.27,0.77
0.59,-0.28,0.77
0.59,-0.28,0.78
0.59,-0.28,0.78
0.59,-0.28,0.78
0.59,-0.28,0.78
0.58,-0.28,0.78
0.58,-0.28,0.78
0.58,-0.27,0.78
0.59,-0.27,0.78
0.6,-0.27,0.79
0.61,-0.27,0.8
0.62,-0.28,0.81
0.62,-0.29,0.81
0.61,-0.29,0.82
0.6,-0.29,0.84
0.61,-0.3,0.86
0.6,-0.32,0.87
0.59,-0.33,0.87
0.59,-0.34,0.89
0.61,-0.36,0.91
0.65,-0.38,0.91
0.66,-0.4,0.89
0.66,-0.38,0.86
0.66,-0.35,0.85
0.67,-0.32,0.85
0.68,-0.28,0.85
0.69,-0.26,0.86
0.7,-0.25,0.88
0.74,-0.23,0.9
0.8,-0.23,0.92
0.84,-0.22,0.94
0.86,-0.18,0.98
0.89,-0.18,1
0.88,-0.18,1
0.86,-0.16,0.99
0.86,-0.15,0.99
0.85,-0.14,0.99
0.86,-0.13,1
0.87,-0.13,1.01
0.87,-0.12,1
0.86,-0.1,0.99
0.82,-0.07,0.97
0.77,-0.04,0.96
0.73,-0.01,0.94
0.68,0.01,0.92
0.64,0.04,0.88
0.63,0.08,0.86
0.63,0.12,0.84
0.62,0.14,0.8
0.59,0.17,0.77
0.57,0.21,0.75
0.53,0.24,0.72
0.51,0.27,0.7
0.49,0.29,0.69
0.47,0.31,0.68
0.45,0.33,0.65
0.42,0.37,0.61
0.41,0.42,0.56
0.38,0.44,0.53
0.36,0.48,0.52
0.36,0.5,0.52
0.34,0.51,0.51
0.34,0.53,0.5
0.35,0.54,0.48
0.34,0.54,0.47
0.33,0.54,0.45
0.32,0.55,0.43
0.3,0.57,0.4
0.29,0.57,0.39
0.29,0.58,0.4
0.28,0.58,0.41
0.26,0.58,0.41
0.25,0.58,0.4
0.23,0.58,0.39
0.2,0.58,0.37
0.18,0.59,0.35
0.17,0.59,0.34
0.17,0.59,0.35
0.17,0.58,0.36
0.19,0.57,0.38
0.21,0.56,0.4
0.24,0.55,0.44
0.27,0.53,0.47
0.28,0.51,0.5
0.27,0.51,0.49
0.24,0.51,0.47
0.22,0.52,0.44
0.2,0.52,0.4
0.18,0.51,0.36
0.16,0.5,0.33
0.15,0.5,0.29
0.14,0.5,0.26
0.18,0.49,0.27
0.23,0.45,0.29
0.24,0.42,0.29
0.26,0.42,0.28
0.26,0.43,0.27
0.25,0.43,0.27
0.25,0.41,0.3
0.28,0.38,0.35
0.32,0.33,0.41
0.35,0.29,0.44
0.34,0.27,0.45
0.34,0.26,0.43
0.34,0.24,0.4
0.35,0.2,0.38
0.37,0.16,0.4
0.36,0.11,0.45
0.36,0.06,0.55
0.36,-0.01,0.66
0.32,-0.03,0.64
0.28,-0.06,0.58
0.22,-0.1,0.48
0.16,-0.18,0.38
0.09,-0.28,0.3
0.07,-0.36,0.34
2.02,-0.94,2.19
2.95,-0.89,3.87
2.11,-0.93,3.76
1.48,-1.11,3.56
0.86,-0.69,2.58
0.66,-0.46,1.36
0.14,-0.01,0.74
0,0.17,0.43
0.05,0.05,0.24
0.11,-0.08,0.16
0.12,-0.12,0.19
0.1,-0.13,0.25
0.12,-0.16,0.28
0.2,-0.23,0.32
0.29,-0.34,0.38
0.45,-0.44,0.52
0.65,-0.54,0.75
0.92,-0.64,0.97
1.1,-0.7,1.14
1.03,-0.57,1.26
0.59,-0.49,1.14
0.46,-0.39,0.94
0.41,-0.31,0.78
0.37,-0.29,0.67
0.36,-0.27,0.6
0.35,-0.26,0.57
0.35,-0.25,0.57
0.4,-0.25,0.6
0.48,-0.25,0.66
0.56,-0.27,0.73
0.64,-0.28,0.83
0.69,-0.28,0.93
0.69,-0.29,0.99
0.65,-0.28,1.01
0.6,-0.28,0.97
0.55,-0.27,0.9
0.52,-0.27,0.83
0.5,-0.26,0.78
0.49,-0.27,0.75
0.49,-0.28,0.74
0.5,-0.29,0.74
0.52,-0.32,0.76
0.54,-0.34,0.78
0.55,-0.36,0.81
0.54,-0.36,0.83
0.52,-0.37,0.84
0.48,-0.35,0.84
0.47,-0.33,0.83
0.47,-0.33,0.82
0.48,-0.32,0.81
0.49,-0.31,0.8
0.5,-0.31,0.79
0.52,-0.31,0.8
0.52,-0.31,0.81
0.54,-0.3,0.82
0.55,-0.3,0.82
0.54,-0.3,0.83
0.54,-0.3,0.83
0.54,-0.3,0.82
0.53,-0.3,0.82
0.53,-0.3,0.81
0.54,-0.3,0.8
0.53,-0.3,0.8
0.54,-0.3,0.8
0.54,-0.3,0.8
0.54,-0.3,0.8
0.54,-0.3,0.8
0.53,-0.3,0.81
0.52,-0.3,0.82
0.52,-0.3,0.82
0.52,-0.3,0.82
0.51,-0.3,0.82
0.52,-0.3,0.81
0.52,-0.3,0.81
0.52,-0.3,0.81
0.52,-0.3,0.81
0.52,-0.31,0.81
0.53,-0.3,0.81
0.53,-0.3,0.81
0.54,-0.3,0.82
0.54,-0.3,0.81
0.54,-0.3,0.81
0.54,-0.29,0.81
0.54,-0.29,0.81
0.54,-0.29,0.81
0.54,-0.29,0.81
0.52,-0.29,0.81
0.51,-0.29,0.82
0.51,-0.29,0.83
0.48,-0.3,0.84
0.55,-0.29,0.82
0.61,-0.29,0.8
0.57,-0.28,0.8
0.54,-0.28,0.81
0.54,-0.28,0.82
0.54,-0.26,0.83
0.53,-0.25,0.82
0.54,-0.24,0.77
0.57,-0.24,0.77
0.58,-0.25,0.77
0.6,-0.27,0.77
0.61,-0.29,0.78
0.61,-0.31,0.79
0.59,-0.32,0.8
0.57,-0.32,0.82
0.54,-0.32,0.84
0.52,-0.32,0.86
0.51,-0.31,0.88
0.51,-0.3,0.9
0.52,-0.3,0.93
0.51,-0.29,0.97
0.48,-0.3,1.03
0.47,-0.29,1.08
0.5,-0.25,1.13
0.57,-0.2,1.16
0.65,-0.19,1.19
0.76,-0.23,1.26
0.88,-0.28,1.32
1.01,-0.29,1.29
1.04,-0.29,1.23
0.99,-0.29,1.14
1.03,-0.27,0.99
1.03,-0.31,0.92
1.04,-0.35,0.9
1.08,-0.29,0.92
1.06,-0.27,0.93
0.99,-0.23,0.94
0.91,-0.19,0.95
0.84,-0.15,0.94
0.79,-0.13,0.91
0.75,-0.11,0.85
0.71,-0.09,0.79
0.69,-0.06,0.75
0.68,-0.05,0.76
0.7,-0.07,0.8
0.71,-0.1,0.85
0.64,-0.11,0.87
0.55,-0.08,0.85
0.51,0,0.82
0.5,0.03,0.72
0.49,0.07,0.6
0.48,0.11,0.53
0.52,0.14,0.45
0.58,0.17,0.37
0.56,0.21,0.29
0.52,0.25,0.24
0.48,0.28,0.22
0.43,0.33,0.2
0.37,0.38,0.18
0.35,0.4,0.18
0.3,0.44,0.19
0.26,0.48,0.19
0.25,0.49,0.19
0.25,0.5,0.18
0.25,0.51,0.19
0.25,0.51,0.19
0.26,0.52,0.19
0.27,0.53,0.19
0.27,0.55,0.18
0.25,0.57,0.17
0.24,0.58,0.16
0.23,0.58,0.15
0.24,0.58,0.15
0.24,0.57,0.15
0.25,0.55,0.15
0.27,0.53,0.17
0.3,0.51,0.2
0.32,0.51,0.23
0.38,0.5,0.29
0.44,0.48,0.37
0.48,0.45,0.42
0.48,0.44,0.46
0.45,0.44,0.48
0.42,0.45,0.46
0.38,0.48,0.41
0.34,0.51,0.27
0.28,0.5,0.23
0.29,0.47,0.2
0.29,0.43,0.19
0.35,0.4,0.23
0.49,0.36,0.33
0.59,0.3,0.41
0.65,0.24,0.52
0.73,0.18,0.62
0.76,0.12,0.63
0.71,0.1,0.61
0.67,0.1,0.55
0.63,0.07,0.49
0.59,0,0.44
0.53,-0.07,0.42
0.48,-0.13,0.42
0.48,-0.25,0.43
0.47,-0.36,0.43
0.46,-0.5,0.42
1.68,-1.08,2.17
3.19,-1.83,3.97
2.73,-1.1,3.99
1.48,-0.57,3.66
0.96,-0.94,2.86
0.8,-0.61,1.92
0.51,-0.18,1.15
0.3,0.03,0.33
0.32,-0.09,0.22
0.29,-0.11,0.18
0.28,-0.1,0.15
0.28,-0.1,0.16
0.29,-0.12,0.21
0.36,-0.17,0.3
0.47,-0.24,0.46
0.61,-0.33,0.64
0.76,-0.42,0.87
0.93,-0.45,1.12
0.98,-0.43,1.3
0.85,-0.39,1.34
0.69,-0.32,1.23
0.6,-0.25,1.02
0.55,-0.2,0.83
0.51,-0.17,0.72
0.48,-0.16,0.65
0.46,-0.16,0.6
0.46,-0.17,0.58
0.51,-0.17,0.59
0.58,-0.2,0.61
0.65,-0.24,0.66
0.72,-0.26,0.72
0.77,-0.28,0.79
0.77,-0.28,0.85
0.75,-0.27,0.88
0.65,-0.25,0.83
0.6,-0.23,0.78
0.56,-0.22,0.74
0.54,-0.23,0.72
0.53,-0.24,0.71
0.55,-0.25,0.72
0.59,-0.26,0.74
0.63,-0.27,0.76
0.65,-0.28,0.79
0.66,-0.28,0.8
0.66,-0.27,0.8
0.64,-0.26,0.79
0.62,-0.25,0.77
0.6,-0.24,0.76
0.59,-0.24,0.75
0.59,-0.23,0.75
0.59,-0.23,0.75
0.61,-0.24,0.76
0.63,-0.24,0.77
0.64,-0.24,0.78
0.64,-0.25,0.78
0.64,-0.25,0.78
0.64,-0.25,0.78
0.63,-0.25,0.77
0.62,-0.25,0.76
0.61,-0.25,0.76
0.61,-0.25,0.76
0.61,-0.25,0.76
0.61,-0.25,0.77
0.61,-0.25,0.77
0.61,-0.25,0.78
0.61,-0.25,0.78
0.61,-0.25,0.77
0.61,-0.25,0.77
0.61,-0.25,0.77
0.61,-0.25,0.77
0.61,-0.24,0.77
0.61,-0.24,0.77
0.61,-0.24,0.77
0.61,-0.25,0.77
0.62,-0.25,0.77
0.62,-0.25,0.77
0.62,-0.25,0.77
0.62,-0.25,0.77
0.62,-0.25,0.77
0.62,-0.26,0.76
0.62,-0.26,0.76
0.61,-0.25,0.76
0.61,-0.25,0.76
0.6,-0.25,0.77
0.62,-0.25,0.76
0.63,-0.25,0.74
0.61,-0.26,0.77
0.62,-0.27,0.78
0.69,-0.27,0.77
0.66,-0.28,0.77
0.62,-0.27,0.78
0.62,-0.25,0.79
0.62,-0.25,0.81
0.6,-0.25,0.82
0.59,-0.25,0.81
0.6,-0.23,0.8
0.61,-0.24,0.82
0.66,-0.26,0.83
0.7,-0.28,0.82
0.71,-0.28,0.82
0.71,-0.29,0.84
0.7,-0.3,0.87
0.73,-0.31,0.88
0.79,-0.33,0.88
0.84,-0.34,0.89
0.87,-0.34,0.91
0.86,-0.31,0.92
0.84,-0.27,0.92
0.81,-0.23,0.94
0.79,-0.19,0.96
0.79,-0.15,0.96
0.8,-0.12,0.95
0.79,-0.08,0.93
0.77,-0.07,0.92
0.76,-0.08,0.91
0.75,-0.09,0.9
0.74,-0.1,0.89
0.71,-0.09,0.87
0.69,-0.09,0.85
0.67,-0.08,0.82
0.66,-0.06,0.8
0.65,-0.05,0.78
0.63,-0.04,0.75
0.62,-0.02,0.73
0.59,0,0.71
0.57,0.04,0.67
0.53,0.08,0.64
0.51,0.11,0.6
0.48,0.14,0.57
0.46,0.18,0.54
0.45,0.2,0.51
0.43,0.21,0.49
0.41,0.23,0.46
0.4,0.24,0.44
0.4,0.26,0.43
0.38,0.26,0.41
0.35,0.28,0.38
0.32,0.31,0.34
0.3,0.31,0.33
0.28,0.31,0.32
0.27,0.3,0.32
0.26,0.29,0.3
0.27,0.28,0.29
0.27,0.27,0.27
0.28,0.24,0.27
0.28,0.21,0.25
0.28,0.18,0.24
0.28,0.14,0.24
0.29,0.09,0.26
0.31,0.03,0.29
0.32,-0.04,0.32
0.33,-0.1,0.33
0.33,-0.16,0.34
0.29,-0.22,0.33
0.25,-0.28,0.32
0.21,-0.35,0.29
0.21,-0.4,0.3
1.95,-1.71,2.01
2.79,-1.8,3.31
1.94,-0.92,3.08
1.57,-1.05,3.14
1.11,-0.81,2.48
0.86,-0.55,1.53
0.51,-0.21,0.89
0.27,-0.09,0.34
0.2,-0.14,0.26
0.19,-0.18,0.2
0.17,-0.16,0.17
0.19,-0.13,0.17
0.21,-0.16,0.23
0.28,-0.22,0.32
0.39,-0.29,0.48
0.51,-0.37,0.73
0.69,-0.43,0.97
0.91,-0.46,1.18
0.99,-0.44,1.32
0.86,-0.38,1.35
0.71,-0.31,1.23
0.61,-0.25,1.02
0.55,-0.21,0.83
0.51,-0.2,0.71
0.48,-0.19,0.63
0.46,-0.19,0.58
0.46,-0.2,0.56
0.49,-0.21,0.58
0.54,-0.22,0.62
0.61,-0.25,0.7
0.68,-0.28,0.78
0.73,-0.3,0.85
0.73,-0.31,0.91
0.68,-0.28,0.92
0.58,-0.27,0.86
0.55,-0.26,0.8
0.54,-0.25,0.76
0.53,-0.25,0.73
0.54,-0.25,0.72
0.55,-0.26,0.72
0.58,-0.27,0.74
0.6,-0.28,0.76
0.61,-0.29,0.79
0.61,-0.3,0.82
0.59,-0.29,0.84
0.57,-0.28,0.83
0.56,-0.28,0.82
0.56,-0.27,0.8
0.56,-0.26,0.78
0.57,-0.26,0.76
0.59,-0.26,0.76
0.6,-0.26,0.76
0.61,-0.26,0.77
0.61,-0.26,0.78
0.6,-0.26,0.79
0.59,-0.26,0.8
0.59,-0.26,0.79
0.59,-0.26,0.79
0.59,-0.26,0.79
0.59,-0.27,0.77
0.59,-0.27,0.77
0.59,-0.27,0.77
0.59,-0.27,0.78
0.58,-0.27,0.78
0.58,-0.28,0.78
0.57,-0.28,0.79
0.56,-0.28,0.79
0.55,-0.29,0.79
0.56,-0.29,0.79
0.62,-0.29,0.78
0.64,-0.29,0.77
0.6,-0.29,0.77
0.57,-0.28,0.78
0.57,-0.27,0.78
0.56,-0.25,0.79
0.57,-0.23,0.79
0.58,-0.21,0.78
0.6,-0.21,0.77
0.61,-0.22,0.76
0.64,-0.23,0.76
0.66,-0.24,0.76
0.67,-0.27,0.76
0.66,-0.28,0.77
0.63,-0.3,0.78
0.6,-0.3,0.78
0.57,-0.3,0.81
0.55,-0.29,0.83
0.56,-0.29,0.85
0.58,-0.31,0.84
0.59,-0.31,0.83
0.6,-0.31,0.82
0.6,-0.31,0.82
0.61,-0.33,0.79
0.6,-0.34,0.77
0.61,-0.34,0.77
0.62,-0.35,0.77
0.64,-0.37,0.79
0.7,-0.4,0.88
0.78,-0.46,0.96
0.85,-0.5,0.98
0.91,-0.47,0.96
0.96,-0.42,0.94
1.02,-0.38,0.93
1.03,-0.31,0.91
1,-0.22,0.94
1,-0.16,1.02
1,-0.12,1.12
0.98,-0.07,1.18
0.96,-0.01,1.17
0.89,0.05,1.14
0.82,0.11,1.09
0.78,0.13,1.01
0.76,0.05,0.97
0.7,0.01,0.9
0.66,0.02,0.85
0.62,0.02,0.81
0.57,0.03,0.77
0.54,0.05,0.75
0.51,0.06,0.72
0.49,0.08,0.7
0.44,0.1,0.63
0.39,0.15,0.56
0.35,0.19,0.51
0.32,0.21,0.45
0.29,0.25,0.4
0.27,0.28,0.36
0.27,0.29,0.34
0.27,0.3,0.32
0.26,0.31,0.31
0.26,0.33,0.32
0.27,0.32,0.33
0.27,0.33,0.32
0.26,0.35,0.3
0.27,0.36,0.29
0.29,0.35,0.3
0.29,0.35,0.31
0.3,0.36,0.32
0.31,0.36,0.37
0.39,0.32,0.39
0.39,0.33,0.39
0.37,0.35,0.36
0.34,0.38,0.33
0.3,0.4,0.3
0.26,0.42,0.28
0.23,0.42,0.26
0.21,0.42,0.25
0.21,0.41,0.25
0.2,0.38,0.24
0.19,0.34,0.25
0.19,0.29,0.26
0.18,0.22,0.27
0.18,0.12,0.3
0.18,0.03,0.33
0.19,-0.07,0.35
0.2,-0.17,0.36
0.21,-0.27,0.36
0.21,-0.38,0.34
0.17,-0.49,0.3
0.04,-2.11,2.12
1.34,-2.39,3.88
2.94,-1.2,3.69
2.35,-1.33,3.33
1.46,-0.99,2.74
1.09,-0.56,0.89
0.38,-0.19,0.47
0.22,-0.09,0.28
0.15,-0.12,0.21
0.16,-0.19,0.18
0.15,-0.2,0.17
0.13,-0.17,0.19
0.16,-0.15,0.23
0.21,-0.18,0.26
0.27,-0.24,0.32
0.34,-0.3,0.5
0.52,-0.37,0.78
0.78,-0.44,1.08
1.05,-0.43,1.29
1.11,-0.37,1.4
0.93,-0.31,1.42
0.75,-0.27,1.28
0.63,-0.24,1.05
0.55,-0.21,0.84
0.48,-0.18,0.7
0.43,-0.16,0.61
0.41,-0.16,0.55
0.41,-0.18,0.53
0.42,-0.2,0.55
0.48,-0.21,0.6
0.57,-0.23,0.69
0.68,-0.27,0.9
0.79,-0.35,0.99
0.73,-0.36,1.02
0.65,-0.34,0.99
0.57,-0.32,0.92
0.52,-0.3,0.85
0.49,-0.3,0.8
0.47,-0.29,0.77
0.47,-0.29,0.74
0.47,-0.29,0.73
0.48,-0.29,0.74
0.51,-0.29,0.76
0.55,-0.3,0.78
0.57,-0.3,0.8
0.59,-0.3,0.81
0.6,-0.29,0.82
0.6,-0.29,0.82
0.61,-0.29,0.83
0.61,-0.28,0.83
0.61,-0.27,0.84
0.6,-0.27,0.85
0.57,-0.25,0.85
0.55,-0.24,0.85
0.53,-0.23,0.84
0.51,-0.21,0.83
0.49,-0.19,0.8
0.47,-0.17,0.72
0.47,-0.14,0.68
0.51,-0.15,0.67
0.55,-0.16,0.67
0.59,-0.17,0.7
0.62,-0.18,0.74
0.66,-0.21,0.79
0.68,-0.22,0.86
0.66,-0.25,0.91
0.64,-0.25,0.95
0.59,-0.24,0.96
0.52,-0.25,0.93
0.48,-0.25,0.91
0.48,-0.27,0.91
0.49,-0.33,0.94
0.53,-0.41,0.98
0.57,-0.48,0.99
0.63,-0.51,1.01
0.7,-0.52,1.02
0.78,-0.54,1.04
0.81,-0.53,1.07
0.79,-0.5,1.08
0.77,-0.44,1.09
0.77,-0.37,1.12
0.84,-0.33,1.14
0.82,-0.29,1.14
0.77,-0.24,1.08
0.71,-0.13,1.05
0.68,-0.1,1.01
0.67,-0.09,0.97
0.65,-0.09,0.92
0.63,-0.07,0.86
0.61,-0.05,0.81
0.59,-0.02,0.77
0.58,0,0.74
0.54,0.02,0.71
0.5,0.05,0.69
0.48,0.06,0.67
0.47,0.07,0.66
0.45,0.08,0.65
0.42,0.1,0.62
0.41,0.11,0.57
0.37,0.15,0.51
0.36,0.18,0.48
0.37,0.18,0.44
0.36,0.19,0.42
0.36,0.19,0.41
0.35,0.18,0.41
0.35,0.17,0.41
0.32,0.16,0.4
0.27,0.18,0.36
0.24,0.2,0.32
0.24,0.19,0.3
0.23,0.15,0.28
0.25,0.12,0.27
0.25,0.1,0.27
0.27,0.09,0.28
0.33,0.05,0.32
0.41,-0.01,0.38
0.47,-0.07,0.42
0.48,-0.1,0.42
0.48,-0.12,0.4
0.5,-0.14,0.37
0.49,-0.17,0.36
0.45,-0.21,0.34
0.4,-0.25,0.35
0.37,-0.28,0.36
0.44,-0.35,0.43
0.52,-0.46,0.54
0.53,-0.54,0.6
0.47,-0.57,0.6
0.38,-0.56,0.52
0.28,-0.56,0.44
0.63,-0.77,0.9
1.94,-1.69,2.68
2.01,-1.3,3.98
1.2,-0.57,3.74
0.91,-0.82,3.05
0.47,-0.65,2.02
0.09,-0.07,0.51
0.08,-0.05,0.15
0.25,-0.22,-0.01
0.31,-0.31,-0.03
0.25,-0.28,0
0.21,-0.28,0.08
0.26,-0.33,0.26
0.45,-0.44,0.55
0.67,-0.53,0.91
0.78,-0.52,1.21
0.74,-0.5,1.37
0.61,-0.49,1.41
0.47,-0.46,1.33
0.35,-0.43,1.16
0.27,-0.38,0.97
0.24,-0.35,0.79
0.26,-0.35,0.65
0.29,-0.38,0.57
0.35,-0.42,0.57
0.45,-0.43,0.62
0.55,-0.43,0.69
0.63,-0.43,0.76
0.66,-0.42,0.83
0.65,-0.41,0.88
0.61,-0.38,0.9
0.55,-0.36,0.87
0.5,-0.36,0.79
0.45,-0.38,0.77
0.46,-0.39,0.77
0.49,-0.42,0.78
0.51,-0.44,0.79
0.52,-0.46,0.8
0.53,-0.45,0.82
0.52,-0.44,0.84
0.5,-0.44,0.86
0.48,-0.43,0.87
0.46,-0.43,0.88
0.44,-0.43,0.88
0.44,-0.42,0.86
0.46,-0.42,0.85
0.48,-0.43,0.88
0.51,-0.45,0.93
0.54,-0.46,0.98
0.58,-0.47,1.03
0.63,-0.48,1.05
0.65,-0.5,1.05
0.62,-0.49,1
0.62,-0.46,0.94
0.64,-0.43,0.89
0.62,-0.43,0.87
0.58,-0.42,0.85
0.59,-0.39,0.83
0.65,-0.36,0.85
0.69,-0.33,0.87
0.7,-0.32,0.89
0.7,-0.3,0.93
0.67,-0.28,0.94
0.63,-0.26,0.94
0.59,-0.24,0.91
0.56,-0.21,0.87
0.56,-0.18,0.84
0.56,-0.15,0.82
0.58,-0.13,0.81
0.6,-0.12,0.83
0.62,-0.11,0.86
0.61,-0.1,0.88
0.59,-0.08,0.89
0.58,-0.06,0.86
0.56,-0.03,0.82
0.55,-0.01,0.78
0.55,0.01,0.76
0.54,0.02,0.73
0.53,0.03,0.71
0.53,0.05,0.71
0.53,0.05,0.71
0.52,0.06,0.71
0.5,0.07,0.7
0.48,0.08,0.69
0.47,0.09,0.69
0.48,0.08,0.7
0.47,0.1,0.66
0.44,0.1,0.64
0.38,0.1,0.63
0.36,0.11,0.59
0.35,0.12,0.55
0.33,0.13,0.53
0.37,0.13,0.54
0.41,0.12,0.54
0.41,0.11,0.53
0.4,0.11,0.53
0.37,0.11,0.54
0.34,0.12,0.55
0.33,0.14,0.55
0.32,0.14,0.56
0.34,0.15,0.58
0.36,0.14,0.61
0.36,0.12,0.62
0.37,0.11,0.63
0.39,0.1,0.63
0.39,0.09,0.6
0.39,0.08,0.55
0.38,0.07,0.5
0.36,0.06,0.45
0.34,0.05,0.4
0.31,0.04,0.35
0.26,0,0.34
0.25,-0.02,0.34
0.25,-0.05,0.35
0.26,-0.1,0.36
0.28,-0.15,0.38
0.31,-0.21,0.39
0.31,-0.25,0.38
0.3,-0.3,0.37
0.31,-0.37,0.37
0.35,-0.45,0.39
1.41,-1.7,2.19
2.19,-2.15,3.62
2.08,-1,3.63
1.89,-0.73,3.68
1.17,-0.77,2.76
0.73,-0.57,1.55
0.44,-0.26,0.62
0.18,0,0.15
0.17,-0.01,-0.02
0.25,-0.21,-0.05
0.29,-0.28,-0.01
0.22,-0.21,0.09
0.21,-0.25,0.18
0.3,-0.34,0.27
0.41,-0.45,0.55
0.62,-0.64,1.21
0.93,-0.56,1.31
0.76,-0.52,1.29
0.6,-0.48,1.15
0.48,-0.42,0.99
0.41,-0.36,0.81
0.4,-0.35,0.67
0.42,-0.36,0.57
0.44,-0.38,0.52
0.46,-0.41,0.54
0.5,-0.43,0.61
0.55,-0.43,0.71
0.59,-0.43,0.78
0.59,-0.4,0.84
0.58,-0.36,0.87
0.56,-0.34,0.88
0.53,-0.34,0.86
0.51,-0.34,0.82
0.5,-0.35,0.8
0.49,-0.36,0.77
0.49,-0.37,0.76
0.51,-0.38,0.75
0.52,-0.39,0.76
0.54,-0.39,0.77
0.57,-0.39,0.79
0.58,-0.4,0.81
0.58,-0.4,0.8
0.54,-0.38,0.79
0.53,-0.37,0.76
0.52,-0.37,0.74
0.52,-0.37,0.74
0.53,-0.37,0.75
0.54,-0.38,0.76
0.54,-0.38,0.77
0.55,-0.39,0.78
0.55,-0.38,0.78
0.54,-0.37,0.78
0.53,-0.37,0.78
0.54,-0.36,0.77
0.53,-0.36,0.76
0.53,-0.37,0.76
0.53,-0.37,0.77
0.53,-0.38,0.77
0.54,-0.37,0.78
0.54,-0.37,0.78
0.54,-0.37,0.78
0.54,-0.37,0.78
0.54,-0.37,0.78
0.54,-0.37,0.77
0.54,-0.38,0.77
0.54,-0.38,0.78
0.55,-0.38,0.78
0.55,-0.38,0.78
0.55,-0.38,0.78
0.55,-0.38,0.78
0.55,-0.37,0.77
0.54,-0.37,0.76
0.54,-0.36,0.75
0.54,-0.36,0.76
0.53,-0.37,0.76
0.54,-0.37,0.77
0.54,-0.37,0.77
0.54,-0.37,0.77
0.54,-0.37,0.78
0.55,-0.37,0.78
0.55,-0.37,0.77
0.54,-0.37,0.77
0.53,-0.38,0.77
0.53,-0.37,0.78
0.53,-0.37,0.78
0.54,-0.37,0.78
0.54,-0.37,0.78
0.55,-0.38,0.78
0.55,-0.38,0.78
0.55,-0.37,0.77
0.55,-0.37,0.77
0.54,-0.37,0.77
0.54,-0.37,0.77
0.55,-0.37,0.78
0.56,-0.38,0.79
0.57,-0.38,0.79
0.57,-0.38,0.8
0.58,-0.39,0.8
0.58,-0.39,0.81
0.59,-0.4,0.82
0.62,-0.42,0.83
0.66,-0.43,0.83
0.69,-0.44,0.86
0.73,-0.47,0.88
0.76,-0.48,0.88
0.75,-0.49,0.89
0.74,-0.5,0.9
0.73,-0.5,0.91
0.74,-0.49,0.9
0.71,-0.49,0.89
0.69,-0.46,0.86
0.71,-0.41,0.84
0.75,-0.39,0.83
0.77,-0.37,0.86
0.76,-0.35,0.88
0.74,-0.32,0.9
0.7,-0.29,0.91
0.66,-0.26,0.91
0.64,-0.23,0.92
0.61,-0.21,0.91
0.56,-0.16,0.89
0.54,-0.13,0.89
0.52,-0.12,0.88
0.52,-0.11,0.87
0.52,-0.09,0.86
0.51,-0.07,0.84
0.5,-0.05,0.82
0.49,-0.03,0.81
0.48,-0.01,0.79
0.46,0.01,0.77
0.45,0.03,0.75
0.44,0.04,0.73
0.45,0.05,0.73
0.48,0.05,0.76
0.49,0.05,0.77
0.49,0.06,0.78
0.49,0.07,0.77
0.52,0.08,0.76
0.53,0.1,0.77
0.52,0.11,0.75
0.52,0.12,0.74
0.55,0.13,0.72
0.55,0.13,0.72
0.57,0.14,0.71
0.59,0.15,0.69
0.62,0.16,0.65
0.61,0.19,0.61
0.59,0.2,0.59
0.56,0.22,0.58
0.55,0.24,0.58
0.54,0.25,0.58
0.53,0.26,0.57
0.52,0.28,0.55
0.47,0.29,0.51
0.41,0.31,0.45
0.38,0.32,0.41
0.37,0.33,0.38
0.38,0.33,0.37
0.39,0.32,0.39
0.39,0.28,0.41
0.4,0.25,0.43
0.38,0.23,0.44
0.37,0.23,0.44
0.35,0.22,0.43
0.32,0.21,0.4
0.29,0.2,0.36
0.26,0.19,0.31
0.26,0.16,0.28
0.26,0.12,0.27
0.26,0.08,0.28
0.25,0.04,0.32
0.24,-0.01,0.36
0.21,-0.09,0.41
0.19,-0.14,0.45
0.2,-0.2,0.5
0.23,-0.25,0.52
0.4,-0.32,0.6
0.84,-0.46,0.88
1.28,-0.65,1.15
1.71,-1.05,2.59
2.97,-1.75,3.29
3.3,-1.5,2.73
1.89,-0.87,2.8
0.73,-0.64,2.38
0.5,-0.38,1.45
0.47,-0.22,0.62
0.19,-0.01,0.26
0.1,-0.01,0.14
0.23,-0.2,0.12
0.34,-0.31,0.15
0.35,-0.31,0.25
0.41,-0.37,0.37
0.5,-0.44,0.56
0.65,-0.48,0.79
0.77,-0.52,0.97
0.81,-0.54,1.11
0.73,-0.52,1.2
0.58,-0.47,1.17
0.47,-0.39,0.88
0.36,-0.37,0.74
0.38,-0.36,0.63
0.42,-0.38,0.59
0.46,-0.39,0.59
0.54,-0.41,0.62
0.62,-0.42,0.66
0.68,-0.41,0.7
