Acc_x,Acc_y,Acc_z
0.83,-1.45,-0.02
0.83,-1.44,0.12
0.76,-1.47,0.16
0.67,-1.41,0.27
0.56,-1.31,0.35
0.42,-1.31,0.47
0.35,-1.22,0.55
0.37,-1.08,0.61
0.34,-0.97,0.69
0.33,-0.92,0.78
0.4,-0.93,0.72
0.52,-0.98,0.68
0.53,-0.94,0.8
0.5,-0.86,0.86
0.48,-0.83,0.81
0.44,-0.7,0.79
0.47,-0.59,0.72
0.55,-0.59,0.59
0.71,-0.66,0.47
0.85,-0.72,0.33
0.88,-0.63,0.21
0.83,-0.51,0.1
0.75,-0.46,-0.01
0.7,-0.43,-0.12
0.68,-0.43,-0.18
0.67,-0.46,-0.2
0.7,-0.45,-0.23
0.74,-0.43,-0.29
0.77,-0.42,-0.36
0.77,-0.42,-0.39
0.75,-0.42,-0.39
0.72,-0.42,-0.3
0.69,-0.51,-0.26
0.66,-0.59,-0.24
0.63,-0.68,-0.24
0.56,-0.76,-0.26
0.49,-0.81,-0.27
0.47,-0.85,-0.28
0.54,-0.83,-0.19
0.69,-0.92,-0.13
0.8,-1.08,-0.14
0.76,-1.07,-0.16
0.62,-1.11,-0.17
0.56,-1.16,-0.08
0.52,-1.26,-0.05
0.54,-1.46,0.05
0.67,-1.61,0.16
0.72,-1.73,0.18
0.79,-1.58,0.16
0.82,-1.51,0.11
0.75,-1.6,0.09
0.76,-1.58,0.1
0.75,-1.64,0.12
0.86,-1.66,0.17
0.96,-1.67,0.23
0.92,-1.71,0.16
0.92,-1.69,0.07
0.86,-1.59,0.03
0.77,-1.45,-0.06
0.75,-1.45,-0.14
0.82,-1.5,-0.17
0.9,-1.6,-0.14
0.95,-1.57,-0.09
0.95,-1.47,-0.07
0.94,-1.36,-0.06
0.89,-1.25,-0.06
0.84,-1.15,-0.06
0.8,-1.07,-0.07
0.8,-1.02,-0.07
0.87,-0.99,-0.06
0.9,-0.96,-0.05
0.92,-0.91,0
0.93,-0.84,0.04
0.91,-0.76,0.07
0.88,-0.7,0.09
0.83,-0.64,0.09
0.78,-0.6,0.08
0.76,-0.56,0.09
0.79,-0.55,0.08
0.84,-0.53,0.05
0.89,-0.5,0.05
0.91,-0.46,0.08
0.92,-0.44,0.1
0.93,-0.45,0.1
0.87,-0.46,0.11
0.8,-0.46,0.11
0.73,-0.47,0.12
0.68,-0.47,0.13
0.65,-0.48,0.12
0.66,-0.51,0.07
0.72,-0.55,0.02
0.8,-0.59,-0.02
0.9,-0.62,-0.05
0.99,-0.66,-0.09
1.03,-0.7,-0.14
0.98,-0.75,-0.19
0.84,-0.81,-0.21
0.67,-0.86,-0.17
0.61,-0.91,-0.12
0.64,-1.01,-0.12
0.73,-1.08,-0.13
0.81,-1.13,-0.13
0.84,-1.2,-0.13
0.77,-1.21,-0.07
0.66,-1.23,-0.05
0.58,-1.26,-0.04
0.53,-1.32,-0.05
0.53,-1.37,-0.03
0.59,-1.4,0.01
0.67,-1.44,0.04
0.69,-1.5,0.08
0.63,-1.54,0.1
0.57,-1.55,0.16
0.53,-1.58,0.24
0.53,-1.6,0.29
0.53,-1.64,0.32
0.47,-1.64,0.36
0.39,-1.57,0.43
0.34,-1.5,0.48
0.33,-1.45,0.46
0.34,-1.43,0.45
0.31,-1.41,0.47
0.31,-1.41,0.5
0.39,-1.41,0.54
0.46,-1.37,0.57
0.45,-1.34,0.55
0.47,-1.32,0.55
0.55,-1.29,0.57
0.69,-1.25,0.53
0.9,-1.18,0.47
1.05,-1.1,0.41
0.98,-0.99,0.46
0.81,-0.85,0.56
0.64,-0.78,0.57
0.66,-0.81,0.51
0.77,-0.84,0.39
0.87,-0.68,0.21
0.99,-0.64,0.12
0.97,-0.56,0.06
0.96,-0.49,0.02
0.94,-0.44,-0.03
0.92,-0.38,-0.06
0.84,-0.35,-0.12
0.73,-0.36,-0.18
0.67,-0.36,-0.22
0.61,-0.4,-0.23
0.53,-0.44,-0.22
0.43,-0.48,-0.2
0.36,-0.49,-0.19
0.32,-0.5,-0.18
0.3,-0.53,-0.16
0.35,-0.53,-0.12
0.4,-0.54,-0.08
0.38,-0.56,-0.03
0.37,-0.61,-0.03
0.36,-0.67,-0.04
0.39,-0.73,-0.04
0.43,-0.77,-0.04
0.47,-0.81,-0.04
0.51,-0.85,-0.04
0.57,-0.89,-0.04
0.6,-0.93,-0.02
0.59,-1.05,0
0.7,-1.09,0.02
0.67,-1.17,0.03
0.68,-1.27,0.03
0.72,-1.36,0.06
0.71,-1.45,0.11
0.68,-1.5,0.12
0.74,-1.51,0.09
0.86,-1.51,0.1
0.92,-1.53,0.11
0.97,-1.56,0.05
1.01,-1.57,0.03
0.98,-1.62,0.05
0.96,-1.66,0.1
1,-1.67,0.12
1.01,-1.64,0.12
0.97,-1.59,0.11
0.95,-1.55,0.05
1.01,-1.53,0.05
1.06,-1.51,0.1
1.07,-1.5,0.12
1.07,-1.5,0.07
1.06,-1.45,0.05
1,-1.38,0.08
1,-1.28,0.09
1.01,-1.19,0.01
0.86,-1.14,-0.3
0.67,-1.19,-0.37
0.81,-1.25,-0.31
1.16,-1.19,-0.27
1.45,-1.09,-0.32
1.48,-1.03,-0.39
1.45,-0.97,-0.38
1.27,-0.93,-0.28
0.96,-0.88,-0.12
0.65,-0.78,0.08
0.42,-0.64,0.25
0.37,-0.57,0.3
0.47,-0.54,0.24
0.58,-0.48,0.19
0.64,-0.43,0.23
0.73,-0.38,0.27
0.77,-0.34,0.26
0.77,-0.31,0.23
0.76,-0.31,0.19
0.72,-0.31,0.19
0.67,-0.3,0.18
0.6,-0.29,0.15
0.55,-0.29,0.11
0.54,-0.32,0.07
0.55,-0.35,0.02
0.56,-0.38,-0.03
0.58,-0.41,-0.15
0.68,-0.46,-0.23
0.78,-0.49,-0.3
0.89,-0.53,-0.33
0.95,-0.57,-0.33
1,-0.61,-0.34
1.04,-0.66,-0.38
1.04,-0.74,-0.41
1.03,-0.8,-0.39
1.06,-0.87,-0.37
1.13,-0.92,-0.36
1.18,-0.98,-0.37
1.2,-1.01,-0.41
1.17,-1.02,-0.42
1.08,-1.04,-0.42
0.88,-1.04,-0.43
0.69,-1.04,-0.38
0.59,-1.07,-0.29
0.54,-1.12,-0.26
0.61,-1.17,-0.28
0.72,-1.23,-0.33
0.84,-1.26,-0.36
0.93,-1.25,-0.36
0.97,-1.23,-0.3
0.95,-1.2,-0.26
0.9,-1.18,-0.22
0.82,-1.15,-0.12
0.78,-1.13,-0.08
0.74,-1.14,-0.02
0.75,-1.13,0.08
0.84,-1.1,0.16
0.92,-1.07,0.27
0.88,-1.01,0.38
0.69,-0.97,0.46
0.51,-1.01,0.51
0.54,-1.09,0.6
0.56,-1.14,0.67
0.59,-1.11,0.68
0.63,-1.05,0.67
0.61,-0.99,0.6
0.69,-0.97,0.49
0.79,-0.97,0.56
0.72,-0.98,0.67
0.71,-0.94,0.71
0.61,-0.89,0.85
0.32,-0.91,0.9
0.17,-0.89,0.84
0.1,-0.88,0.76
-0.02,-0.97,0.74
-0.06,-1.07,0.77
0.08,-1.03,0.77
0.23,-0.84,0.73
0.33,-0.56,0.69
0.35,-0.24,0.68
0.46,-0.3,0.64
0.56,-0.4,0.56
0.58,-0.45,0.41
0.5,-0.46,0.22
0.41,-0.44,0.05
0.32,-0.4,-0.04
0.24,-0.38,-0.08
0.27,-0.36,-0.09
0.37,-0.34,-0.06
0.48,-0.33,-0.04
0.57,-0.31,-0.04
0.6,-0.3,-0.06
0.6,-0.3,-0.1
0.6,-0.34,-0.12
0.58,-0.37,-0.12
0.52,-0.4,-0.06
0.43,-0.46,0.06
0.39,-0.47,0.1
0.38,-0.44,0.03
0.4,-0.46,-0.06
0.48,-0.5,-0.12
0.53,-0.59,-0.19
0.6,-0.66,-0.24
0.68,-0.78,-0.22
0.71,-0.89,-0.15
0.65,-0.86,-0.24
0.63,-0.82,-0.33
0.62,-0.92,-0.32
0.72,-1.2,-0.27
0.88,-1.43,-0.19
0.92,-1.55,-0.14
0.96,-1.53,-0.1
0.98,-1.48,-0.04
0.82,-1.5,-0.06
0.77,-1.49,-0.15
0.86,-1.58,-0.16
1.01,-1.75,-0.08
1.14,-1.84,0
1.19,-1.82,0.05
1.17,-1.73,0.1
1.09,-1.63,0.1
1.04,-1.53,0.04
1.07,-1.43,-0.08
1.05,-1.44,-0.14
1.03,-1.5,-0.13
1.06,-1.49,-0.13
1.1,-1.44,-0.1
1.02,-1.37,-0.1
0.96,-1.3,-0.16
0.95,-1.27,-0.24
0.94,-1.26,-0.42
0.91,-1.2,-0.45
0.92,-1.13,-0.44
0.88,-1.05,-0.49
0.83,-0.96,-0.56
0.83,-0.88,-0.63
0.83,-0.8,-0.69
0.92,-0.7,-0.71
1,-0.57,-0.74
0.94,-0.52,-0.85
0.83,-0.54,-1.03
0.74,-0.49,-1.12
0.7,-0.43,-1.02
0.82,-0.35,-0.85
0.96,-0.28,-0.73
1,-0.22,-0.59
0.97,-0.14,-0.48
0.82,-0.08,-0.4
0.64,-0.04,-0.33
0.5,-0.01,-0.29
0.41,0.05,-0.27
0.33,0.09,-0.24
0.3,0.11,-0.22
0.38,0.1,-0.25
0.47,0.1,-0.31
0.53,0.14,-0.38
0.58,0.19,-0.46
0.5,0.32,-0.63
0.45,0.35,-0.75
0.34,0.41,-0.83
0.28,0.47,-0.87
0.31,0.47,-0.86
0.32,0.48,-0.83
0.31,0.48,-0.79
0.29,0.49,-0.76
0.26,0.5,-0.74
0.22,0.51,-0.72
0.17,0.53,-0.73
0.14,0.54,-0.74
0.16,0.55,-0.76
0.19,0.56,-0.76
0.23,0.57,-0.75
0.25,0.57,-0.72
0.26,0.56,-0.71
0.27,0.55,-0.71
0.29,0.53,-0.74
0.3,0.53,-0.75
0.29,0.52,-0.75
0.29,0.51,-0.76
0.32,0.5,-0.77
0.36,0.48,-0.76
0.4,0.47,-0.74
0.42,0.46,-0.7
0.42,0.42,-0.63
0.44,0.39,-0.61
0.49,0.36,-0.59
0.57,0.32,-0.56
0.65,0.31,-0.52
0.67,0.3,-0.48
0.67,0.27,-0.43
0.68,0.24,-0.38
0.71,0.19,-0.33
0.73,0.14,-0.3
0.74,0.08,-0.28
0.68,0.01,-0.25
0.58,-0.07,-0.21
0.47,-0.12,-0.16
0.39,-0.19,-0.13
0.38,-0.24,-0.13
0.42,-0.29,-0.19
0.54,-0.34,-0.29
0.73,-0.4,-0.43
0.92,-0.48,-0.59
1.02,-0.53,-0.72
1.06,-0.59,-0.83
1.06,-0.63,-0.89
0.94,-0.66,-0.91
0.74,-0.71,-0.95
0.64,-0.8,-0.97
0.67,-0.94,-0.9
1.09,-0.97,-0.87
1.22,-1.01,-0.86
1.22,-1.04,-0.84
1.02,-1.05,-0.77
0.75,-1.08,-0.7
0.56,-1.14,-0.61
0.45,-1.16,-0.52
0.44,-1.18,-0.47
0.48,-1.23,-0.47
0.48,-1.27,-0.46
0.45,-1.31,-0.41
0.4,-1.38,-0.39
0.3,-1.47,-0.36
0.15,-1.55,-0.3
0.06,-1.63,-0.22
0.09,-1.72,-0.16
0.2,-1.82,-0.15
0.35,-1.9,-0.15
0.54,-1.88,-0.08
0.69,-1.72,0.05
0.78,-1.55,0.14
0.73,-1.44,0.18
0.65,-1.45,0.22
0.63,-1.51,0.32
0.6,-1.56,0.41
0.54,-1.61,0.4
0.72,-1.6,0.29
0.84,-1.57,0.18
1.06,-1.48,0.13
1.38,-1.38,0.12
1.59,-1.31,0.09
1.59,-1.21,-0.01
1.25,-1.11,-0.03
0.78,-1.08,0.18
0.57,-1.11,0.36
0.52,-1.08,0.35
0.53,-0.97,0.31
0.66,-0.82,0.23
0.62,-0.68,0.14
0.54,-0.6,0.12
0.63,-0.54,0.09
0.47,-0.49,0.19
0.3,-0.5,0.22
0.37,-0.51,0.04
0.44,-0.48,-0.19
0.57,-0.42,-0.39
0.73,-0.34,-0.49
0.78,-0.34,-0.5
0.81,-0.34,-0.47
0.84,-0.32,-0.47
0.85,-0.33,-0.53
0.82,-0.37,-0.54
0.67,-0.5,-0.46
0.69,-0.55,-0.38
0.72,-0.62,-0.3
0.76,-0.68,-0.23
0.78,-0.75,-0.19
0.78,-0.82,-0.13
0.74,-0.88,-0.07
0.68,-0.89,-0.02
0.62,-0.99,-0.01
0.55,-1.09,-0.07
0.47,-1.11,-0.08
0.53,-1.19,-0.09
0.67,-1.22,-0.08
0.71,-1.32,-0.07
0.69,-1.46,-0.09
0.63,-1.47,-0.09
0.56,-1.47,-0.07
0.46,-1.51,0.11
0.63,-1.44,-0.01
0.89,-1.49,-0.18
1.04,-1.66,-0.13
1.15,-1.73,-0.11
1.09,-1.84,-0.03
1.05,-1.89,-0.07
0.96,-1.81,-0.09
0.88,-1.71,-0.22
1.08,-1.67,-0.31
1.27,-1.78,-0.32
1.3,-1.81,-0.22
1.25,-1.74,-0.19
1.14,-1.63,-0.26
1.05,-1.53,-0.33
1,-1.43,-0.33
0.96,-1.32,-0.33
0.99,-1.23,-0.37
1.05,-1.23,-0.4
1.08,-1.23,-0.38
1.1,-1.15,-0.31
1.05,-1.04,-0.27
0.94,-0.95,-0.28
0.87,-0.87,-0.28
0.76,-0.79,-0.27
0.69,-0.71,-0.27
0.69,-0.64,-0.27
0.7,-0.57,-0.28
0.75,-0.54,-0.29
0.8,-0.5,-0.23
0.79,-0.44,-0.13
0.75,-0.38,-0.05
0.68,-0.32,0.02
0.61,-0.27,0.08
0.51,-0.24,0.12
0.44,-0.23,0.12
0.43,-0.22,0.11
0.47,-0.2,0.11
0.54,-0.19,0.13
0.55,-0.18,0.12
0.53,-0.19,0.13
0.5,-0.2,0.15
0.49,-0.22,0.14
0.52,-0.26,0.1
0.56,-0.31,0.01
0.62,-0.35,-0.08
0.69,-0.39,-0.15
0.73,-0.41,-0.19
0.82,-0.41,-0.2
0.93,-0.43,-0.26
1.03,-0.51,-0.45
1.06,-0.62,-0.66
0.96,-0.67,-0.75
0.78,-0.68,-0.69
0.66,-0.71,-0.58
0.69,-0.77,-0.51
0.81,-0.82,-0.45
0.93,-0.87,-0.4
1.02,-0.91,-0.32
1.01,-0.96,-0.26
0.98,-1.02,-0.14
0.97,-1.11,-0.07
0.83,-1.17,-0.03
0.75,-1.28,0.05
0.8,-1.28,0.2
0.85,-1.34,0.31
0.94,-1.46,0.31
1,-1.5,0.25
0.93,-1.58,0.24
0.81,-1.64,0.27
0.7,-1.61,0.35
0.62,-1.57,0.54
0.56,-1.56,0.68
0.49,-1.54,0.74
0.51,-1.59,0.74
0.66,-1.7,0.74
0.77,-1.73,0.77
0.82,-1.65,0.81
0.79,-1.5,0.79
0.74,-1.32,0.74
0.71,-1.2,0.73
0.66,-1.14,0.7
0.65,-1.09,0.63
0.61,-1.05,0.58
0.57,-1.04,0.49
0.62,-0.98,0.37
0.67,-0.84,0.19
0.84,-0.67,-0.01
0.99,-0.61,-0.23
1.04,-0.55,-0.29
0.94,-0.56,-0.33
0.82,-0.47,-0.43
0.69,-0.4,-0.49
0.61,-0.37,-0.54
0.59,-0.37,-0.57
0.66,-0.41,-0.54
0.73,-0.42,-0.48
0.75,-0.46,-0.39
0.75,-0.5,-0.32
0.71,-0.48,-0.29
0.64,-0.44,-0.28
0.55,-0.43,-0.26
0.5,-0.47,-0.21
0.5,-0.52,-0.14
0.55,-0.6,-0.06
0.66,-0.69,0.01
0.76,-0.78,0.07
0.78,-0.91,0.15
0.77,-0.95,0.18
0.75,-0.98,0.14
0.73,-1.05,0.12
0.75,-1.16,0.15
0.74,-1.31,0.18
0.85,-1.24,0.09
0.77,-1.38,0.09
0.75,-1.4,0.05
0.75,-1.53,0.06
0.8,-1.58,0.16
0.82,-1.57,0.14
0.81,-1.71,0.02
0.9,-1.68,-0.02
1,-1.6,-0.03
1.02,-1.65,-0.03
1.06,-1.62,-0.02
1.07,-1.55,-0.06
1.06,-1.54,-0.12
1.08,-1.55,-0.13
1.16,-1.57,-0.14
1.22,-1.56,-0.1
1.22,-1.51,-0.06
1.16,-1.44,-0.09
1.1,-1.34,-0.16
1.07,-1.25,-0.23
1.05,-1.17,-0.28
1.07,-1.11,-0.31
1.09,-1.1,-0.31
1.1,-1.1,-0.27
1.08,-1.08,-0.22
1.04,-1.03,-0.2
1,-0.89,-0.14
0.83,-0.8,-0.11
0.8,-0.68,-0.08
0.76,-0.57,0
0.72,-0.45,0.02
0.74,-0.37,0.02
0.75,-0.36,0.07
0.72,-0.35,0.14
0.69,-0.33,0.2
0.66,-0.29,0.26
0.59,-0.25,0.31
0.5,-0.2,0.33
0.46,-0.2,0.32
0.45,-0.22,0.3
0.47,-0.22,0.28
0.52,-0.22,0.26
0.59,-0.23,0.24
0.66,-0.26,0.22
0.71,-0.29,0.19
0.72,-0.33,0.17
0.71,-0.36,0.14
0.69,-0.41,0.11
0.67,-0.48,0.08
0.67,-0.53,0.06
0.71,-0.57,0.04
0.81,-0.57,-0.07
0.9,-0.68,-0.22
0.94,-0.7,-0.28
0.87,-0.72,-0.26
0.8,-0.79,-0.16
0.86,-0.94,-0.04
1.08,-1.11,-0.03
1.31,-1.26,-0.19
1.39,-1.34,-0.29
1.19,-1.3,-0.22
0.85,-1.33,-0.08
0.51,-1.5,0.06
0.25,-1.7,0.17
0.28,-1.9,0.21
0.6,-2.08,0.12
0.98,-2.13,0.01
1.17,-1.96,-0.02
1.06,-1.7,0.01
0.82,-1.46,0.03
0.66,-1.31,0.06
0.58,-1.24,0.17
0.58,-1.24,0.31
0.64,-1.25,0.37
0.64,-1.25,0.41
0.53,-1.27,0.48
0.38,-1.3,0.56
0.3,-1.28,0.6
0.36,-1.1,0.57
0.66,-1.02,0.52
0.75,-0.95,0.51
0.75,-0.93,0.59
0.64,-0.99,0.7
0.39,-1.07,0.74
0.09,-1.12,0.8
0.02,-1.14,0.9
0.18,-1.09,0.83
0.37,-0.93,0.58
0.62,-0.77,0.3
0.9,-0.68,0.06
1.1,-0.64,-0.12
1.18,-0.63,-0.21
1.06,-0.62,-0.19
0.89,-0.61,-0.23
0.8,-0.62,-0.37
0.68,-0.58,-0.47
0.66,-0.41,-0.55
0.67,-0.41,-0.59
0.68,-0.47,-0.61
0.74,-0.45,-0.59
0.79,-0.46,-0.56
0.82,-0.46,-0.54
0.77,-0.47,-0.5
0.68,-0.51,-0.43
0.58,-0.58,-0.23
0.55,-0.75,-0.17
0.57,-0.84,-0.12
0.62,-0.91,-0.07
0.69,-0.94,-0.02
0.74,-0.96,0.01
0.72,-0.98,-0.02
0.65,-0.97,-0.05
0.6,-0.95,-0.04
0.61,-0.93,-0.04
0.66,-0.96,-0.02
0.77,-1.07,0.03
0.86,-1.11,0.06
0.91,-1.13,0.05
0.97,-1.24,0.04
0.93,-1.28,0.07
0.84,-1.26,0.06
0.81,-1.23,-0.01
0.79,-1.25,-0.05
0.83,-1.36,-0.06
0.92,-1.45,-0.02
0.98,-1.5,0.03
0.97,-1.52,0.05
0.93,-1.52,0.07
0.88,-1.46,0.14
0.79,-1.34,0.21
0.74,-1.23,0.08
0.85,-1.41,0.02
0.9,-1.57,0.02
0.91,-1.59,0.04
0.89,-1.47,0.06
0.85,-1.3,0.11
0.81,-1.15,0.1
0.82,-1,0.03
0.84,-0.89,-0.05
0.86,-0.87,-0.11
0.89,-0.97,-0.16
1.01,-1.09,-0.17
1.06,-1.12,-0.13
0.97,-1.05,-0.08
0.93,-0.91,-0.04
0.9,-0.76,-0.04
0.85,-0.63,-0.04
0.81,-0.56,0
0.79,-0.51,0.03
0.8,-0.48,0.02
0.78,-0.47,0.03
0.74,-0.46,0.06
0.68,-0.43,0.08
0.63,-0.39,0.11
0.59,-0.35,0.14
0.58,-0.3,0.16
0.59,-0.28,0.19
0.67,-0.28,0.18
0.71,-0.3,0.15
0.69,-0.32,0.12
0.66,-0.34,0.1
0.63,-0.37,0.08
0.58,-0.41,0.05
0.56,-0.46,0.02
0.6,-0.5,-0.01
0.67,-0.52,-0.04
0.73,-0.54,-0.04
0.79,-0.56,-0.06
0.86,-0.58,-0.1
0.89,-0.63,-0.14
0.88,-0.67,-0.19
0.82,-0.73,-0.23
0.76,-0.78,-0.23
0.72,-0.81,-0.19
0.73,-0.85,-0.14
0.8,-0.88,-0.12
0.89,-0.9,-0.09
0.96,-0.92,-0.09
0.98,-0.95,-0.07
0.94,-1,-0.05
0.85,-1.02,0
0.77,-1.05,0.06
0.7,-1.14,0.17
0.73,-1.28,0.22
0.84,-1.35,0.25
0.97,-1.42,0.27
1.1,-1.51,0.26
1.1,-1.54,0.3
0.98,-1.6,0.42
0.78,-1.66,0.44
0.59,-1.58,0.47
0.52,-1.47,0.57
0.49,-1.35,0.58
0.42,-1.19,0.6
0.37,-1.11,0.62
0.39,-1.19,0.59
0.43,-1.28,0.56
0.41,-1.28,0.55
0.38,-1.26,0.56
0.43,-1.21,0.52
0.49,-1.14,0.42
0.54,-1.07,0.32
0.57,-1.02,0.25
0.62,-0.98,0.25
0.65,-0.95,0.27
0.67,-0.92,0.22
0.74,-0.91,0.13
0.82,-0.86,0.04
0.88,-0.76,-0.1
0.84,-0.6,-0.11
0.79,-0.46,-0.1
0.86,-0.44,-0.11
0.92,-0.46,-0.12
1.04,-0.48,-0.19
1.06,-0.53,-0.25
0.98,-0.5,-0.3
0.89,-0.51,-0.36
0.79,-0.55,-0.37
0.68,-0.58,-0.36
0.56,-0.61,-0.33
0.49,-0.6,-0.28
0.51,-0.56,-0.25
0.56,-0.51,-0.24
0.64,-0.48,-0.22
0.73,-0.47,-0.2
0.77,-0.47,-0.18
0.76,-0.49,-0.16
0.71,-0.53,-0.11
0.66,-0.57,-0.09
0.64,-0.62,-0.06
0.62,-0.67,-0.02
0.62,-0.73,0.03
0.63,-0.79,0.06
0.68,-0.87,0.1
0.77,-0.96,0.15
0.87,-1.08,0.11
0.82,-1.14,0.08
0.76,-1.16,0.06
0.77,-1.23,0.07
0.85,-1.37,0.15
0.95,-1.48,0.18
1.04,-1.52,0.13
1.09,-1.56,0.13
1.12,-1.57,0.15
1.1,-1.56,0.13
1,-1.6,0.09
0.95,-1.71,0.06
0.97,-1.8,0.06
0.94,-1.83,0.06
0.92,-1.82,0.03
0.95,-1.82,0.03
0.95,-1.8,0.08
1.02,-1.69,0.1
1.04,-1.54,0.06
1,-1.43,-0.01
0.95,-1.39,-0.06
0.9,-1.36,-0.04
0.93,-1.3,-0.03
0.94,-1.26,-0.06
0.95,-1.18,-0.08
1.01,-1.07,-0.1
1.05,-0.94,-0.17
1.04,-0.87,-0.2
1.03,-0.81,-0.19
1.01,-0.77,-0.14
0.97,-0.71,-0.06
0.91,-0.62,-0.05
0.82,-0.54,-0.12
0.71,-0.49,-0.15
0.67,-0.45,-0.16
0.67,-0.39,-0.1
0.65,-0.32,-0.04
0.68,-0.27,-0.04
0.71,-0.22,-0.04
0.68,-0.16,-0.05
0.63,-0.11,-0.05
0.57,-0.07,-0.06
0.51,-0.01,-0.05
0.47,0.03,-0.07
0.45,0.06,-0.11
0.42,0.09,-0.13
0.43,0.12,-0.12
0.47,0.14,-0.09
0.51,0.13,-0.09
0.56,0.14,-0.09
0.57,0.16,-0.06
0.56,0.16,-0.04
0.53,0.09,-0.05
0.5,0.06,-0.05
0.51,0.04,-0.08
0.53,0,-0.14
0.57,-0.04,-0.2
0.62,-0.08,-0.27
0.71,-0.11,-0.33
0.8,-0.13,-0.38
0.82,-0.15,-0.43
0.81,-0.18,-0.47
0.76,-0.23,-0.48
0.69,-0.27,-0.45
0.64,-0.31,-0.37
0.65,-0.33,-0.29
0.75,-0.36,-0.23
0.9,-0.39,-0.21
1.04,-0.45,-0.26
1.15,-0.52,-0.31
1.21,-0.57,-0.34
1.1,-0.6,-0.33
0.89,-0.62,-0.33
0.74,-0.68,-0.32
0.65,-0.76,-0.24
0.67,-0.85,-0.17
0.82,-0.96,-0.12
1,-1.06,-0.07
1.18,-1.19,-0.08
1.33,-1.24,-0.08
1.13,-1.27,-0.04
0.8,-1.29,0.02
0.49,-1.34,0.12
0.35,-1.44,0.2
0.43,-1.55,0.23
0.64,-1.65,0.2
0.87,-1.74,0.17
0.99,-1.76,0.17
1.03,-1.69,0.14
0.96,-1.57,0.08
0.83,-1.44,0.06
0.76,-1.33,0.09
0.72,-1.26,0.14
0.68,-1.22,0.24
0.66,-1.21,0.37
0.72,-1.24,0.47
0.76,-1.23,0.51
0.76,-1.17,0.51
0.76,-1.08,0.54
0.72,-0.99,0.62
0.66,-0.95,0.73
0.58,-0.96,0.79
0.52,-0.97,0.82
0.52,-0.99,0.88
0.59,-1.03,0.82
0.77,-1.01,0.69
0.81,-0.96,0.54
0.84,-0.85,0.39
0.86,-0.65,0.29
0.77,-0.58,0.21
0.7,-0.61,0.11
0.59,-0.62,-0.01
0.48,-0.62,-0.15
0.5,-0.56,-0.27
0.49,-0.51,-0.39
0.46,-0.53,-0.53
0.48,-0.47,-0.6
0.49,-0.43,-0.6
0.5,-0.44,-0.63
0.54,-0.41,-0.63
0.57,-0.42,-0.6
0.58,-0.44,-0.53
0.61,-0.47,-0.44
0.61,-0.49,-0.38
0.59,-0.53,-0.35
0.6,-0.58,-0.36
0.61,-0.66,-0.33
0.66,-0.74,-0.21
0.74,-0.78,-0.11
0.77,-0.83,-0.1
0.74,-0.85,-0.13
0.7,-0.93,-0.14
0.72,-1.04,-0.12
0.81,-1.18,-0.02
0.86,-1.32,0.05
0.91,-1.41,0.04
0.89,-1.43,0.04
0.78,-1.46,0.01
0.78,-1.57,-0.01
0.84,-1.66,0
0.97,-1.79,0
1.05,-1.9,0.06
1.05,-1.94,0.12
1.08,-1.99,0.1
1.07,-2.03,0.12
0.97,-2.04,0.2
0.88,-1.94,0.23
0.81,-1.8,0.2
0.79,-1.7,0.15
0.83,-1.65,0.11
0.9,-1.64,0.11
0.98,-1.62,0.13
1.04,-1.58,0.15
1.08,-1.5,0.16
1.05,-1.41,0.14
0.93,-1.31,0.13
0.82,-1.16,0.05
0.72,-0.96,0
0.76,-0.96,0.04
0.85,-0.99,0.09
0.93,-0.98,0.14
0.94,-0.9,0.19
0.91,-0.8,0.22
0.86,-0.7,0.25
0.78,-0.62,0.27
0.68,-0.55,0.28
0.61,-0.48,0.29
0.58,-0.45,0.29
0.56,-0.44,0.27
0.56,-0.42,0.27
0.57,-0.39,0.28
0.56,-0.37,0.32
0.56,-0.34,0.36
0.58,-0.32,0.38
0.61,-0.32,0.38
0.64,-0.34,0.35
0.65,-0.36,0.31
0.64,-0.38,0.26
0.58,-0.4,0.23
0.51,-0.43,0.21
0.48,-0.46,0.21
0.5,-0.5,0.21
0.58,-0.56,0.2
0.75,-0.67,0.19
0.8,-0.73,0.17
0.81,-0.81,0.13
0.75,-0.87,0.08
0.69,-0.91,0.07
0.69,-0.97,0.07
0.73,-1.05,0.11
0.78,-1.12,0.21
0.83,-1.21,0.27
0.85,-1.34,0.32
0.81,-1.48,0.43
0.75,-1.61,0.49
0.73,-1.73,0.47
0.74,-1.87,0.49
0.75,-1.99,0.56
0.72,-2.1,0.66
0.67,-2.18,0.74
0.67,-2.25,0.79
0.65,-2.27,0.82
0.62,-2.22,0.82
0.58,-2.1,0.75
0.55,-1.97,0.68
0.55,-1.84,0.64
0.59,-1.74,0.59
0.64,-1.65,0.55
0.68,-1.56,0.48
0.7,-1.37,0.44
0.71,-1.28,0.4
0.71,-1.21,0.42
0.69,-1.11,0.41
0.69,-1.02,0.37
0.8,-0.86,0.34
0.89,-0.71,0.31
0.92,-0.63,0.25
0.97,-0.58,0
1.04,-0.53,-0.2
1.11,-0.45,-0.28
1.02,-0.51,-0.35
0.85,-0.59,-0.4
0.71,-0.61,-0.43
0.6,-0.59,-0.45
0.56,-0.52,-0.49
0.54,-0.47,-0.48
0.55,-0.43,-0.45
0.58,-0.39,-0.43
0.59,-0.38,-0.41
0.57,-0.41,-0.4
0.57,-0.43,-0.38
0.59,-0.45,-0.34
0.62,-0.49,-0.3
0.65,-0.54,-0.26
0.69,-0.59,-0.14
0.79,-0.76,-0.08
0.8,-0.85,-0.03
0.77,-0.94,0.02
0.81,-1.01,0.14
0.77,-1.08,0.2
0.75,-1.15,0.15
0.82,-1.16,0.15
0.91,-1.22,0.2
1.02,-1.33,0.22
1.01,-1.49,0.23
1,-1.55,0.28
1.05,-1.6,0.22
0.98,-1.7,0.22
0.96,-1.71,0.27
1.01,-1.74,0.27
0.94,-1.87,0.24
0.92,-1.94,0.2
0.98,-1.9,0.23
1,-1.86,0.26
1.03,-1.77,0.25
1.03,-1.72,0.22
1,-1.69,0.19
1.02,-1.63,0.16
1,-1.59,0.13
0.96,-1.58,0.11
0.98,-1.55,0.14
1.01,-1.45,0.21
1,-1.33,0.25
0.97,-1.19,0.26
0.9,-1.08,0.25
0.87,-0.99,0.23
0.86,-0.96,0.22
0.84,-0.94,0.26
0.79,-0.9,0.32
0.72,-0.82,0.37
0.64,-0.74,0.4
0.57,-0.68,0.41
0.54,-0.62,0.41
0.53,-0.55,0.38
0.55,-0.52,0.37
0.57,-0.51,0.38
0.58,-0.5,0.39
0.56,-0.48,0.39
0.53,-0.46,0.38
0.48,-0.43,0.36
0.44,-0.41,0.33
0.43,-0.41,0.3
0.43,-0.43,0.28
0.43,-0.47,0.26
0.41,-0.49,0.26
0.39,-0.52,0.25
0.4,-0.55,0.22
0.47,-0.63,0.14
0.54,-0.68,0.11
0.58,-0.73,0.1
0.62,-0.78,0.09
0.68,-0.84,0.09
0.72,-0.91,0.11
0.73,-0.99,0.12
0.75,-1.08,0.11
0.78,-1.18,0.11
0.78,-1.28,0.09
0.83,-1.35,0.1
0.87,-1.4,0.17
0.84,-1.49,0.23
0.81,-1.61,0.26
0.78,-1.74,0.31
0.8,-1.88,0.39
0.94,-1.97,0.44
1.15,-1.99,0.45
1.31,-1.94,0.4
1.35,-1.85,0.33
1.15,-1.75,0.4
0.77,-1.67,0.64
0.48,-1.69,0.92
0.47,-1.78,1.05
0.6,-1.84,1.01
0.68,-1.86,0.86
0.64,-1.67,0.76
0.43,-1.51,0.8
0.38,-1.38,0.78
0.34,-1.27,0.75
0.35,-1.21,0.67
0.43,-1.19,0.6
0.44,-1.13,0.57
0.47,-1.05,0.48
0.54,-0.99,0.31
0.56,-0.87,0.16
0.56,-0.75,0.05
0.58,-0.61,-0.03
0.58,-0.52,-0.04
0.55,-0.54,-0.13
0.55,-0.56,-0.27
0.57,-0.54,-0.32
0.61,-0.45,-0.39
0.67,-0.35,-0.52
0.66,-0.34,-0.6
0.62,-0.36,-0.59
0.59,-0.33,-0.61
0.56,-0.32,-0.62
0.53,-0.32,-0.59
0.51,-0.31,-0.54
0.48,-0.3,-0.48
0.47,-0.35,-0.41
0.54,-0.5,-0.29
0.69,-0.56,-0.22
0.72,-0.61,-0.17
0.74,-0.65,-0.14
0.75,-0.7,-0.08
0.75,-0.78,0.03
0.8,-0.86,0.13
0.86,-0.93,0.16
0.91,-0.99,0.17
0.94,-1.08,0.17
0.91,-1.18,0.15
0.84,-1.21,0.13
0.87,-1.26,0.13
0.94,-1.36,0.16
1.01,-1.43,0.17
1.02,-1.53,0.08
1.04,-1.59,0.06
1.01,-1.55,0.11
0.92,-1.54,0.06
0.93,-1.55,0.05
0.97,-1.58,0.08
1.04,-1.59,0.13
1.1,-1.61,0.16
1.1,-1.66,0.14
1.12,-1.69,0.1
1.13,-1.7,0.06
1.09,-1.65,-0.06
0.98,-1.5,-0.06
0.93,-1.47,-0.05
0.95,-1.46,0
0.97,-1.46,0.02
1,-1.43,0
0.99,-1.41,-0.02
0.95,-1.4,0
0.91,-1.36,0.03
0.9,-1.25,0.01
0.89,-1.16,-0.01
0.84,-1.08,0.02
0.8,-0.99,0.05
0.8,-0.91,0.06
0.79,-0.88,0.06
0.77,-0.91,0.1
0.74,-0.91,0.13
0.72,-0.86,0.18
0.68,-0.8,0.2
0.65,-0.74,0.18
0.66,-0.68,0.19
0.66,-0.64,0.24
0.66,-0.61,0.28
0.7,-0.58,0.33
0.73,-0.57,0.35
0.72,-0.55,0.37
0.71,-0.53,0.36
0.68,-0.5,0.36
0.67,-0.5,0.35
0.66,-0.51,0.34
0.7,-0.5,0.34
0.75,-0.5,0.34
0.78,-0.52,0.35
0.8,-0.54,0.34
0.81,-0.58,0.31
0.8,-0.64,0.26
0.79,-0.71,0.21
0.8,-0.77,0.15
0.81,-0.83,0.11
0.81,-0.86,0.08
0.83,-0.9,0.08
0.85,-0.94,0.1
0.9,-1.01,0.11
0.98,-1.11,0.1
1.01,-1.23,0.09
1.02,-1.36,0.11
1.04,-1.49,0.11
1.1,-1.6,0.07
1.16,-1.67,0.05
1.09,-1.7,0.09
0.84,-1.73,0.18
0.62,-1.81,0.27
0.59,-1.92,0.38
0.86,-2.04,0.42
0.89,-2.06,0.45
0.81,-1.98,0.47
0.65,-1.89,0.47
0.49,-1.8,0.48
0.4,-1.72,0.47
0.47,-1.66,0.42
0.67,-1.59,0.38
0.85,-1.52,0.37
0.89,-1.45,0.42
0.81,-1.33,0.46
0.73,-1.26,0.42
0.72,-1.22,0.32
0.77,-1.16,0.21
0.87,-1.05,0.12
0.89,-0.95,0.04
0.83,-0.87,0.02
0.73,-0.77,0.08
0.67,-0.65,0.16
0.62,-0.64,0.11
0.65,-0.58,-0.04
0.72,-0.48,-0.16
0.72,-0.45,-0.27
0.76,-0.36,-0.28
0.76,-0.36,-0.3
0.65,-0.44,-0.34
0.65,-0.28,-0.37
0.67,-0.24,-0.38
0.72,-0.21,-0.39
0.8,-0.2,-0.4
0.86,-0.19,-0.39
0.87,-0.24,-0.38
0.84,-0.33,-0.33
0.8,-0.39,-0.25
0.75,-0.43,-0.16
0.72,-0.47,-0.1
0.71,-0.51,-0.05
0.72,-0.56,0
0.72,-0.62,0.06
0.71,-0.72,0.1
0.75,-0.76,0.12
0.78,-0.8,0.16
0.75,-0.89,0.25
0.77,-0.94,0.31
0.83,-1.02,0.3
0.88,-1.18,0.26
0.85,-1.18,0.32
0.76,-1.15,0.36
0.75,-1.2,0.37
0.78,-1.33,0.44
0.82,-1.52,0.48
0.84,-1.59,0.44
0.84,-1.52,0.44
0.78,-1.53,0.39
0.75,-1.53,0.36
0.74,-1.52,0.39
0.82,-1.56,0.48
0.91,-1.69,0.51
0.96,-1.74,0.46
0.95,-1.79,0.43
0.91,-1.76,0.42
0.84,-1.63,0.39
0.81,-1.56,0.31
0.82,-1.55,0.21
0.83,-1.55,0.22
0.84,-1.56,0.26
0.85,-1.53,0.28
0.84,-1.47,0.3
0.82,-1.4,0.3
0.8,-1.31,0.27
0.84,-1.2,0.21
0.87,-1.08,0.19
0.82,-1.01,0.2
0.82,-0.96,0.19
0.83,-0.95,0.21
0.78,-0.94,0.28
0.7,-0.88,0.34
0.64,-0.8,0.4
0.54,-0.66,0.44
0.53,-0.62,0.47
0.59,-0.59,0.48
0.64,-0.54,0.47
0.66,-0.49,0.48
0.65,-0.45,0.5
0.6,-0.43,0.5
0.51,-0.43,0.5
0.41,-0.46,0.49
0.36,-0.48,0.47
0.38,-0.51,0.43
0.44,-0.54,0.4
0.52,-0.56,0.36
0.6,-0.61,0.32
0.66,-0.67,0.28
0.72,-0.72,0.23
0.76,-0.78,0.18
0.78,-0.86,0.13
0.76,-0.93,0.12
0.7,-1,0.12
0.66,-1.07,0.11
0.68,-1.13,0.12
0.76,-1.22,0.13
0.88,-1.32,0.15
0.97,-1.42,0.16
0.97,-1.52,0.14
0.89,-1.63,0.17
0.74,-1.66,0.25
0.73,-1.68,0.32
0.73,-1.74,0.36
0.76,-1.78,0.41
0.71,-1.84,0.49
0.6,-1.86,0.57
0.48,-1.83,0.62
0.37,-1.77,0.64
0.37,-1.73,0.65
0.41,-1.76,0.68
0.41,-1.86,0.79
0.43,-2,0.87
0.39,-2.01,0.84
0.32,-1.85,0.77
0.39,-1.62,0.66
0.52,-1.45,0.53
0.65,-1.32,0.43
0.75,-1.22,0.37
0.77,-1.14,0.3
0.76,-1.11,0.26
0.73,-1.08,0.26
0.69,-1.03,0.21
0.65,-0.94,0.05
0.68,-0.81,-0.07
0.76,-0.68,-0.16
0.86,-0.54,-0.29
1.01,-0.45,-0.34
1,-0.37,-0.34
0.91,-0.31,-0.39
0.85,-0.29,-0.46
0.76,-0.33,-0.47
0.7,-0.39,-0.46
0.68,-0.36,-0.44
0.64,-0.34,-0.42
0.64,-0.32,-0.42
0.64,-0.34,-0.38
0.65,-0.4,-0.31
0.67,-0.43,-0.25
0.68,-0.48,-0.22
0.68,-0.53,-0.16
0.66,-0.58,-0.1
0.62,-0.63,-0.05
0.62,-0.68,0
0.64,-0.75,0.07
0.67,-0.82,0.13
0.71,-0.85,0.16
0.74,-0.9,0.15
0.76,-1,0.14
0.74,-1.13,0.12
0.75,-1.22,0.17
0.7,-1.33,0.22
0.7,-1.4,0.19
0.74,-1.44,0.2
0.74,-1.46,0.24
0.73,-1.45,0.24
0.74,-1.51,0.24
0.78,-1.59,0.3
0.79,-1.61,0.35
0.77,-1.64,0.31
0.78,-1.64,0.32
0.78,-1.57,0.32
0.77,-1.47,0.26
0.81,-1.47,0.22
0.84,-1.52,0.22
0.87,-1.54,0.21
0.95,-1.56,0.22
0.98,-1.56,0.21
0.94,-1.52,0.2
0.92,-1.44,0.16
0.88,-1.33,0.1
0.86,-1.25,0.09
0.9,-1.21,0.07
0.95,-1.15,0.02
0.95,-1.15,-0.01
0.88,-1.2,0.02
0.89,-1.15,0.03
0.9,-1.08,0.01
0.85,-1.01,0.04
0.82,-0.81,0.04
0.81,-0.73,0.04
0.77,-0.69,0.06
0.72,-0.66,0.08
0.68,-0.62,0.12
0.63,-0.59,0.15
0.57,-0.57,0.16
0.53,-0.54,0.18
0.54,-0.52,0.19
0.52,-0.51,0.19
0.53,-0.49,0.19
0.56,-0.47,0.18
0.56,-0.46,0.18
0.53,-0.46,0.18
0.5,-0.46,0.17
0.47,-0.47,0.17
0.45,-0.5,0.18
0.44,-0.52,0.17
0.46,-0.54,0.17
0.5,-0.57,0.16
0.53,-0.6,0.13
0.56,-0.64,0.09
0.58,-0.69,0.06
0.61,-0.73,0.03
0.65,-0.79,0.03
0.68,-0.85,0
0.72,-0.96,-0.01
0.74,-1.04,-0.01
0.75,-1.1,0.01
0.76,-1.17,0.03
0.76,-1.23,0.05
0.79,-1.29,0.06
0.86,-1.36,0.07
0.93,-1.45,0.08
0.98,-1.57,0.06
0.99,-1.7,0.07
0.98,-1.8,0.2
1.02,-1.92,0.31
1.01,-2.01,0.32
0.93,-2,0.3
0.86,-1.93,0.3
0.8,-1.82,0.31
0.78,-1.72,0.29
0.83,-1.66,0.27
0.93,-1.57,0.27
1,-1.49,0.28
0.99,-1.45,0.3
0.92,-1.43,0.34
0.8,-1.41,0.38
0.67,-1.35,0.4
0.62,-1.25,0.34
0.68,-1.14,0.07
0.83,-0.98,0.01
0.84,-0.94,0
0.75,-0.91,0.04
0.59,-0.86,0.04
0.46,-0.78,-0.04
0.46,-0.71,-0.16
0.52,-0.62,-0.26
0.59,-0.53,-0.36
0.65,-0.49,-0.51
0.69,-0.42,-0.56
0.69,-0.37,-0.54
0.63,-0.34,-0.51
0.53,-0.32,-0.49
0.46,-0.32,-0.5
0.39,-0.3,-0.47
0.39,-0.31,-0.44
0.41,-0.32,-0.42
0.42,-0.34,-0.39
0.46,-0.37,-0.39
0.5,-0.4,-0.37
0.52,-0.44,-0.32
0.52,-0.47,-0.28
0.52,-0.49,-0.25
0.54,-0.52,-0.2
0.56,-0.57,-0.15
0.58,-0.63,-0.11
0.64,-0.71,-0.08
0.66,-0.78,-0.05
0.72,-0.85,-0.01
0.78,-0.9,0.01
0.83,-0.94,0.02
0.88,-0.96,0.02
0.9,-0.99,0.02
0.91,-1.03,0.04
0.91,-1.13,0.04
0.92,-1.23,0.06
0.92,-1.3,0.1
0.9,-1.35,0.14
0.88,-1.39,0.17
0.88,-1.4,0.17
0.89,-1.36,0.15
0.93,-1.35,0.13
0.98,-1.42,0.12
0.98,-1.49,0.14
0.98,-1.53,0.13
0.95,-1.54,0.1
0.91,-1.53,0.1
0.91,-1.49,0.09
0.92,-1.39,0.08
0.92,-1.32,0.04
0.94,-1.3,-0.02
0.99,-1.31,-0.02
0.99,-1.34,0
0.98,-1.28,-0.01
0.96,-1.21,-0.05
0.96,-1.14,-0.06
0.95,-1.06,-0.06
0.94,-0.99,-0.08
0.95,-0.92,-0.11
0.95,-0.89,-0.13
0.93,-0.87,-0.11
0.93,-0.85,-0.07
0.92,-0.8,-0.03
0.9,-0.72,0.01
0.84,-0.65,0.05
0.78,-0.58,0.08
0.72,-0.53,0.09
0.66,-0.49,0.11
0.62,-0.46,0.13
0.62,-0.44,0.14
0.61,-0.42,0.15
0.59,-0.39,0.16
0.57,-0.37,0.16
0.56,-0.35,0.17
0.53,-0.34,0.19
0.51,-0.33,0.22
0.51,-0.33,0.22
0.53,-0.34,0.21
0.58,-0.38,0.16
0.6,-0.4,0.12
0.62,-0.43,0.1
0.64,-0.46,0.09
0.65,-0.5,0.11
0.66,-0.53,0.13
0.68,-0.57,0.14
0.68,-0.61,0.12
0.71,-0.68,0.08
0.73,-0.75,0.01
0.76,-0.81,-0.03
0.8,-0.87,-0.02
0.84,-0.92,0.03
0.85,-0.98,0.05
0.87,-1.03,0.03
0.88,-1.09,0
0.82,-1.18,-0.02
0.77,-1.24,0.03
0.77,-1.33,0.09
0.81,-1.44,0.14
0.9,-1.55,0.17
1.01,-1.63,0.17
1.09,-1.69,0.18
1.1,-1.75,0.2
1.05,-1.8,0.24
0.94,-1.82,0.28
0.76,-1.79,0.31
0.69,-1.71,0.3
0.8,-1.63,0.36
0.89,-1.52,0.4
0.92,-1.41,0.39
0.94,-1.34,0.38
0.97,-1.29,0.39
0.95,-1.25,0.41
0.82,-1.19,0.43
0.66,-1.11,0.45
0.6,-1.04,0.42
0.6,-1.03,0.37
0.63,-1.02,0.28
0.69,-0.96,0.14
0.76,-0.87,0.01
0.8,-0.75,-0.09
0.85,-0.64,-0.19
0.89,-0.58,-0.29
0.88,-0.55,-0.4
0.8,-0.5,-0.51
0.69,-0.43,-0.62
0.63,-0.4,-0.66
0.6,-0.4,-0.69
0.57,-0.43,-0.75
0.53,-0.44,-0.75
0.54,-0.38,-0.72
0.57,-0.34,-0.61
0.63,-0.38,-0.56
0.63,-0.47,-0.53
0.64,-0.53,-0.48
0.64,-0.56,-0.43
0.62,-0.59,-0.36
0.63,-0.63,-0.28
0.62,-0.66,-0.22
0.61,-0.7,-0.19
0.62,-0.72,-0.16
0.65,-0.76,-0.12
0.7,-0.81,-0.08
0.75,-0.87,-0.06
0.77,-0.92,-0.04
0.82,-1,-0.01
0.85,-1.05,0.01
0.87,-1.09,0.03
0.9,-1.2,0.06
0.91,-1.28,0.09
0.92,-1.33,0.11
0.91,-1.42,0.11
0.89,-1.47,0.11
0.91,-1.5,0.16
0.98,-1.58,0.23
1.01,-1.67,0.3
0.99,-1.75,0.32
0.97,-1.76,0.23
0.84,-1.68,0.23
0.86,-1.63,0.25
0.93,-1.6,0.27
1,-1.59,0.25
1.03,-1.6,0.25
1.03,-1.57,0.25
1.04,-1.49,0.21
1.03,-1.43,0.17
1.04,-1.35,0.14
1.05,-1.27,0.1
1.03,-1.22,0.08
0.98,-1.16,0.08
0.9,-1.11,0.11
0.87,-1.06,0.12
0.86,-1.03,0.11
0.81,-0.99,0.1
0.83,-0.92,0.12
0.85,-0.82,0.16
0.81,-0.71,0.18
0.78,-0.63,0.18
0.75,-0.57,0.18
0.7,-0.54,0.2
0.64,-0.51,0.24
0.58,-0.49,0.3
0.53,-0.44,0.32
0.49,-0.39,0.34
0.4,-0.34,0.34
0.4,-0.33,0.32
0.4,-0.32,0.31
0.41,-0.31,0.28
0.42,-0.31,0.26
0.43,-0.32,0.24
0.42,-0.34,0.22
0.41,-0.36,0.22
0.42,-0.39,0.22
0.43,-0.43,0.2
0.44,-0.47,0.18
0.49,-0.51,0.16
0.52,-0.56,0.13
0.55,-0.64,0.12
0.59,-0.71,0.09
0.67,-0.77,0.06
0.77,-0.81,0.06
0.87,-0.88,0.07
0.96,-0.99,0.1
0.99,-1.12,0.15
0.94,-1.29,0.17
0.84,-1.46,0.17
0.64,-1.64,0.17
0.46,-1.75,0.19
0.54,-1.79,0.24
0.85,-1.82,0.21
1.66,-1.87,0.09
1.76,-1.82,-0.01
1.61,-1.74,0.01
1.28,-1.66,0.1
0.91,-1.57,0.19
0.6,-1.5,0.26
0.41,-1.51,0.33
0.43,-1.57,0.4
0.66,-1.6,0.45
0.95,-1.61,0.46
1.15,-1.57,0.44
1.14,-1.51,0.42
1.02,-1.44,0.38
0.9,-1.37,0.36
0.71,-1.31,0.39
0.55,-1.24,0.42
0.49,-1.21,0.35
0.52,-1.23,0.26
0.65,-1.25,0.18
0.82,-1.19,0.08
0.92,-1.08,0
0.93,-0.91,-0.1
0.91,-0.77,-0.23
0.94,-0.68,-0.32
0.91,-0.61,-0.36
0.83,-0.58,-0.45
0.7,-0.4,-0.45
0.61,-0.36,-0.57
0.57,-0.4,-0.63
0.56,-0.4,-0.55
0.56,-0.36,-0.54
0.62,-0.32,-0.55
0.64,-0.34,-0.52
0.67,-0.33,-0.48
0.73,-0.32,-0.46
0.75,-0.37,-0.42
0.75,-0.42,-0.36
0.74,-0.47,-0.29
0.72,-0.51,-0.22
0.68,-0.55,-0.16
0.64,-0.59,-0.13
0.6,-0.65,-0.14
0.56,-0.7,-0.13
0.55,-0.75,-0.11
0.58,-0.83,-0.08
0.63,-0.91,0.01
0.69,-0.97,0.1
0.72,-1.01,0.14
0.71,-1.04,0.1
0.66,-1.04,0.03
0.62,-1.09,-0.01
0.66,-1.17,0.16
0.76,-1.38,0.25
0.82,-1.5,0.33
0.81,-1.63,0.37
0.79,-1.57,0.37
0.76,-1.49,0.33
0.68,-1.57,0.26
0.72,-1.57,0.28
0.91,-1.53,0.27
1.07,-1.61,0.24
1.14,-1.71,0.22
1.12,-1.72,0.21
1.09,-1.68,0.24
1.03,-1.62,0.24
0.93,-1.57,0.22
0.88,-1.52,0.16
0.88,-1.51,0.13
1.01,-1.48,0.12
1.15,-1.41,0.09
1.12,-1.42,0.08
1.03,-1.39,0.08
0.94,-1.29,0.07
0.89,-1.18,0.06
0.83,-1.1,0.01
0.9,-1.02,-0.02
1.01,-0.99,0.01
1.02,-0.99,0.06
0.89,-0.86,0.08
0.79,-0.77,0.09
0.66,-0.72,0.09
0.59,-0.66,0.11
0.6,-0.6,0.1
0.65,-0.55,0.09
0.72,-0.5,0.1
0.78,-0.47,0.13
0.79,-0.43,0.14
0.74,-0.38,0.16
0.64,-0.34,0.16
0.56,-0.33,0.16
0.5,-0.31,0.17
0.47,-0.3,0.17
0.5,-0.28,0.15
0.55,-0.26,0.13
0.59,-0.27,0.13
0.63,-0.29,0.12
0.65,-0.32,0.13
0.63,-0.34,0.14
0.6,-0.38,0.13
0.56,-0.42,0.12
0.54,-0.47,0.12
0.57,-0.53,0.11
0.63,-0.58,0.1
0.74,-0.64,0.07
0.96,-0.75,0.06
0.89,-0.8,0.09
0.78,-0.88,0.11
0.71,-0.98,0.11
0.7,-1.13,0.11
0.71,-1.26,0.1
0.78,-1.37,0.12
0.88,-1.5,0.15
0.93,-1.62,0.17
0.97,-1.75,0.2
1.02,-1.83,0.21
1.05,-1.87,0.2
1.01,-1.86,0.21
0.88,-1.85,0.23
0.77,-1.84,0.26
0.73,-1.78,0.27
0.74,-1.72,0.25
0.78,-1.66,0.26
0.81,-1.56,0.28
0.82,-1.45,0.29
0.81,-1.37,0.28
0.77,-1.32,0.27
0.72,-1.28,0.28
0.65,-1.26,0.3
0.62,-1.26,0.3
0.64,-1.26,0.31
0.62,-1.18,0.34
0.49,-1.1,0.34
0.52,-1.03,0.32
0.6,-0.98,0.28
0.7,-0.93,0.23
0.75,-0.88,0.23
0.78,-0.8,0.22
0.76,-0.72,0.12
0.76,-0.67,-0.01
0.77,-0.65,-0.13
0.78,-0.6,-0.2
0.78,-0.53,-0.23
0.71,-0.53,-0.27
0.7,-0.49,-0.29
0.73,-0.47,-0.35
0.68,-0.47,-0.37
0.68,-0.44,-0.36
0.68,-0.44,-0.37
0.68,-0.44,-0.37
0.7,-0.44,-0.38
0.71,-0.45,-0.37
0.71,-0.49,-0.34
0.74,-0.52,-0.3
0.74,-0.55,-0.26
0.72,-0.59,-0.22
0.73,-0.63,-0.17
0.74,-0.72,-0.11
0.73,-0.78,-0.08
0.75,-0.84,-0.02
0.74,-0.92,0.02
0.74,-0.98,0.05
0.73,-1.07,0.08
0.74,-1.17,0.13
0.77,-1.24,0.21
0.77,-1.28,0.24
0.78,-1.28,0.26
0.77,-1.29,0.24
0.79,-1.3,0.25
0.87,-1.35,0.28
0.91,-1.41,0.32
0.91,-1.44,0.34
0.88,-1.45,0.32
0.87,-1.47,0.27
0.87,-1.49,0.23
0.86,-1.46,0.23
0.87,-1.46,0.21
0.89,-1.49,0.19
0.91,-1.52,0.2
0.93,-1.54,0.25
0.95,-1.51,0.29
0.96,-1.46,0.27
0.95,-1.4,0.23
0.92,-1.27,0.15
0.93,-1.25,0.15
0.96,-1.25,0.18
0.97,-1.19,0.19
0.98,-1.13,0.16
0.94,-1.1,0.1
0.89,-1.02,0.06
0.9,-0.94,0.04
0.94,-0.87,0.02
0.97,-0.8,0.01
0.96,-0.75,0.02
0.86,-0.71,0.05
0.71,-0.64,0.09
0.64,-0.57,0.1
0.62,-0.5,0.12
0.64,-0.46,0.14
0.71,-0.41,0.1
0.79,-0.32,0.08
0.83,-0.3,0.12
0.78,-0.32,0.15
0.68,-0.28,0.19
0.59,-0.26,0.19
0.54,-0.24,0.18
0.46,-0.24,0.18
0.39,-0.23,0.19
0.37,-0.23,0.16
0.38,-0.24,0.11
0.45,-0.27,0.11
0.5,-0.29,0.11
0.56,-0.32,0.11
0.61,-0.36,0.1
0.6,-0.41,0.1
0.57,-0.46,0.06
0.51,-0.51,0.02
0.49,-0.57,0
0.57,-0.65,0
0.68,-0.72,0
0.82,-0.79,0
0.95,-0.87,-0.01
1,-0.95,-0.05
0.93,-1.05,-0.12
0.82,-1.16,-0.19
0.77,-1.27,-0.22
0.79,-1.34,-0.23
0.89,-1.4,-0.19
1,-1.45,-0.11
1.06,-1.51,-0.04
1.13,-1.6,0
1.22,-1.71,0.03
1.22,-1.76,0.07
1.02,-1.75,0.09
0.76,-1.76,0.15
0.64,-1.74,0.39
1,-1.68,0.47
1.16,-1.6,0.47
1.15,-1.52,0.44
1,-1.42,0.44
0.69,-1.39,0.47
0.34,-1.42,0.54
0.16,-1.47,0.61
0.27,-1.57,0.63
0.61,-1.67,0.59
0.89,-1.64,0.51
0.92,-1.51,0.46
0.83,-1.43,0.39
0.82,-1.41,0.3
0.85,-1.37,0.23
0.77,-1.27,0.19
0.68,-1.15,0.15
0.63,-1.03,0.1
0.58,-0.94,0.05
0.5,-0.84,0.02
0.48,-0.73,0.01
0.55,-0.64,-0.04
0.73,-0.47,-0.18
0.91,-0.4,-0.33
0.99,-0.36,-0.41
0.91,-0.31,-0.41
0.72,-0.35,-0.46
0.6,-0.35,-0.48
0.59,-0.38,-0.47
0.57,-0.41,-0.43
0.6,-0.4,-0.4
0.61,-0.39,-0.38
0.63,-0.41,-0.35
0.63,-0.46,-0.31
0.59,-0.5,-0.26
0.56,-0.54,-0.2
0.56,-0.57,-0.14
0.59,-0.59,-0.09
0.63,-0.62,-0.05
0.68,-0.64,-0.01
0.72,-0.68,0.02
0.76,-0.77,0.04
0.81,-0.85,0.07
0.82,-0.9,0.1
0.82,-0.97,0.12
0.82,-1.06,0.15
0.82,-1.13,0.19
0.82,-1.19,0.22
0.84,-1.33,0.19
0.82,-1.44,0.18
0.8,-1.54,0.21
0.84,-1.64,0.23
0.81,-1.74,0.31
0.83,-1.63,0.3
0.83,-1.62,0.27
0.83,-1.59,0.26
0.82,-1.62,0.26
0.81,-1.65,0.26
0.83,-1.66,0.23
0.87,-1.63,0.24
0.89,-1.59,0.24
0.86,-1.59,0.2
0.87,-1.55,0.19
0.91,-1.51,0.16
0.93,-1.51,0.13
0.95,-1.49,0.1
0.94,-1.42,0.06
0.92,-1.33,0.05
0.89,-1.25,0.03
0.87,-1.17,0.01
0.86,-1.08,0.03
0.86,-1.05,0.05
0.84,-1.02,0.07
0.81,-1,0.07
0.77,-0.96,0.08
0.71,-0.94,0.1
0.66,-0.89,0.14
0.63,-0.82,0.15
0.61,-0.76,0.19
0.57,-0.67,0.23
0.54,-0.65,0.27
0.53,-0.62,0.29
0.52,-0.59,0.32
0.49,-0.58,0.34
0.47,-0.56,0.36
0.45,-0.53,0.37
0.44,-0.5,0.37
0.46,-0.47,0.37
0.47,-0.46,0.34
0.48,-0.47,0.3
0.49,-0.49,0.26
0.51,-0.52,0.23
0.52,-0.55,0.22
0.52,-0.58,0.2
0.53,-0.61,0.18
0.57,-0.63,0.14
0.6,-0.67,0.07
0.66,-0.71,-0.05
0.74,-0.75,-0.18
0.82,-0.81,-0.23
0.91,-0.86,-0.09
0.84,-0.85,0.18
0.68,-0.92,0.31
0.6,-1.09,0.23
0.57,-1.24,0.15
0.63,-1.44,0.25
0.69,-1.58,0.33
0.76,-1.69,0.42
0.84,-1.81,0.5
0.92,-1.92,0.55
0.95,-2.04,0.59
0.91,-2.16,0.62
0.85,-2.24,0.59
0.77,-2.21,0.53
0.72,-2.07,0.42
0.72,-1.94,0.32
0.72,-1.84,0.35
0.7,-1.76,0.39
0.69,-1.71,0.4
0.69,-1.63,0.42
0.69,-1.55,0.44
0.68,-1.51,0.42
0.64,-1.48,0.37
0.59,-1.42,0.33
0.53,-1.33,0.3
0.51,-1.23,0.24
0.54,-1.11,0.16
0.55,-1.01,0.08
0.62,-0.95,0.01
0.68,-0.91,-0.02
0.71,-0.82,-0.03
0.85,-0.62,-0.18
0.81,-0.5,-0.19
0.69,-0.47,-0.22
0.6,-0.49,-0.27
0.66,-0.4,-0.29
0.75,-0.3,-0.27
0.79,-0.25,-0.3
0.79,-0.29,-0.36
0.79,-0.33,-0.38
0.81,-0.36,-0.38
0.83,-0.38,-0.37
0.81,-0.42,-0.34
0.77,-0.48,-0.29
0.74,-0.53,-0.24
0.72,-0.58,-0.18
0.71,-0.63,-0.13
0.72,-0.66,-0.07
0.75,-0.69,-0.02
0.77,-0.72,0.02
0.76,-0.77,0.05
0.76,-0.87,0.09
0.81,-0.95,0.14
0.85,-1.03,0.18
0.84,-1.11,0.25
0.81,-1.21,0.27
0.8,-1.29,0.26
0.76,-1.36,0.28
0.69,-1.44,0.3
0.66,-1.52,0.32
0.68,-1.56,0.35
0.77,-1.63,0.39
0.83,-1.72,0.39
0.86,-1.68,0.39
0.8,-1.58,0.38
0.74,-1.55,0.34
0.73,-1.51,0.33
0.74,-1.48,0.34
0.74,-1.45,0.33
0.73,-1.44,0.32
0.71,-1.45,0.32
0.7,-1.46,0.32
0.68,-1.43,0.32
0.65,-1.34,0.31
0.61,-1.26,0.27
0.57,-1.19,0.2
0.56,-1.12,0.17
0.59,-1.07,0.15
0.61,-1.05,0.13
0.6,-1.04,0.12
0.57,-1,0.11
0.55,-0.94,0.11
0.52,-0.87,0.09
0.49,-0.75,0.04
0.44,-0.7,0.02
0.43,-0.66,-0.01
0.43,-0.64,-0.02
0.42,-0.62,-0.02
0.43,-0.6,-0.03
0.44,-0.59,-0.03
0.44,-0.57,-0.02
0.45,-0.55,-0.01
0.45,-0.55,-0.03
0.47,-0.55,-0.03
0.49,-0.53,0.01
0.49,-0.52,0.04
0.44,-0.51,0.06
0.39,-0.51,0.07
0.37,-0.51,0.08
0.35,-0.52,0.11
0.35,-0.53,0.13
0.38,-0.54,0.12
0.43,-0.6,0.11
0.48,-0.67,0.12
0.51,-0.73,0.13
0.74,-0.85,0.08
2.07,-1.06,0.4
3.58,-1.11,0.76
3.4,-1.06,0.74
1.99,-1.06,0.65
0.54,-0.66,0.38
0.4,-0.48,0.21
0.27,-0.33,0.17
0.2,-0.27,0.17
0.22,-0.31,0.19
0.38,-0.43,0.2
0.61,-0.5,0.22
0.87,-0.5,0.24
1.14,-0.49,0.27
1.35,-0.46,0.29
1.48,-0.44,0.31
1.49,-0.41,0.29
1.31,-0.36,0.25
1.06,-0.3,0.25
0.86,-0.29,0.3
0.71,-0.3,0.35
0.63,-0.32,0.38
0.63,-0.33,0.38
0.66,-0.35,0.34
0.74,-0.37,0.32
0.86,-0.39,0.32
0.98,-0.4,0.33
1.06,-0.41,0.3
1.02,-0.4,0.27
0.96,-0.38,0.28
0.95,-0.4,0.21
0.87,-0.42,0.19
0.81,-0.42,0.17
0.77,-0.43,0.15
0.74,-0.44,0.14
0.72,-0.45,0.13
0.72,-0.46,0.12
0.74,-0.48,0.11
0.78,-0.5,0.11
0.85,-0.52,0.11
0.92,-0.53,0.11
0.96,-0.54,0.1
0.96,-0.56,0.09
0.93,-0.57,0.08
0.89,-0.6,0.08
0.85,-0.62,0.09
0.8,-0.66,0.09
0.76,-0.68,0.1
0.74,-0.7,0.12
0.73,-0.72,0.13
0.72,-0.74,0.14
0.71,-0.75,0.15
0.72,-0.75,0.16
0.74,-0.76,0.15
0.75,-0.77,0.15
0.77,-0.77,0.15
0.79,-0.77,0.16
0.79,-0.77,0.16
0.78,-0.78,0.16
0.76,-0.78,0.16
0.75,-0.78,0.16
0.75,-0.78,0.15
0.76,-0.78,0.15
0.76,-0.78,0.14
0.77,-0.78,0.13
0.78,-0.79,0.12
0.79,-0.79,0.12
0.8,-0.78,0.12
0.79,-0.76,0.12
0.8,-0.75,0.12
0.8,-0.74,0.13
0.79,-0.72,0.13
0.79,-0.7,0.14
0.78,-0.68,0.15
0.77,-0.66,0.16
0.77,-0.65,0.18
0.76,-0.62,0.2
0.75,-0.6,0.21
0.75,-0.59,0.23
0.74,-0.59,0.24
0.73,-0.58,0.26
0.74,-0.57,0.28
0.76,-0.56,0.32
0.76,-0.55,0.36
0.77,-0.53,0.4
0.75,-0.54,0.41
0.75,-0.52,0.42
0.76,-0.51,0.47
0.75,-0.51,0.51
0.75,-0.48,0.55
0.72,-0.47,0.57
0.71,-0.46,0.57
0.73,-0.45,0.55
0.7,-0.44,0.55
0.69,-0.44,0.57
0.71,-0.44,0.58
0.72,-0.44,0.58
0.73,-0.45,0.56
0.73,-0.45,0.54
0.74,-0.46,0.51
0.75,-0.46,0.49
0.78,-0.47,0.45
0.81,-0.48,0.41
0.82,-0.49,0.38
0.84,-0.49,0.36
0.85,-0.49,0.34
0.85,-0.5,0.32
0.85,-0.5,0.3
0.85,-0.5,0.28
0.85,-0.51,0.28
0.86,-0.52,0.27
0.87,-0.52,0.26
0.87,-0.53,0.25
0.86,-0.53,0.25
0.84,-0.52,0.26
0.83,-0.52,0.27
0.83,-0.53,0.29
0.82,-0.54,0.31
0.8,-0.54,0.33
0.79,-0.54,0.36
0.79,-0.53,0.37
0.78,-0.53,0.38
0.78,-0.53,0.39
0.76,-0.54,0.39
0.76,-0.55,0.4
0.75,-0.56,0.41
0.74,-0.57,0.42
0.73,-0.56,0.43
0.73,-0.56,0.44
0.73,-0.55,0.44
0.74,-0.55,0.44
0.75,-0.55,0.44
0.75,-0.55,0.43
0.76,-0.55,0.43
0.77,-0.54,0.42
0.78,-0.54,0.41
0.78,-0.53,0.41
0.79,-0.53,0.4
0.79,-0.53,0.39
0.79,-0.53,0.38
0.79,-0.53,0.38
0.79,-0.52,0.38
0.8,-0.51,0.38
0.82,-0.52,0.38
0.83,-0.52,0.37
0.82,-0.51,0.38
0.8,-0.5,0.37
0.8,-0.5,0.37
0.81,-0.49,0.38
0.81,-0.49,0.39
0.81,-0.49,0.4
0.8,-0.49,0.4
0.8,-0.48,0.4
0.8,-0.48,0.4
0.79,-0.48,0.41
0.79,-0.48,0.41
0.8,-0.49,0.41
0.81,-0.49,0.41
0.8,-0.49,0.41
0.79,-0.49,0.4
0.79,-0.5,0.4
0.79,-0.51,0.4
0.79,-0.51,0.39
0.79,-0.51,0.4
0.8,-0.51,0.39
0.8,-0.51,0.39
0.8,-0.51,0.39
0.8,-0.51,0.39
0.8,-0.51,0.39
0.81,-0.51,0.38
0.8,-0.51,0.38
0.8,-0.51,0.39
0.8,-0.51,0.39
0.79,-0.51,0.39
0.79,-0.5,0.39
0.79,-0.51,0.39
0.79,-0.51,0.39
0.8,-0.5,0.39
0.8,-0.5,0.4
0.8,-0.5,0.41
0.8,-0.5,0.41
0.8,-0.5,0.41
0.81,-0.49,0.41
0.8,-0.49,0.41
0.8,-0.5,0.41
0.79,-0.5,0.41
0.79,-0.49,0.4
0.79,-0.49,0.41
0.8,-0.49,0.4
0.8,-0.49,0.4
0.8,-0.49,0.4
0.8,-0.49,0.4
0.8,-0.49,0.39
0.8,-0.49,0.39
0.8,-0.49,0.39
0.8,-0.49,0.39
0.8,-0.49,0.39
0.8,-0.5,0.39
0.8,-0.5,0.39
0.8,-0.5,0.39
0.8,-0.5,0.39
0.8,-0.5,0.4
0.8,-0.5,0.4
0.79,-0.5,0.4
0.79,-0.5,0.41
0.78,-0.5,0.4
0.79,-0.5,0.4
0.81,-0.49,0.41
0.8,-0.49,0.41
0.79,-0.5,0.41
0.78,-0.51,0.41
0.79,-0.5,0.41
0.79,-0.51,0.41
0.8,-0.51,0.4
0.79,-0.51,0.4
0.78,-0.51,0.4
0.78,-0.52,0.4
0.79,-0.52,0.4
0.79,-0.51,0.41
0.79,-0.52,0.4
0.78,-0.52,0.4
0.78,-0.52,0.41
0.79,-0.52,0.4
0.79,-0.52,0.4
0.79,-0.51,0.41
0.79,-0.51,0.41
0.79,-0.51,0.4
0.79,-0.51,0.4
0.79,-0.51,0.4
0.79,-0.51,0.4
0.79,-0.51,0.4
0.79,-0.51,0.4
0.79,-0.51,0.4
0.79,-0.51,0.41
0.79,-0.5,0.4
0.79,-0.5,0.4
0.79,-0.51,0.4
0.79,-0.51,0.4
0.79,-0.51,0.41
0.79,-0.5,0.41
0.79,-0.5,0.41
0.79,-0.51,0.41
0.79,-0.51,0.41
0.79,-0.5,0.4
0.79,-0.5,0.4
0.78,-0.51,0.4
0.78,-0.51,0.4
0.78,-0.51,0.4
0.78,-0.51,0.4
0.79,-0.51,0.4
0.79,-0.5,0.4
0.78,-0.51,0.4
0.78,-0.52,0.39
0.79,-0.51,0.4
0.79,-0.51,0.4
0.8,-0.52,0.4
0.79,-0.52,0.4
0.79,-0.53,0.4
0.79,-0.53,0.4
0.79,-0.52,0.39
0.8,-0.52,0.4
0.79,-0.51,0.41
0.78,-0.52,0.41
0.79,-0.52,0.42
0.78,-0.52,0.41
0.78,-0.53,0.4
0.78,-0.53,0.41
0.78,-0.52,0.41
0.78,-0.52,0.41
0.78,-0.52,0.41
0.78,-0.52,0.41
0.78,-0.52,0.41
0.78,-0.52,0.41
0.78,-0.52,0.41
0.79,-0.52,0.41
0.79,-0.52,0.41
0.79,-0.52,0.41
0.78,-0.52,0.41
0.78,-0.52,0.41
0.78,-0.52,0.4
0.78,-0.52,0.4
0.78,-0.52,0.4
0.78,-0.52,0.4
0.78,-0.52,0.4
0.78,-0.52,0.4
0.78,-0.52,0.41
0.78,-0.52,0.41
0.78,-0.51,0.4
0.78,-0.51,0.41
0.78,-0.51,0.41
0.78,-0.51,0.41
0.78,-0.51,0.41
0.78,-0.51,0.41
0.78,-0.51,0.41
0.78,-0.51,0.41
0.78,-0.51,0.4
0.78,-0.52,0.41
0.78,-0.52,0.41
0.78,-0.52,0.41
0.78,-0.52,0.41
0.78,-0.52,0.41
0.79,-0.52,0.41
0.79,-0.52,0.42
0.78,-0.52,0.41
0.78,-0.51,0.41
0.78,-0.51,0.42
0.78,-0.52,0.42
0.78,-0.51,0.42
0.77,-0.51,0.41
0.78,-0.51,0.41
0.78,-0.51,0.41
0.78,-0.51,0.41
0.78,-0.51,0.4
0.78,-0.51,0.4
0.79,-0.51,0.4
0.78,-0.51,0.4
0.79,-0.52,0.4
0.79,-0.52,0.4
0.79,-0.52,0.41
0.78,-0.52,0.41
0.78,-0.52,0.4
0.78,-0.52,0.4
0.78,-0.51,0.4
0.79,-0.52,0.39
0.8,-0.52,0.4
0.78,-0.51,0.41
0.77,-0.51,0.41
0.78,-0.5,0.41
0.78,-0.52,0.41
0.78,-0.51,0.41
0.78,-0.51,0.41
0.79,-0.52,0.41
0.78,-0.52,0.41
0.78,-0.51,0.41
0.79,-0.51,0.41
0.78,-0.52,0.41
0.78,-0.51,0.41
0.79,-0.52,0.41
0.79,-0.53,0.41
0.79,-0.51,0.42
0.79,-0.53,0.41
0.78,-0.53,0.41
0.78,-0.52,0.41
0.78,-0.53,0.4
0.77,-0.53,0.4
0.78,-0.53,0.41
0.78,-0.53,0.41
0.78,-0.53,0.42
0.78,-0.53,0.42
0.78,-0.53,0.42
0.77,-0.53,0.42
0.77,-0.52,0.41
0.77,-0.52,0.41
0.77,-0.52,0.41
0.78,-0.53,0.41
0.78,-0.52,0.41
0.77,-0.52,0.41
0.77,-0.52,0.41
0.77,-0.53,0.4
0.78,-0.53,0.4
0.78,-0.53,0.4
0.78,-0.52,0.4
0.78,-0.52,0.41
0.78,-0.52,0.41
0.78,-0.52,0.41
0.78,-0.52,0.41
0.78,-0.52,0.41
0.77,-0.52,0.41
0.77,-0.52,0.41
0.77,-0.52,0.41
0.77,-0.52,0.41
0.77,-0.53,0.41
0.77,-0.53,0.4
0.78,-0.53,0.41
0.78,-0.54,0.41
0.78,-0.55,0.4
0.79,-0.56,0.41
0.79,-0.57,0.41
0.81,-0.59,0.41
0.82,-0.6,0.42
0.82,-0.61,0.42
0.84,-0.61,0.43
0.86,-0.64,0.42
0.87,-0.66,0.42
0.88,-0.68,0.44
0.89,-0.69,0.43
0.92,-0.74,0.39
0.91,-0.79,0.37
0.86,-0.79,0.37
0.85,-0.76,0.39
0.89,-0.75,0.42
0.96,-0.76,0.43
1.04,-0.76,0.43
1.12,-0.75,0.44
1.17,-0.74,0.46
1.15,-0.7,0.49
1.12,-0.62,0.57
1.08,-0.56,0.63
1.07,-0.52,0.65
1.09,-0.51,0.64
1.03,-0.46,0.65
1.02,-0.38,0.66
1.11,-0.34,0.68
1.15,-0.3,0.73
1.18,-0.27,0.76
1.19,-0.24,0.81
1.24,-0.21,0.89
1.3,-0.18,0.96
1.31,-0.15,1
1.23,-0.12,1.02
1.14,-0.08,1.01
1.12,-0.03,0.98
1.08,0.01,0.98
0.99,0.05,0.99
0.93,0.1,1.01
0.88,0.14,1.03
0.9,0.16,1.04
0.93,0.18,1.02
0.92,0.2,0.97
0.93,0.22,0.91
0.99,0.25,0.84
1.03,0.27,0.76
0.98,0.29,0.61
0.95,0.3,0.56
0.95,0.33,0.52
0.93,0.35,0.48
0.87,0.36,0.5
0.82,0.39,0.53
0.79,0.43,0.55
0.75,0.46,0.57
0.65,0.51,0.53
0.54,0.56,0.44
0.5,0.61,0.33
0.47,0.69,0.29
0.45,0.71,0.33
0.42,0.72,0.45
0.35,0.73,0.52
0.35,0.74,0.62
0.44,0.74,0.71
0.45,0.68,0.65
0.46,0.66,0.58
0.61,0.61,0.47
0.7,0.57,0.41
0.67,0.52,0.4
0.63,0.44,0.44
0.57,0.36,0.45
0.51,0.43,0.43
0.44,0.48,0.46
0.39,0.45,0.42
0.36,0.35,0.44
0.4,0.38,0.37
0.44,0.47,0.33
0.43,0.44,0.34
0.39,0.25,0.34
0.32,0.3,0.31
0.26,0.67,0.25
0.33,0.58,0.13
0.32,0.27,0.1
0.23,0.32,0.07
0.28,0.45,-0.02
0.37,0.44,-0.09
0.47,0.38,-0.11
0.5,0.37,-0.09
0.52,0.38,-0.08
0.52,0.42,-0.07
0.4,0.39,-0.03
0.26,0.35,0.02
0.15,0.33,0.05
0.09,0.36,0.08
0.07,0.38,0.08
0.07,0.39,0.06
0.08,0.44,0.05
0.07,0.43,0.09
0.02,0.44,0.14
-0.05,0.46,0.21
-0.12,0.52,0.25
-0.14,0.53,0.25
-0.16,0.5,0.26
-0.17,0.5,0.27
-0.18,0.55,0.27
-0.17,0.58,0.27
-0.18,0.61,0.29
-0.19,0.62,0.3
-0.18,0.61,0.33
-0.15,0.61,0.35
-0.13,0.6,0.37
-0.1,0.57,0.36
-0.08,0.54,0.36
-0.05,0.54,0.34
-0.06,0.53,0.34
-0.09,0.53,0.38
-0.08,0.55,0.43
-0.08,0.55,0.47
-0.06,0.54,0.5
-0.05,0.5,0.55
-0.03,0.46,0.57
0,0.42,0.57
0,0.44,0.59
0,0.52,0.61
-0.02,0.58,0.62
-0.04,0.57,0.61
0.03,0.5,0.59
0.04,0.46,0.58
0.03,0.46,0.59
0.05,0.46,0.58
0.05,0.46,0.53
0.06,0.47,0.51
0.1,0.46,0.53
0.14,0.45,0.53
0.19,0.42,0.49
0.27,0.4,0.44
0.34,0.38,0.38
0.41,0.36,0.33
0.46,0.34,0.32
0.5,0.33,0.34
0.56,0.32,0.35
0.69,0.27,0.33
0.89,0.21,0.4
1.12,0.14,0.61
1.31,0.07,0.87
1.35,0.07,1.02
1.3,0.13,1.03
1.26,0.19,0.93
1.13,0.17,0.81
1.13,0.23,0.68
1.1,0.19,0.65
0.92,0.02,1.16
0.8,-0.03,1.44
0.57,-0.04,1.55
0.39,-0.1,1.51
0.23,-0.09,1.43
0.11,-0.16,1.23
0.09,-0.22,1.11
0.33,-0.31,1.08
0.56,-0.42,1.08
0.79,-0.49,1.18
1.04,-0.53,1.16
1.09,-0.53,1.1
1.02,-0.5,1.06
0.95,-0.44,0.96
0.84,-0.37,0.9
0.73,-0.35,0.84
0.71,-0.39,0.77
0.61,-0.47,0.61
0.87,-0.63,0.76
2.21,-0.65,1.54
2.65,-0.28,1.92
1.99,-0.06,1.77
1.74,-0.3,1.64
1.36,-0.45,1.35
1,-0.33,1
0.69,-0.23,0.76
0.42,-0.19,0.55
0.23,-0.19,0.52
0.24,-0.21,0.51
0.33,-0.26,0.51
0.47,-0.33,0.55
0.62,-0.39,0.6
0.75,-0.43,0.66
0.82,-0.44,0.77
0.85,-0.46,0.84
0.84,-0.46,0.85
0.78,-0.44,0.82
0.7,-0.41,0.77
0.61,-0.4,0.73
0.57,-0.4,0.69
0.57,-0.41,0.66
0.58,-0.41,0.63
0.6,-0.41,0.61
0.63,-0.41,0.61
0.66,-0.42,0.62
0.7,-0.42,0.64
0.72,-0.42,0.65
0.72,-0.41,0.67
0.72,-0.41,0.67
0.71,-0.41,0.66
0.69,-0.41,0.65
0.68,-0.4,0.64
0.66,-0.39,0.61
0.66,-0.42,0.6
0.68,-0.42,0.61
0.68,-0.43,0.61
0.68,-0.45,0.61
0.68,-0.45,0.62
0.69,-0.45,0.61
0.7,-0.46,0.61
0.69,-0.46,0.62
0.69,-0.46,0.63
0.68,-0.47,0.61
0.68,-0.47,0.6
0.68,-0.46,0.6
0.68,-0.46,0.58
0.7,-0.47,0.56
0.7,-0.48,0.56
0.7,-0.48,0.58
0.71,-0.48,0.59
0.72,-0.49,0.6
0.71,-0.49,0.6
0.7,-0.5,0.61
0.7,-0.5,0.61
0.69,-0.5,0.6
0.68,-0.5,0.61
0.68,-0.49,0.61
0.69,-0.48,0.61
0.69,-0.48,0.6
0.7,-0.49,0.61
0.7,-0.49,0.63
0.71,-0.49,0.64
0.7,-0.49,0.65
0.7,-0.48,0.66
0.69,-0.47,0.67
0.68,-0.46,0.68
0.69,-0.46,0.7
0.71,-0.46,0.72
0.73,-0.47,0.73
0.79,-0.49,0.75
0.85,-0.49,0.75
0.9,-0.48,0.75
0.94,-0.47,0.72
0.93,-0.45,0.68
0.89,-0.43,0.67
0.91,-0.43,0.67
0.96,-0.42,0.66
1,-0.41,0.65
1.01,-0.39,0.64
1.01,-0.38,0.63
1.04,-0.36,0.62
1.06,-0.34,0.59
1.04,-0.32,0.58
1.04,-0.29,0.59
1.04,-0.28,0.61
1.03,-0.26,0.67
1.04,-0.24,0.68
0.99,-0.23,0.71
0.94,-0.22,0.73
0.92,-0.19,0.73
0.9,-0.17,0.7
0.86,-0.15,0.7
0.87,-0.11,0.75
0.88,-0.08,0.81
0.86,-0.09,0.83
0.94,-0.1,0.78
1.14,-0.09,0.67
1.29,-0.07,0.6
1.34,-0.02,0.57
1.27,0.03,0.55
1.2,0.07,0.58
1.13,0.11,0.58
1.07,0.12,0.62
1.03,0.13,0.69
0.97,0.14,0.73
0.95,0.15,0.74
0.92,0.16,0.71
0.84,0.16,0.67
0.74,0.16,0.63
0.67,0.15,0.59
0.64,0.15,0.54
0.59,0.2,0.46
0.44,0.23,0.44
0.39,0.27,0.45
0.37,0.29,0.46
0.33,0.31,0.46
0.32,0.34,0.45
0.36,0.35,0.46
0.38,0.39,0.47
0.37,0.43,0.47
0.36,0.46,0.46
0.35,0.47,0.45
0.34,0.46,0.45
0.31,0.45,0.47
0.32,0.44,0.5
0.41,0.43,0.52
0.55,0.41,0.52
0.65,0.39,0.53
0.69,0.39,0.54
0.7,0.39,0.52
0.7,0.42,0.47
0.69,0.44,0.4
0.64,0.46,0.31
0.52,0.46,0.23
0.42,0.46,0.17
0.39,0.49,0.18
0.39,0.48,0.26
0.46,0.39,0.43
0.58,0.4,0.49
0.59,0.49,0.5
0.57,0.54,0.49
0.51,0.54,0.49
0.43,0.54,0.48
0.37,0.54,0.48
0.37,0.56,0.49
0.44,0.54,0.54
0.5,0.49,0.59
0.53,0.52,0.57
0.5,0.52,0.56
0.46,0.51,0.57
0.46,0.58,0.55
0.43,0.6,0.55
0.38,0.59,0.56
0.35,0.6,0.58
0.34,0.59,0.62
0.36,0.58,0.66
0.37,0.57,0.68
0.41,0.55,0.69
0.44,0.55,0.7
0.48,0.57,0.68
0.53,0.73,0.64
0.57,0.97,0.65
0.58,0.97,0.73
0.53,0.51,0.78
0.53,0.51,0.7
0.64,0.5,0.65
0.71,0.5,0.64
0.72,0.56,0.64
0.69,0.58,0.63
0.63,0.59,0.63
0.57,0.62,0.63
0.56,0.67,0.65
0.56,0.64,0.67
0.53,0.56,0.68
0.57,0.63,0.67
0.55,0.58,0.66
0.48,0.54,0.66
0.51,0.59,0.64
0.5,0.6,0.61
0.47,0.61,0.59
0.45,0.6,0.6
0.43,0.6,0.61
0.43,0.59,0.6
0.45,0.61,0.6
0.44,0.61,0.6
0.43,0.59,0.61
0.42,0.58,0.63
0.41,0.57,0.63
0.42,0.6,0.64
0.42,0.6,0.65
0.4,0.58,0.63
0.4,0.6,0.64
0.42,0.62,0.66
0.4,0.6,0.66
0.39,0.56,0.66
0.4,0.55,0.66
0.41,0.54,0.65
0.44,0.54,0.67
0.46,0.55,0.67
0.47,0.55,0.68
0.5,0.55,0.72
0.51,0.56,0.74
0.51,0.55,0.74
0.51,0.53,0.76
0.5,0.54,0.76
0.5,0.54,0.76
0.49,0.54,0.76
0.47,0.53,0.76
0.46,0.52,0.77
0.45,0.53,0.77
0.45,0.53,0.76
0.45,0.52,0.76
0.45,0.51,0.77
0.47,0.5,0.77
0.47,0.5,0.76
0.47,0.5,0.73
0.47,0.5,0.72
0.47,0.5,0.71
0.46,0.5,0.72
0.44,0.51,0.73
0.45,0.51,0.75
0.48,0.51,0.76
0.5,0.51,0.78
0.44,0.45,0.79
0.42,0.45,0.77
0.44,0.52,0.78
0.42,0.51,0.79
0.41,0.51,0.79
0.41,0.51,0.78
0.4,0.51,0.77
0.38,0.51,0.76
0.39,0.51,0.75
0.39,0.51,0.73
0.41,0.51,0.73
0.41,0.5,0.73
0.39,0.49,0.74
0.4,0.5,0.74
0.39,0.49,0.75
0.39,0.49,0.75
0.41,0.51,0.74
0.41,0.51,0.74
0.39,0.47,0.76
0.4,0.49,0.76
0.41,0.49,0.76
0.43,0.49,0.74
0.45,0.51,0.72
0.47,0.5,0.7
0.41,0.46,0.74
0.38,0.47,0.8
0.39,0.49,0.82
0.38,0.48,0.83
0.37,0.48,0.85
0.36,0.47,0.86
0.36,0.47,0.87
0.36,0.46,0.86
0.37,0.46,0.85
0.36,0.47,0.84
0.36,0.48,0.82
0.34,0.46,0.82
0.33,0.45,0.83
0.34,0.47,0.83
0.34,0.47,0.82
0.34,0.46,0.82
0.34,0.46,0.81
0.34,0.47,0.81
0.35,0.47,0.8
0.35,0.47,0.8
0.35,0.46,0.8
0.37,0.47,0.81
0.37,0.47,0.82
0.37,0.46,0.82
0.37,0.47,0.82
0.35,0.48,0.83
0.34,0.46,0.82
0.35,0.46,0.81
0.34,0.47,0.81
0.34,0.46,0.81
0.35,0.46,0.8
0.36,0.46,0.8
0.36,0.46,0.81
0.35,0.46,0.81
0.36,0.47,0.81
0.36,0.47,0.81
0.36,0.46,0.81
0.35,0.47,0.81
0.35,0.47,0.8
0.35,0.47,0.8
0.35,0.47,0.8
0.35,0.47,0.8
0.35,0.47,0.81
0.36,0.47,0.81
0.36,0.46,0.81
0.37,0.47,0.81
0.36,0.47,0.81
0.36,0.47,0.82
0.36,0.47,0.82
0.35,0.47,0.8
0.35,0.46,0.8
0.35,0.46,0.81
0.35,0.47,0.81
0.36,0.47,0.8
0.35,0.47,0.8
0.35,0.47,0.8
0.36,0.47,0.8
0.37,0.47,0.8
0.37,0.46,0.8
0.37,0.47,0.8
0.36,0.47,0.8
0.36,0.46,0.8
0.36,0.47,0.8
0.36,0.47,0.8
0.36,0.47,0.8
0.36,0.46,0.81
0.35,0.46,0.81
0.35,0.46,0.81
0.36,0.46,0.81
0.36,0.46,0.81
0.36,0.46,0.82
0.36,0.47,0.82
0.36,0.47,0.81
0.36,0.46,0.8
0.36,0.47,0.8
0.36,0.47,0.8
0.36,0.47,0.8
0.36,0.47,0.81
0.36,0.46,0.8
0.36,0.46,0.8
0.36,0.46,0.8
0.36,0.46,0.8
0.36,0.46,0.8
0.36,0.46,0.8
0.36,0.46,0.81
0.36,0.46,0.81
0.37,0.46,0.8
0.36,0.46,0.8
0.36,0.47,0.8
0.36,0.47,0.8
0.36,0.47,0.8
