Acc_x,Acc_y,Acc_z
0.68,-0.37,0.22
0.7,-0.39,0.15
0.75,-0.41,0.08
0.8,-0.45,0.03
0.87,-0.47,-0.01
0.97,-0.51,-0.06
1.05,-0.54,-0.13
1.06,-0.53,-0.2
1.02,-0.52,-0.24
1.03,-0.55,-0.29
1.07,-0.6,-0.33
1.08,-0.68,-0.33
1.1,-0.77,-0.29
1.15,-0.83,-0.28
1.22,-0.91,-0.3
1.28,-0.98,-0.32
1.22,-1.05,-0.32
1.01,-1.14,-0.3
0.76,-1.31,-0.09
0.51,-1.5,0
0.47,-1.66,0.09
0.49,-1.76,0.2
0.55,-1.86,0.25
0.62,-2,0.27
0.65,-2.06,0.26
0.67,-1.95,0.28
0.68,-1.84,0.32
0.67,-1.76,0.37
0.57,-1.68,0.42
0.44,-1.62,0.46
0.37,-1.63,0.49
0.34,-1.65,0.48
0.31,-1.68,0.48
0.34,-1.72,0.49
0.37,-1.74,0.49
0.37,-1.72,0.48
0.33,-1.7,0.54
0.22,-1.61,0.63
0.15,-1.48,0.7
0.21,-1.36,0.64
0.33,-1.27,0.47
0.36,-1.17,0.33
0.43,-1.11,0.28
0.59,-1.08,0.25
0.8,-0.98,0.31
0.93,-0.89,0.3
0.97,-0.81,0.3
0.94,-0.7,0.29
0.92,-0.63,0.2
0.95,-0.59,0.07
1.03,-0.52,-0.14
1.12,-0.42,-0.3
1.14,-0.29,-0.33
1.12,-0.26,-0.32
1.16,-0.23,-0.36
1.18,-0.18,-0.39
1.16,-0.15,-0.38
1.1,-0.19,-0.33
0.98,-0.25,-0.27
0.84,-0.35,-0.25
0.76,-0.41,-0.27
0.77,-0.41,-0.29
0.81,-0.41,-0.27
0.8,-0.47,-0.23
0.74,-0.56,-0.17
0.68,-0.67,-0.12
0.62,-0.82,-0.14
0.61,-0.87,-0.11
0.62,-0.95,-0.09
0.59,-1.18,-0.09
0.66,-1.25,-0.09
0.53,-1.49,-0.1
0.64,-1.45,-0.13
0.6,-1.56,-0.12
0.75,-1.7,-0.1
0.93,-1.75,-0.03
0.94,-1.73,0.05
0.96,-1.75,0.1
0.93,-1.75,0.1
0.86,-1.69,0.08
0.88,-1.7,0.03
0.94,-1.85,-0.04
1.03,-1.96,-0.09
1.08,-2.05,-0.12
1.1,-2.1,-0.05
1.2,-1.97,-0.01
1.23,-1.81,-0.03
1.17,-1.69,-0.11
1.17,-1.58,-0.28
1.18,-1.6,-0.43
1.24,-1.73,-0.46
1.29,-1.82,-0.41
1.29,-1.78,-0.35
1.3,-1.68,-0.39
1.33,-1.57,-0.48
1.34,-1.48,-0.55
1.35,-1.38,-0.51
1.32,-1.13,-0.44
1.26,-1,-0.38
1.19,-0.89,-0.32
1.11,-0.8,-0.27
1.03,-0.72,-0.23
0.99,-0.64,-0.22
0.95,-0.57,-0.19
0.89,-0.5,-0.14
0.85,-0.4,-0.1
0.82,-0.33,-0.05
0.79,-0.27,0.02
0.76,-0.22,0.09
0.71,-0.19,0.16
0.65,-0.16,0.2
0.6,-0.13,0.23
0.57,-0.1,0.25
0.55,-0.08,0.26
0.54,-0.06,0.25
0.53,-0.07,0.25
0.48,-0.07,0.25
0.42,-0.08,0.27
0.4,-0.09,0.28
0.39,-0.11,0.25
0.37,-0.12,0.23
0.39,-0.12,0.19
0.43,-0.13,0.12
0.56,-0.18,0.06
0.64,-0.22,-0.01
0.7,-0.26,-0.09
0.71,-0.29,-0.17
0.66,-0.33,-0.26
0.6,-0.36,-0.36
0.59,-0.4,-0.43
0.64,-0.46,-0.43
0.76,-0.5,-0.41
0.9,-0.51,-0.39
1.02,-0.55,-0.42
1.1,-0.6,-0.45
1.16,-0.65,-0.45
1.21,-0.68,-0.42
1.18,-0.71,-0.35
1.02,-0.75,-0.26
0.85,-0.83,-0.21
0.72,-0.96,-0.2
0.68,-1.09,-0.19
0.79,-1.2,-0.17
0.99,-1.3,-0.14
1.19,-1.39,-0.11
1.32,-1.42,-0.1
1.36,-1.47,-0.1
1.23,-1.53,-0.09
0.94,-1.57,0.06
0.46,-1.77,0.14
0.4,-1.88,0.21
0.52,-1.98,0.26
0.73,-2.07,0.29
0.88,-2.04,0.33
0.92,-1.96,0.38
0.91,-1.84,0.41
0.85,-1.74,0.48
0.7,-1.66,0.57
0.54,-1.64,0.65
0.4,-1.66,0.72
0.27,-1.67,0.77
0.2,-1.65,0.79
0.16,-1.61,0.77
0.2,-1.55,0.68
0.39,-1.46,0.6
0.63,-1.34,0.56
0.86,-1.23,0.49
0.95,-1.1,0.35
0.83,-1,0.24
0.73,-0.96,0.17
0.7,-0.89,0.07
0.72,-0.81,0
0.77,-0.72,-0.12
0.88,-0.6,-0.24
0.92,-0.5,-0.2
1.02,-0.31,-0.31
0.88,-0.44,-0.44
0.94,-0.43,-0.47
0.98,-0.4,-0.52
0.99,-0.41,-0.57
0.97,-0.38,-0.57
0.92,-0.37,-0.51
0.83,-0.41,-0.43
0.77,-0.48,-0.37
0.74,-0.53,-0.3
0.75,-0.58,-0.24
0.8,-0.63,-0.2
0.85,-0.68,-0.16
0.89,-0.75,-0.12
0.9,-0.83,-0.09
0.89,-0.91,-0.08
0.87,-1.06,-0.02
0.83,-1.25,0.06
0.75,-1.36,0.15
0.7,-1.39,0.13
0.67,-1.44,0.05
0.71,-1.39,0.08
0.68,-1.51,0.09
0.65,-1.78,0.07
0.82,-1.83,0.19
0.93,-1.83,0.28
0.95,-1.93,0.41
0.83,-1.9,0.45
0.8,-1.87,0.36
0.8,-1.89,0.21
0.75,-2.02,0.19
0.73,-2.11,0.25
0.78,-2.08,0.26
0.81,-2.09,0.28
0.88,-1.97,0.31
0.94,-1.84,0.26
0.92,-1.75,0.18
1.05,-1.55,0.06
1.1,-1.46,-0.05
1.06,-1.44,-0.06
1.07,-1.42,-0.03
1.04,-1.36,0.01
0.95,-1.26,-0.02
0.85,-1.13,-0.08
0.77,-1.01,-0.13
0.8,-0.96,-0.16
0.83,-0.97,-0.16
0.84,-0.93,-0.17
0.94,-0.83,-0.19
0.96,-0.73,-0.16
0.92,-0.62,-0.1
0.91,-0.52,-0.03
0.78,-0.39,0.25
0.7,-0.33,0.38
0.64,-0.28,0.42
0.58,-0.26,0.39
0.55,-0.24,0.36
0.56,-0.23,0.33
0.55,-0.24,0.36
0.49,-0.22,0.41
0.42,-0.18,0.42
0.38,-0.17,0.42
0.35,-0.2,0.42
0.36,-0.23,0.41
0.46,-0.28,0.35
0.59,-0.36,0.26
0.71,-0.44,0.17
0.78,-0.51,0.08
0.81,-0.57,-0.01
0.82,-0.64,-0.07
0.84,-0.72,-0.11
0.86,-0.79,-0.12
0.81,-0.86,-0.15
0.78,-1,-0.25
0.79,-1.18,-0.38
0.81,-1.38,-0.43
0.88,-1.51,-0.37
1.03,-1.61,-0.31
1.14,-1.81,-0.24
1.18,-1.83,-0.26
1.09,-1.87,-0.34
0.94,-1.85,-0.29
0.85,-1.79,-0.13
0.79,-1.78,-0.01
0.76,-1.8,0.12
0.75,-1.8,0.27
0.71,-1.78,0.36
0.53,-1.76,0.43
0.3,-1.77,0.49
0.22,-1.79,0.5
0.27,-1.8,0.53
0.35,-1.79,0.59
0.5,-1.78,0.61
0.61,-1.79,0.63
0.54,-1.79,0.68
0.39,-1.76,0.7
0.32,-1.68,0.69
0.35,-1.53,0.7
0.47,-1.37,0.67
0.66,-1.24,0.53
0.74,-1.17,0.4
0.73,-1.08,0.31
0.76,-0.97,0.26
0.65,-0.94,0.28
0.64,-0.72,0.05
0.83,-0.62,-0.16
0.8,-0.67,-0.28
0.87,-0.58,-0.34
0.98,-0.45,-0.46
0.92,-0.44,-0.59
0.87,-0.45,-0.65
0.87,-0.43,-0.7
0.83,-0.36,-0.76
0.8,-0.31,-0.72
0.81,-0.3,-0.63
0.76,-0.32,-0.56
0.73,-0.37,-0.48
0.76,-0.43,-0.44
0.81,-0.47,-0.4
0.81,-0.53,-0.34
0.82,-0.58,-0.27
0.87,-0.63,-0.24
0.89,-0.73,-0.22
0.89,-0.84,-0.2
0.87,-0.96,-0.14
0.87,-1.11,-0.06
0.85,-1.24,0.01
0.79,-1.33,0.07
0.75,-1.43,0.08
0.64,-1.65,0.12
0.52,-1.71,0.1
0.76,-1.64,0.12
0.73,-1.79,0.18
0.81,-1.9,0.2
0.83,-2,0.21
0.78,-2.16,0.17
0.78,-2.2,0.16
0.79,-2.13,0.17
0.8,-2.09,0.13
0.74,-2.17,0.09
0.68,-2.23,0.07
0.69,-2.2,0.06
0.71,-2.15,0.04
0.75,-2.11,0.05
0.82,-2.02,0.11
0.95,-1.86,0.11
1.02,-1.7,0.05
0.99,-1.6,-0.01
1,-1.54,-0.05
1.03,-1.49,-0.08
1.02,-1.42,-0.08
0.97,-1.31,-0.07
0.91,-1.2,-0.04
0.86,-1.09,0.02
0.81,-0.95,0.08
0.81,-0.85,0.12
0.87,-0.8,0.24
0.86,-0.77,0.33
0.8,-0.72,0.41
0.7,-0.65,0.45
0.62,-0.57,0.46
0.56,-0.5,0.47
0.46,-0.45,0.47
0.36,-0.41,0.48
0.29,-0.38,0.48
0.24,-0.37,0.48
0.22,-0.38,0.49
0.22,-0.42,0.49
0.26,-0.46,0.46
0.3,-0.5,0.43
0.33,-0.52,0.39
0.37,-0.55,0.33
0.44,-0.6,0.28
0.48,-0.65,0.26
0.52,-0.74,0.24
0.56,-0.86,0.19
0.6,-0.98,0.14
0.66,-1.12,0.07
0.75,-1.23,0
0.84,-1.32,-0.05
0.89,-1.41,-0.09
0.9,-1.52,-0.07
0.93,-1.66,0.16
0.85,-1.93,0.36
0.69,-2.1,0.57
0.58,-2.34,0.64
0.6,-2.62,0.55
0.81,-2.8,0.49
1.1,-2.89,0.52
1.26,-2.89,0.6
1.22,-2.82,0.63
1.04,-2.68,0.53
0.84,-2.49,0.46
0.51,-2.25,0.53
0.35,-2.08,0.61
0.56,-1.99,0.6
0.85,-1.84,0.57
0.94,-1.69,0.56
0.79,-1.55,0.5
0.68,-1.43,0.42
0.6,-1.32,0.45
0.55,-1.23,0.47
0.57,-1.19,0.4
0.51,-1.09,0.31
0.57,-0.97,0.21
0.75,-0.78,0.17
0.87,-0.59,0.13
0.95,-0.56,-0.08
1.16,-0.44,-0.44
1.13,-0.35,-0.46
0.86,-0.49,-0.47
0.82,-0.45,-0.53
0.83,-0.38,-0.53
0.82,-0.32,-0.53
0.84,-0.28,-0.53
0.88,-0.29,-0.53
0.91,-0.29,-0.51
0.9,-0.33,-0.47
0.84,-0.4,-0.41
0.74,-0.48,-0.33
0.64,-0.52,-0.27
0.62,-0.56,-0.24
0.67,-0.64,-0.17
0.71,-0.73,-0.06
0.77,-0.82,0.03
0.83,-0.87,0.12
0.83,-0.95,0.16
0.78,-1.08,0.15
0.74,-1.2,0.14
0.75,-1.32,0.2
0.76,-1.5,0.29
0.62,-1.79,0.35
0.63,-1.78,0.39
0.73,-1.74,0.35
0.64,-2,0.44
0.83,-2.02,0.32
0.83,-2.1,0.33
0.74,-2.21,0.34
0.72,-2.25,0.3
0.71,-2.14,0.35
0.71,-2,0.37
0.58,-2.06,0.29
0.62,-1.94,0.29
0.68,-1.87,0.12
0.78,-1.89,-0.03
0.99,-1.87,0.04
0.98,-1.87,0.09
0.93,-1.73,0.09
0.93,-1.56,0.05
0.96,-1.45,-0.01
1.07,-1.46,-0.08
1.16,-1.54,-0.09
1.16,-1.55,-0.03
1.11,-1.48,0
0.99,-1.36,-0.01
0.89,-1.24,0.01
0.85,-1.11,0.02
0.84,-0.96,0.05
0.83,-0.82,0.1
0.85,-0.7,0.12
0.82,-0.63,0.14
0.67,-0.59,0.19
0.57,-0.56,0.26
0.5,-0.5,0.33
0.47,-0.45,0.37
0.45,-0.39,0.38
0.42,-0.35,0.39
0.39,-0.33,0.39
0.35,-0.32,0.38
0.29,-0.33,0.37
0.26,-0.34,0.36
0.28,-0.35,0.35
0.36,-0.37,0.34
0.48,-0.4,0.34
0.58,-0.44,0.33
0.68,-0.49,0.3
0.79,-0.55,0.26
0.84,-0.62,0.24
0.83,-0.7,0.23
0.8,-0.78,0.19
0.77,-0.87,0.15
0.73,-0.98,0.15
0.73,-1.1,0.15
0.76,-1.25,0.09
0.8,-1.39,0.03
0.83,-1.54,-0.03
0.86,-1.71,-0.1
0.79,-2.02,-0.05
0.69,-2.18,-0.02
0.6,-2.31,0
0.52,-2.39,0.02
0.49,-2.45,-0.01
0.58,-2.48,-0.02
0.73,-2.51,0.05
0.87,-2.51,0.16
0.92,-2.45,0.28
0.85,-2.39,0.39
0.64,-2.33,0.4
0.39,-2.24,0.4
0.21,-2.07,0.46
0.13,-1.89,0.54
0.23,-1.78,0.57
0.42,-1.7,0.53
0.61,-1.56,0.39
0.68,-1.39,0.31
0.66,-1.27,0.33
0.72,-1.2,0.34
0.84,-1.11,0.32
0.76,-1.12,0.32
0.68,-1.14,0.23
0.84,-1.01,0.08
0.94,-0.9,0
0.98,-0.77,-0.13
1.07,-0.54,-0.34
1.05,-0.59,-0.31
1.11,-0.53,-0.29
1.17,-0.48,-0.29
1.16,-0.5,-0.32
1.19,-0.39,-0.39
1.14,-0.33,-0.4
1.01,-0.35,-0.42
0.9,-0.36,-0.4
0.88,-0.4,-0.36
0.92,-0.46,-0.35
0.95,-0.54,-0.33
0.97,-0.62,-0.28
0.97,-0.69,-0.23
0.91,-0.77,-0.17
0.85,-0.84,-0.11
0.82,-0.9,-0.08
0.8,-0.97,-0.04
0.79,-1.07,-0.01
0.83,-1.19,-0.01
0.88,-1.32,-0.04
0.9,-1.41,-0.04
0.9,-1.53,-0.04
0.94,-1.63,-0.02
0.97,-1.62,0.02
1.01,-1.7,0.06
0.94,-1.92,0.12
0.84,-1.91,-0.01
0.76,-1.95,-0.06
0.76,-2.01,-0.1
0.74,-2.04,-0.2
0.74,-2.01,-0.19
0.81,-2.01,-0.15
0.84,-2.1,-0.1
0.81,-2.24,-0.05
0.82,-2.23,-0.01
0.77,-2.11,0
0.71,-1.99,-0.05
0.7,-1.88,-0.15
0.72,-1.79,-0.2
0.73,-1.73,-0.15
0.68,-1.7,-0.08
0.65,-1.61,-0.02
0.68,-1.53,0.04
0.67,-1.43,0.1
0.73,-1.31,0.15
0.8,-1.2,0.16
0.81,-1.06,0.18
0.82,-0.97,0.2
0.83,-0.9,0.22
0.83,-0.82,0.25
0.83,-0.75,0.27
0.84,-0.62,0.3
0.86,-0.58,0.35
0.84,-0.56,0.39
0.81,-0.53,0.42
0.79,-0.49,0.43
0.76,-0.47,0.42
0.7,-0.45,0.38
0.67,-0.43,0.33
0.66,-0.42,0.3
0.65,-0.42,0.27
0.66,-0.44,0.25
0.66,-0.46,0.24
0.66,-0.49,0.23
0.66,-0.52,0.23
0.65,-0.56,0.21
0.66,-0.6,0.16
0.69,-0.65,0.09
0.73,-0.73,0.01
0.74,-0.81,-0.04
0.76,-0.9,-0.07
0.78,-1,-0.07
0.79,-1.11,-0.06
0.81,-1.21,-0.04
0.82,-1.35,-0.04
0.77,-1.49,0
0.73,-1.62,0.02
0.74,-1.91,-0.06
0.83,-2.07,-0.09
0.84,-2.3,-0.1
0.85,-2.52,-0.06
0.83,-2.66,0
0.83,-2.64,0.09
0.74,-2.52,0.19
0.54,-2.39,0.21
0.37,-2.2,0.2
0.19,-2.03,0.22
0.23,-1.96,0.24
0.46,-1.99,0.23
0.66,-1.96,0.24
0.77,-1.87,0.24
0.79,-1.78,0.25
0.81,-1.66,0.3
0.88,-1.55,0.35
0.89,-1.43,0.33
0.88,-1.32,0.23
0.87,-1.26,0.18
0.86,-1.21,0.16
0.88,-1.14,0.04
0.91,-1.05,-0.12
0.99,-0.96,-0.17
1.06,-0.84,-0.22
1.14,-0.63,-0.32
1.13,-0.55,-0.59
0.96,-0.45,-0.56
0.92,-0.4,-0.57
0.78,-0.37,-0.7
0.68,-0.35,-0.64
0.74,-0.28,-0.6
0.8,-0.34,-0.67
0.8,-0.32,-0.69
0.83,-0.27,-0.69
0.82,-0.31,-0.61
0.72,-0.38,-0.49
0.62,-0.47,-0.35
0.66,-0.56,-0.23
0.76,-0.67,-0.19
0.74,-0.75,-0.17
0.72,-0.83,-0.2
0.82,-0.92,-0.23
1,-1.06,-0.26
1.15,-1.19,-0.25
1.22,-1.36,-0.16
1.2,-1.44,-0.07
1.09,-1.51,-0.04
0.95,-1.69,-0.12
0.85,-1.77,-0.16
0.9,-1.83,-0.13
0.91,-1.97,-0.13
0.91,-2.04,-0.07
1.01,-2.06,-0.09
1.01,-2.04,-0.11
0.94,-2.04,-0.11
0.89,-2.15,-0.07
0.82,-2.23,0.03
0.75,-2.23,0.07
0.75,-2.2,0.08
0.75,-2.14,0.07
0.81,-2.05,0.08
0.91,-1.87,0.05
0.91,-1.7,-0.04
0.84,-1.59,-0.08
0.83,-1.55,-0.14
0.89,-1.61,-0.15
0.91,-1.69,-0.1
0.95,-1.63,-0.06
0.92,-1.5,0
0.82,-1.34,0.01
0.75,-1.18,-0.04
0.73,-1.04,-0.09
0.74,-0.9,-0.12
0.7,-0.77,-0.14
0.71,-0.69,-0.19
0.79,-0.64,-0.2
0.85,-0.6,-0.12
0.93,-0.52,0.06
0.99,-0.32,0.13
0.9,-0.26,0.18
0.76,-0.21,0.22
0.64,-0.19,0.25
0.54,-0.22,0.27
0.44,-0.23,0.28
0.36,-0.21,0.29
0.37,-0.19,0.31
0.42,-0.18,0.33
0.44,-0.18,0.34
0.42,-0.2,0.29
0.42,-0.24,0.18
0.45,-0.27,0.07
0.53,-0.31,-0.01
0.63,-0.35,-0.06
0.75,-0.38,-0.1
0.83,-0.41,-0.12
0.86,-0.44,-0.15
0.82,-0.48,-0.17
0.79,-0.53,-0.16
0.8,-0.59,-0.16
0.88,-0.69,-0.22
1.01,-0.83,-0.35
1.15,-0.94,-0.47
1.29,-1.01,-0.54
1.37,-1.04,-0.46
1.29,-1.02,-0.36
1.01,-1.04,-0.19
0.69,-1.1,-0.03
0.4,-1.27,0.02
0.2,-1.49,0.02
0.23,-1.69,0.06
0.47,-1.82,0.14
0.77,-1.92,0.17
1,-1.99,0.18
1.13,-1.98,0.17
1.14,-1.95,0.13
1.07,-1.88,0.14
1,-1.79,0.2
0.94,-1.71,0.22
0.86,-1.64,0.25
0.81,-1.61,0.3
0.79,-1.6,0.34
0.77,-1.57,0.36
0.72,-1.55,0.41
0.61,-1.52,0.53
0.48,-1.52,0.6
0.32,-1.51,0.59
0.17,-1.44,0.58
0.17,-1.3,0.56
0.3,-1.13,0.54
0.51,-0.99,0.45
0.87,-0.84,0.33
0.94,-0.83,0.21
0.93,-0.82,0.16
0.89,-0.81,0.16
0.86,-0.83,0.17
0.81,-0.82,0.19
0.76,-0.74,0.16
0.77,-0.65,0.04
0.83,-0.56,-0.08
0.87,-0.45,-0.17
0.9,-0.43,-0.29
0.89,-0.44,-0.39
0.88,-0.41,-0.43
0.92,-0.41,-0.44
0.92,-0.43,-0.46
0.9,-0.43,-0.47
0.89,-0.41,-0.45
0.85,-0.4,-0.44
0.82,-0.42,-0.44
0.81,-0.47,-0.43
0.8,-0.55,-0.4
0.79,-0.65,-0.35
0.77,-0.77,-0.28
0.73,-0.87,-0.19
0.65,-0.94,-0.11
0.58,-0.98,-0.07
0.57,-1.06,-0.02
0.61,-1.11,-0.03
0.68,-1.19,-0.03
0.76,-1.29,0.01
0.79,-1.4,0.02
0.79,-1.48,0.01
0.78,-1.52,0.07
0.78,-1.53,0.13
0.75,-1.56,0.15
0.71,-1.61,0.15
0.69,-1.7,0.15
0.68,-1.77,0.16
0.67,-1.82,0.22
0.66,-1.78,0.35
0.72,-1.69,0.38
0.84,-1.59,0.28
0.91,-1.52,0.18
0.9,-1.51,0.11
0.93,-1.5,0.05
0.99,-1.45,-0.04
0.99,-1.37,-0.1
0.97,-1.29,-0.14
0.96,-1.24,-0.19
0.91,-1.24,-0.21
0.95,-1.24,-0.28
1.05,-1.28,-0.26
1.04,-1.27,-0.08
0.85,-1.16,-0.04
0.81,-1.01,-0.03
0.84,-0.91,-0.05
0.85,-0.84,-0.04
0.88,-0.78,0
0.93,-0.72,0.05
0.96,-0.68,0.08
0.93,-0.64,0.12
0.85,-0.61,0.15
0.76,-0.61,0.18
0.71,-0.6,0.2
0.72,-0.58,0.2
0.73,-0.54,0.2
0.75,-0.51,0.19
0.79,-0.48,0.16
0.83,-0.46,0.15
0.83,-0.45,0.15
0.78,-0.45,0.15
0.71,-0.46,0.16
0.65,-0.47,0.17
0.6,-0.5,0.17
0.59,-0.54,0.14
0.56,-0.59,0.06
0.59,-0.62,-0.02
0.66,-0.63,-0.09
0.73,-0.65,-0.09
0.8,-0.66,-0.08
0.73,-0.68,-0.09
0.64,-0.73,-0.16
0.58,-0.83,-0.26
0.59,-0.93,-0.32
0.68,-1,-0.38
0.79,-1.08,-0.44
0.88,-1.16,-0.48
0.92,-1.22,-0.47
0.89,-1.24,-0.42
0.85,-1.25,-0.38
0.82,-1.3,-0.4
0.8,-1.35,-0.4
0.79,-1.39,-0.36
0.78,-1.43,-0.28
0.79,-1.49,-0.18
0.8,-1.54,-0.09
0.82,-1.59,-0.05
0.85,-1.65,-0.05
0.87,-1.67,-0.03
0.87,-1.66,0
0.85,-1.65,0.05
0.82,-1.64,0.1
0.8,-1.66,0.15
0.73,-1.66,0.28
0.64,-1.62,0.25
0.72,-1.64,0.12
0.88,-1.59,0.05
0.96,-1.48,0.1
0.9,-1.39,0.18
0.85,-1.31,0.2
0.75,-1.21,0.12
0.64,-1.14,0.03
0.64,-1.06,-0.05
0.7,-0.98,-0.12
0.79,-0.78,-0.15
0.81,-0.64,-0.18
0.72,-0.62,-0.2
0.62,-0.6,-0.23
0.71,-0.57,-0.33
0.8,-0.46,-0.43
0.71,-0.43,-0.51
0.66,-0.42,-0.5
0.65,-0.39,-0.48
0.62,-0.37,-0.48
0.61,-0.36,-0.49
0.6,-0.39,-0.55
0.6,-0.41,-0.56
0.62,-0.42,-0.55
0.61,-0.46,-0.52
0.63,-0.5,-0.47
0.68,-0.54,-0.39
0.74,-0.66,-0.37
0.77,-0.7,-0.33
0.77,-0.76,-0.29
0.75,-0.83,-0.26
0.74,-0.88,-0.23
0.78,-0.93,-0.19
0.81,-1.02,-0.19
0.79,-1.13,-0.2
0.79,-1.25,-0.23
0.86,-1.31,-0.24
0.88,-1.38,-0.23
0.85,-1.49,-0.24
0.84,-1.56,-0.25
0.84,-1.6,-0.25
0.89,-1.61,-0.21
0.89,-1.69,-0.19
0.93,-1.74,-0.21
0.99,-1.73,-0.2
0.94,-1.78,-0.16
0.83,-1.81,-0.15
0.76,-1.76,-0.18
0.75,-1.72,-0.23
0.79,-1.75,-0.25
0.89,-1.76,-0.19
0.94,-1.72,-0.15
1.02,-1.6,-0.21
0.96,-1.4,-0.21
0.85,-1.28,-0.21
0.79,-1.18,-0.19
0.81,-1.11,-0.17
0.86,-1.07,-0.14
0.92,-1.03,-0.11
0.95,-0.97,-0.08
0.93,-0.89,-0.04
0.85,-0.82,0.01
0.74,-0.74,0.05
0.6,-0.67,0.09
0.49,-0.6,0.12
0.42,-0.54,0.12
0.4,-0.53,0.12
0.45,-0.54,0.12
0.52,-0.59,0.12
0.58,-0.63,0.14
0.63,-0.65,0.15
0.66,-0.65,0.17
0.68,-0.65,0.17
0.7,-0.65,0.15
0.68,-0.66,0.11
0.67,-0.66,0.1
0.66,-0.66,0.1
0.65,-0.67,0.1
0.64,-0.68,0.09
0.63,-0.72,0.06
0.66,-0.73,0.04
0.67,-0.74,0.05
0.67,-0.76,0.06
0.65,-0.78,0.05
0.64,-0.82,0.02
0.65,-0.87,0
0.66,-0.93,-0.03
0.65,-0.98,-0.04
0.64,-1.01,-0.05
0.62,-1.04,-0.07
0.65,-1.07,-0.07
0.73,-1.1,-0.06
0.81,-1.17,-0.05
0.86,-1.26,-0.02
0.95,-1.34,0
1.01,-1.43,0.03
1.02,-1.51,0.05
0.97,-1.59,0.08
0.87,-1.67,0.13
0.74,-1.76,0.15
0.65,-1.83,0.19
0.6,-1.88,0.24
0.53,-1.91,0.24
0.48,-1.88,0.23
0.51,-1.87,0.16
0.69,-1.86,0.16
0.76,-1.79,0.16
0.77,-1.73,0.15
0.7,-1.71,0.19
0.59,-1.68,0.24
0.51,-1.62,0.3
0.54,-1.55,0.31
0.63,-1.45,0.23
0.71,-1.33,0.13
0.84,-1.21,0.05
0.96,-1.09,0.04
0.98,-0.97,0.06
0.84,-0.93,0.09
0.79,-0.92,0.09
0.76,-0.92,0.03
0.7,-0.92,-0.03
0.79,-0.79,-0.11
0.94,-0.58,-0.18
1,-0.4,-0.21
0.99,-0.34,-0.23
0.97,-0.35,-0.19
0.89,-0.39,-0.2
0.77,-0.47,-0.25
0.77,-0.47,-0.29
0.74,-0.45,-0.27
0.69,-0.42,-0.25
0.69,-0.4,-0.22
0.69,-0.45,-0.2
0.69,-0.49,-0.21
0.68,-0.54,-0.2
0.66,-0.58,-0.18
0.64,-0.62,-0.15
0.62,-0.66,-0.11
0.61,-0.71,-0.07
0.62,-0.77,-0.04
0.64,-0.84,-0.02
0.67,-0.92,0
0.67,-0.99,0.03
0.69,-1.09,0.09
0.71,-1.18,0.13
0.71,-1.24,0.13
0.71,-1.31,0.14
0.72,-1.4,0.18
0.74,-1.43,0.23
0.76,-1.43,0.22
0.77,-1.44,0.22
0.79,-1.43,0.22
0.8,-1.46,0.21
0.79,-1.5,0.23
0.82,-1.51,0.24
0.85,-1.54,0.25
0.87,-1.58,0.25
0.84,-1.53,0.21
0.79,-1.46,0.16
0.79,-1.39,0.12
0.8,-1.39,0.09
0.8,-1.38,0.06
0.8,-1.37,0.05
0.82,-1.37,0.07
0.84,-1.33,0.09
0.83,-1.27,0.06
0.82,-1.22,0.02
0.8,-1.15,-0.03
0.78,-1.09,-0.07
0.76,-1.05,-0.08
0.75,-1.02,-0.08
0.74,-0.98,-0.06
0.72,-0.94,-0.05
0.68,-0.9,-0.04
0.64,-0.85,-0.04
0.61,-0.79,-0.04
0.59,-0.73,-0.05
0.57,-0.69,-0.08
0.55,-0.67,-0.11
0.54,-0.64,-0.11
0.54,-0.61,-0.09
0.55,-0.58,-0.08
0.57,-0.56,-0.08
0.61,-0.54,-0.1
0.62,-0.53,-0.11
0.63,-0.51,-0.11
0.64,-0.48,-0.14
0.67,-0.46,-0.16
0.7,-0.45,-0.18
0.72,-0.44,-0.19
0.72,-0.42,-0.18
0.74,-0.4,-0.18
0.83,-0.39,-0.19
0.9,-0.38,-0.2
0.93,-0.36,-0.21
0.95,-0.34,-0.22
0.99,-0.31,-0.23
1.02,-0.27,-0.24
1.01,-0.25,-0.26
1,-0.25,-0.28
0.97,-0.24,-0.29
0.95,-0.21,-0.3
0.97,-0.23,-0.31
0.93,-0.26,-0.31
0.84,-0.25,-0.3
0.78,-0.25,-0.29
0.77,-0.24,-0.27
0.78,-0.22,-0.27
0.82,-0.22,-0.29
0.9,-0.25,-0.34
0.96,-0.26,-0.37
0.96,-0.29,-0.39
0.94,-0.3,-0.38
0.93,-0.3,-0.36
0.94,-0.31,-0.36
0.95,-0.33,-0.37
0.95,-0.33,-0.37
0.96,-0.32,-0.35
0.96,-0.32,-0.31
0.94,-0.31,-0.29
0.88,-0.3,-0.3
0.85,-0.32,-0.34
0.88,-0.34,-0.35
0.83,-0.31,-0.29
0.75,-0.32,-0.16
0.78,-0.36,-0.13
0.85,-0.37,-0.13
0.87,-0.41,-0.14
0.91,-0.44,-0.22
1.15,-0.43,-0.22
1.43,-0.39,-0.24
1.8,-0.39,-0.32
2.11,-0.41,-0.34
2,-0.44,-0.32
1.69,-0.5,-0.28
1.32,-0.47,-0.22
0.71,-0.46,-0.19
0.62,-0.49,-0.15
0.58,-0.52,-0.07
0.55,-0.54,-0.02
0.54,-0.54,0
0.58,-0.57,0.01
0.61,-0.62,0
0.64,-0.66,-0.02
0.68,-0.68,-0.05
0.7,-0.67,-0.08
0.71,-0.68,-0.11
0.75,-0.71,-0.14
0.78,-0.7,-0.14
0.79,-0.69,-0.11
0.81,-0.67,-0.08
0.82,-0.65,-0.06
0.8,-0.64,-0.06
0.83,-0.62,-0.09
0.83,-0.59,-0.11
0.83,-0.57,-0.13
0.81,-0.56,-0.15
0.81,-0.56,-0.17
0.8,-0.56,-0.19
0.81,-0.57,-0.2
0.82,-0.58,-0.2
0.81,-0.6,-0.21
0.8,-0.61,-0.22
0.83,-0.61,-0.23
0.85,-0.6,-0.24
0.85,-0.6,-0.25
0.84,-0.59,-0.26
0.84,-0.59,-0.25
0.84,-0.57,-0.25
0.84,-0.57,-0.24
0.85,-0.57,-0.21
0.85,-0.57,-0.19
0.85,-0.58,-0.18
0.85,-0.59,-0.18
0.85,-0.59,-0.17
0.86,-0.59,-0.16
0.88,-0.59,-0.15
0.89,-0.59,-0.15
0.9,-0.57,-0.14
0.89,-0.56,-0.12
0.88,-0.54,-0.12
0.86,-0.53,-0.12
0.86,-0.51,-0.12
0.86,-0.49,-0.12
0.86,-0.48,-0.12
0.88,-0.48,-0.12
0.89,-0.48,-0.13
0.89,-0.48,-0.13
0.88,-0.47,-0.13
0.88,-0.46,-0.14
0.9,-0.46,-0.15
0.9,-0.45,-0.15
0.9,-0.45,-0.15
0.9,-0.45,-0.16
0.89,-0.46,-0.17
0.89,-0.47,-0.18
0.88,-0.48,-0.18
0.88,-0.5,-0.17
0.88,-0.51,-0.17
0.88,-0.51,-0.16
0.88,-0.52,-0.16
0.88,-0.52,-0.15
0.88,-0.52,-0.15
0.88,-0.53,-0.14
0.87,-0.53,-0.13
0.87,-0.54,-0.13
0.88,-0.56,-0.13
0.89,-0.57,-0.14
0.88,-0.56,-0.13
0.87,-0.55,-0.13
0.87,-0.54,-0.13
0.87,-0.53,-0.13
0.86,-0.52,-0.14
0.86,-0.51,-0.15
0.87,-0.49,-0.16
0.87,-0.48,-0.15
0.89,-0.48,-0.15
0.9,-0.48,-0.16
0.89,-0.47,-0.17
0.88,-0.47,-0.17
0.89,-0.46,-0.17
0.9,-0.46,-0.17
0.9,-0.46,-0.16
0.88,-0.46,-0.14
0.89,-0.46,-0.13
0.89,-0.47,-0.14
0.9,-0.48,-0.14
0.9,-0.48,-0.14
0.91,-0.48,-0.15
0.92,-0.49,-0.16
0.91,-0.49,-0.16
0.9,-0.49,-0.17
0.9,-0.49,-0.17
0.89,-0.48,-0.16
0.87,-0.48,-0.16
0.87,-0.47,-0.15
0.89,-0.46,-0.15
0.9,-0.46,-0.16
0.89,-0.46,-0.17
0.9,-0.46,-0.17
0.9,-0.46,-0.18
0.9,-0.46,-0.19
0.9,-0.46,-0.19
0.9,-0.46,-0.2
0.89,-0.46,-0.19
0.9,-0.46,-0.19
0.9,-0.46,-0.19
0.9,-0.46,-0.19
0.89,-0.45,-0.19
0.89,-0.45,-0.19
0.89,-0.45,-0.19
0.89,-0.45,-0.19
0.89,-0.45,-0.19
0.89,-0.45,-0.18
0.9,-0.45,-0.17
0.89,-0.46,-0.17
0.89,-0.47,-0.18
0.89,-0.48,-0.18
0.89,-0.49,-0.18
0.89,-0.49,-0.18
0.89,-0.49,-0.18
0.88,-0.49,-0.18
0.88,-0.48,-0.18
0.89,-0.48,-0.18
0.89,-0.48,-0.18
0.89,-0.48,-0.18
0.9,-0.47,-0.17
0.9,-0.46,-0.18
0.9,-0.46,-0.18
0.9,-0.46,-0.18
0.9,-0.46,-0.18
0.9,-0.45,-0.19
0.9,-0.45,-0.19
0.9,-0.44,-0.19
0.9,-0.44,-0.19
0.9,-0.43,-0.19
0.91,-0.43,-0.19
0.9,-0.43,-0.18
0.9,-0.43,-0.18
0.91,-0.43,-0.18
0.91,-0.44,-0.19
0.9,-0.44,-0.19
0.9,-0.44,-0.19
0.9,-0.44,-0.19
0.91,-0.44,-0.19
0.91,-0.44,-0.2
0.91,-0.43,-0.19
0.91,-0.44,-0.19
0.91,-0.44,-0.19
0.91,-0.44,-0.2
0.9,-0.44,-0.2
0.9,-0.44,-0.19
0.91,-0.43,-0.18
0.9,-0.43,-0.19
0.9,-0.44,-0.2
0.9,-0.43,-0.19
0.9,-0.43,-0.19
0.9,-0.44,-0.18
0.9,-0.44,-0.18
0.89,-0.44,-0.18
0.89,-0.44,-0.17
0.9,-0.45,-0.18
0.9,-0.45,-0.18
0.9,-0.45,-0.18
0.91,-0.45,-0.18
0.9,-0.45,-0.19
0.9,-0.45,-0.2
0.9,-0.46,-0.22
0.9,-0.45,-0.23
0.9,-0.44,-0.23
0.91,-0.44,-0.22
0.91,-0.44,-0.23
0.9,-0.44,-0.24
0.9,-0.44,-0.24
0.9,-0.44,-0.24
0.89,-0.44,-0.23
0.89,-0.44,-0.22
0.9,-0.44,-0.22
0.89,-0.44,-0.22
0.89,-0.44,-0.21
0.88,-0.45,-0.2
0.88,-0.45,-0.19
0.89,-0.46,-0.2
0.89,-0.45,-0.21
0.89,-0.45,-0.21
0.89,-0.44,-0.21
0.9,-0.44,-0.22
0.9,-0.44,-0.21
0.9,-0.44,-0.21
0.91,-0.44,-0.22
0.91,-0.44,-0.22
0.9,-0.44,-0.22
0.9,-0.44,-0.22
0.89,-0.44,-0.21
0.89,-0.44,-0.21
0.89,-0.44,-0.21
0.89,-0.44,-0.2
0.89,-0.44,-0.21
0.89,-0.44,-0.21
0.9,-0.44,-0.21
0.9,-0.45,-0.21
0.9,-0.45,-0.21
0.89,-0.45,-0.21
0.89,-0.44,-0.22
0.89,-0.45,-0.22
0.89,-0.45,-0.22
0.89,-0.45,-0.22
0.9,-0.44,-0.22
0.9,-0.44,-0.22
0.9,-0.44,-0.21
0.9,-0.45,-0.21
0.9,-0.45,-0.22
0.9,-0.45,-0.22
0.89,-0.45,-0.22
0.89,-0.44,-0.22
0.89,-0.45,-0.22
0.89,-0.46,-0.22
0.89,-0.46,-0.22
0.9,-0.45,-0.21
0.9,-0.45,-0.21
0.9,-0.44,-0.21
0.91,-0.44,-0.21
0.91,-0.44,-0.21
0.91,-0.43,-0.21
0.9,-0.43,-0.21
0.9,-0.43,-0.21
0.89,-0.44,-0.21
0.89,-0.43,-0.21
0.9,-0.43,-0.21
0.89,-0.43,-0.22
0.9,-0.43,-0.22
0.89,-0.44,-0.22
0.89,-0.44,-0.22
0.9,-0.45,-0.22
0.89,-0.45,-0.22
0.89,-0.45,-0.22
0.89,-0.45,-0.22
0.89,-0.45,-0.22
0.89,-0.45,-0.22
0.89,-0.45,-0.22
0.89,-0.45,-0.22
0.89,-0.45,-0.22
0.89,-0.45,-0.22
0.89,-0.45,-0.22
0.89,-0.45,-0.22
0.89,-0.45,-0.22
0.9,-0.45,-0.22
0.89,-0.45,-0.22
0.89,-0.45,-0.21
0.89,-0.45,-0.21
0.89,-0.45,-0.22
0.89,-0.45,-0.22
0.89,-0.44,-0.22
0.89,-0.44,-0.22
0.89,-0.44,-0.22
0.9,-0.44,-0.22
0.9,-0.44,-0.22
0.9,-0.44,-0.22
0.9,-0.44,-0.22
0.89,-0.44,-0.22
0.89,-0.44,-0.22
0.9,-0.45,-0.22
0.89,-0.45,-0.22
0.89,-0.45,-0.22
0.89,-0.45,-0.22
0.9,-0.45,-0.22
0.89,-0.44,-0.22
0.89,-0.44,-0.22
0.89,-0.44,-0.22
0.89,-0.44,-0.22
0.89,-0.44,-0.22
0.89,-0.45,-0.22
0.9,-0.45,-0.22
0.9,-0.45,-0.22
0.89,-0.45,-0.22
0.89,-0.45,-0.22
0.89,-0.46,-0.23
0.89,-0.46,-0.23
0.89,-0.46,-0.23
0.89,-0.46,-0.23
0.89,-0.45,-0.23
0.9,-0.45,-0.23
0.9,-0.45,-0.23
0.89,-0.45,-0.22
0.89,-0.45,-0.22
0.89,-0.45,-0.22
0.89,-0.45,-0.22
0.89,-0.44,-0.22
0.89,-0.44,-0.22
0.89,-0.44,-0.22
0.89,-0.44,-0.22
0.89,-0.44,-0.22
0.89,-0.44,-0.22
0.89,-0.45,-0.22
0.89,-0.45,-0.22
0.9,-0.46,-0.22
0.89,-0.46,-0.23
0.9,-0.46,-0.22
0.9,-0.46,-0.22
0.9,-0.45,-0.23
0.89,-0.45,-0.23
0.89,-0.44,-0.22
0.89,-0.44,-0.21
0.9,-0.44,-0.21
0.89,-0.45,-0.21
0.9,-0.45,-0.22
0.9,-0.45,-0.22
0.9,-0.45,-0.22
0.91,-0.45,-0.21
0.9,-0.45,-0.21
0.89,-0.43,-0.21
0.89,-0.43,-0.21
0.88,-0.43,-0.2
0.88,-0.43,-0.2
0.87,-0.42,-0.2
0.88,-0.42,-0.2
0.88,-0.43,-0.2
0.9,-0.43,-0.21
0.91,-0.44,-0.21
0.92,-0.44,-0.22
0.91,-0.44,-0.22
0.9,-0.44,-0.21
0.88,-0.42,-0.22
0.9,-0.4,-0.23
0.92,-0.41,-0.23
0.88,-0.43,-0.23
0.86,-0.44,-0.24
0.86,-0.45,-0.23
0.86,-0.46,-0.24
0.85,-0.46,-0.24
0.85,-0.47,-0.24
0.87,-0.48,-0.24
0.89,-0.49,-0.25
0.89,-0.5,-0.25
0.89,-0.5,-0.23
0.89,-0.5,-0.23
0.89,-0.49,-0.22
0.88,-0.49,-0.2
0.88,-0.5,-0.19
0.88,-0.5,-0.18
0.88,-0.51,-0.18
0.88,-0.51,-0.17
0.89,-0.51,-0.17
0.91,-0.51,-0.17
0.91,-0.51,-0.16
0.91,-0.5,-0.16
0.91,-0.49,-0.16
0.91,-0.48,-0.16
0.91,-0.47,-0.16
0.91,-0.46,-0.16
0.92,-0.46,-0.17
0.93,-0.46,-0.18
0.93,-0.46,-0.19
0.93,-0.46,-0.19
0.94,-0.45,-0.2
0.95,-0.45,-0.22
0.97,-0.46,-0.24
0.97,-0.47,-0.24
0.97,-0.46,-0.25
0.96,-0.46,-0.25
0.96,-0.47,-0.22
0.92,-0.45,-0.2
0.89,-0.45,-0.19
0.86,-0.44,-0.17
0.85,-0.43,-0.16
0.84,-0.43,-0.16
0.82,-0.42,-0.17
0.83,-0.42,-0.18
0.86,-0.42,-0.19
0.89,-0.42,-0.2
0.91,-0.43,-0.21
0.94,-0.43,-0.23
0.98,-0.44,-0.25
1.01,-0.45,-0.25
1.04,-0.45,-0.24
1.08,-0.44,-0.23
1.11,-0.42,-0.25
1.11,-0.41,-0.28
1.07,-0.39,-0.29
1.01,-0.36,-0.31
0.97,-0.35,-0.34
0.95,-0.34,-0.34
0.89,-0.3,-0.36
0.81,-0.26,-0.37
0.83,-0.24,-0.35
0.87,-0.21,-0.46
1,-0.16,-0.39
0.97,-0.25,-0.46
0.91,-0.24,-0.48
0.95,-0.17,-0.47
0.91,-0.14,-0.43
0.87,-0.17,-0.42
0.83,-0.19,-0.41
0.72,-0.21,-0.41
0.68,-0.21,-0.4
0.74,-0.17,-0.39
0.72,-0.17,-0.38
0.61,-0.2,-0.37
0.59,-0.2,-0.39
0.58,-0.23,-0.42
0.5,-0.27,-0.43
0.46,-0.27,-0.44
0.48,-0.28,-0.5
0.46,-0.34,-0.56
0.41,-0.35,-0.62
0.39,-0.4,-0.72
0.4,-0.43,-0.82
0.41,-0.44,-0.86
0.42,-0.46,-0.87
0.42,-0.48,-0.88
0.34,-0.47,-0.89
0.35,-0.47,-0.91
0.45,-0.49,-1.05
0.33,-0.52,-1.09
0.32,-0.51,-1.11
0.32,-0.51,-1.14
0.3,-0.52,-1.18
0.28,-0.52,-1.19
0.31,-0.53,-1.21
0.34,-0.53,-1.21
0.37,-0.5,-1.21
0.4,-0.48,-1.22
0.37,-0.46,-1.21
0.32,-0.45,-1.2
0.26,-0.45,-1.21
0.24,-0.45,-1.22
0.26,-0.45,-1.21
0.31,-0.42,-1.14
0.35,-0.38,-1.08
0.39,-0.36,-1.08
0.41,-0.36,-1.15
0.39,-0.38,-1.21
0.37,-0.38,-1.23
0.38,-0.37,-1.26
0.4,-0.36,-1.3
0.44,-0.34,-1.24
0.46,-0.31,-1.16
0.49,-0.29,-1.12
0.48,-0.29,-1.09
0.41,-0.23,-0.93
0.39,-0.19,-0.87
0.39,-0.17,-0.8
0.43,-0.15,-0.71
0.48,-0.11,-0.62
0.51,-0.07,-0.54
0.51,-0.06,-0.46
0.6,-0.28,-0.36
0.49,-0.24,-0.27
0.29,0.01,-0.27
0.28,0.01,-0.3
0.28,0.03,-0.36
0.3,0.08,-0.45
0.36,0.12,-0.55
0.42,0.14,-0.66
0.45,0.14,-0.77
0.44,0.14,-0.83
0.42,0.13,-0.87
0.37,0.11,-0.93
0.36,0.09,-1
0.39,0.08,-1.04
0.43,0.07,-1.06
0.47,0.06,-1.06
0.51,0.05,-1.06
0.53,0.04,-1.04
0.55,0.03,-1.01
0.56,0.03,-0.92
0.55,0.03,-0.86
0.54,0.02,-0.8
0.55,0.02,-0.74
0.56,0.02,-0.68
0.57,0,-0.63
0.57,-0.02,-0.59
0.58,-0.03,-0.54
0.57,-0.03,-0.5
0.56,-0.05,-0.47
0.55,-0.07,-0.45
0.54,-0.09,-0.43
0.53,-0.11,-0.41
0.53,-0.14,-0.4
0.54,-0.17,-0.4
0.54,-0.2,-0.42
0.5,-0.24,-0.48
0.43,-0.3,-0.57
0.38,-0.36,-0.62
0.41,-0.4,-0.62
0.53,-0.41,-0.6
0.83,-0.55,-0.67
0.95,-0.59,-0.74
0.91,-0.5,-0.73
0.93,-0.5,-0.67
0.8,-0.51,-0.61
0.65,-0.63,-0.67
0.44,-0.72,-0.74
0.5,-0.79,-0.79
0.68,-0.87,-0.85
0.9,-0.93,-0.91
1.1,-0.95,-0.93
1.19,-0.94,-0.93
1.13,-0.91,-0.88
0.94,-0.87,-0.77
0.76,-0.83,-0.63
0.61,-0.82,-0.51
0.49,-0.83,-0.39
0.44,-0.85,-0.3
0.47,-0.9,-0.23
0.54,-0.97,-0.2
0.61,-1.04,-0.18
0.66,-1.09,-0.15
0.67,-1.13,-0.12
0.63,-1.16,-0.1
0.57,-1.18,-0.08
0.53,-1.23,-0.07
0.55,-1.29,-0.07
0.58,-1.38,-0.07
0.59,-1.47,-0.03
0.58,-1.53,0.05
0.57,-1.55,0.15
0.58,-1.58,0.14
0.69,-1.55,0.16
0.69,-1.47,0.23
0.61,-1.43,0.26
0.43,-1.44,0.33
0.22,-1.47,0.45
0.07,-1.52,0.53
0.08,-1.57,0.51
0.19,-1.6,0.53
0.3,-1.57,0.57
0.29,-1.48,0.59
0.29,-1.34,0.63
0.2,-1.3,0.62
0.15,-1.28,0.62
0.28,-1.26,0.59
0.51,-1.19,0.47
0.8,-1,0.36
0.92,-0.77,0.39
0.75,-0.68,0.33
0.45,-0.61,0.23
0.31,-0.6,0.22
0.43,-0.74,0.21
0.6,-0.74,0.1
0.65,-0.66,-0.04
0.71,-0.62,-0.14
0.8,-0.59,-0.18
0.87,-0.5,-0.21
0.9,-0.38,-0.2
0.83,-0.39,-0.2
0.73,-0.41,-0.23
0.66,-0.43,-0.27
0.63,-0.46,-0.27
0.6,-0.5,-0.22
0.59,-0.53,-0.15
0.61,-0.53,-0.08
0.64,-0.53,-0.01
0.67,-0.55,0.05
0.69,-0.59,0.1
0.7,-0.64,0.14
0.67,-0.7,0.2
0.64,-0.75,0.25
0.65,-0.81,0.26
0.61,-0.91,0.24
0.55,-1.04,0.22
0.49,-1.15,0.2
0.45,-1.22,0.21
0.47,-1.23,0.28
0.48,-1.27,0.31
0.53,-1.26,0.3
0.47,-1.35,0.21
0.5,-1.45,0.09
0.72,-1.37,0.08
0.73,-1.48,-0.01
0.66,-1.54,0.01
0.67,-1.45,0.08
0.67,-1.49,0.05
0.63,-1.55,0.02
0.57,-1.6,0.03
0.61,-1.67,-0.02
0.67,-1.74,-0.04
0.8,-1.66,-0.05
0.84,-1.53,-0.06
0.82,-1.5,-0.12
0.84,-1.47,-0.19
0.8,-1.5,-0.18
0.83,-1.57,-0.16
0.89,-1.54,-0.16
0.8,-1.43,-0.14
0.76,-1.32,-0.11
0.81,-1.21,-0.08
0.87,-1.08,-0.05
0.93,-0.96,-0.05
0.99,-0.92,-0.06
0.99,-0.92,-0.03
0.92,-0.9,0.03
0.83,-0.84,0.08
0.77,-0.77,0.11
0.78,-0.68,0.12
0.77,-0.61,0.17
0.76,-0.49,0.15
0.73,-0.48,0.12
0.71,-0.5,0.09
0.68,-0.51,0.08
0.67,-0.49,0.08
0.69,-0.48,0.08
0.73,-0.49,0.08
0.76,-0.49,0.08
0.79,-0.49,0.07
0.79,-0.49,0.07
0.79,-0.51,0.06
0.78,-0.55,0.03
0.78,-0.59,0
0.79,-0.65,-0.04
0.8,-0.71,-0.07
0.8,-0.77,-0.07
0.79,-0.82,-0.05
0.82,-0.89,0
0.87,-0.99,0.04
0.9,-1.1,0.04
0.94,-1.22,-0.01
0.95,-1.33,-0.06
0.93,-1.4,-0.1
0.92,-1.51,-0.17
0.9,-1.61,-0.21
0.98,-1.67,-0.2
1.26,-1.73,-0.19
1.22,-1.64,-0.13
1.09,-1.59,-0.02
0.92,-1.52,0.1
0.78,-1.45,0.19
0.55,-1.43,0.23
0.29,-1.42,0.28
0.15,-1.43,0.39
0.21,-1.53,0.47
0.37,-1.64,0.55
0.59,-1.66,0.65
0.69,-1.63,0.72
0.66,-1.55,0.69
0.57,-1.46,0.61
0.52,-1.36,0.51
0.54,-1.27,0.34
0.4,-1.21,0.4
0.31,-1.23,0.51
0.4,-1.25,0.48
0.47,-1.2,0.51
0.43,-1.09,0.51
0.35,-0.93,0.47
0.37,-0.8,0.32
0.51,-0.74,0.05
0.78,-0.66,-0.22
1.08,-0.57,-0.3
1.02,-0.59,-0.26
0.87,-0.48,-0.19
0.7,-0.42,-0.15
0.46,-0.38,-0.15
0.36,-0.37,-0.17
0.41,-0.43,-0.21
0.52,-0.42,-0.22
0.58,-0.38,-0.21
0.61,-0.35,-0.19
0.62,-0.35,-0.19
0.64,-0.4,-0.16
0.64,-0.45,-0.09
0.61,-0.49,-0.02
0.56,-0.51,0.04
0.5,-0.53,0.09
0.46,-0.53,0.11
0.48,-0.54,0.1
0.55,-0.59,0.09
0.64,-0.65,0.11
0.69,-0.71,0.14
0.66,-0.82,0.16
0.61,-0.9,0.21
0.57,-0.94,0.23
0.53,-0.96,0.21
0.52,-0.99,0.2
0.48,-1.05,0.12
0.65,-1.11,0.11
0.72,-1.23,0.05
0.68,-1.44,0.07
0.76,-1.41,0.16
0.68,-1.48,0.15
0.6,-1.56,0.14
0.55,-1.6,0.13
0.51,-1.65,0.08
0.7,-1.57,0.04
0.8,-1.62,-0.03
0.87,-1.7,-0.11
0.93,-1.68,-0.12
0.94,-1.59,-0.08
0.87,-1.5,-0.03
0.76,-1.41,-0.05
0.76,-1.37,-0.14
0.83,-1.49,-0.24
0.94,-1.62,-0.25
1.01,-1.61,-0.17
1.05,-1.52,-0.1
1.06,-1.4,-0.1
0.97,-1.28,-0.12
0.86,-1.14,-0.15
0.83,-1.02,-0.21
0.79,-1,-0.26
0.81,-1.04,-0.26
0.87,-1.02,-0.17
1.01,-0.92,-0.1
1.07,-0.83,-0.06
1.06,-0.75,-0.03
1,-0.66,-0.03
0.91,-0.57,-0.03
0.83,-0.51,-0.03
0.81,-0.48,-0.06
0.8,-0.49,-0.1
0.8,-0.51,-0.1
0.82,-0.5,-0.1
0.81,-0.47,-0.07
0.76,-0.42,-0.01
0.7,-0.37,0.03
0.67,-0.34,0.02
0.65,-0.35,-0.03
0.64,-0.36,-0.09
0.64,-0.37,-0.16
0.63,-0.41,-0.21
0.61,-0.45,-0.25
0.62,-0.49,-0.26
0.73,-0.54,-0.27
0.9,-0.57,-0.28
1.08,-0.6,-0.3
1.16,-0.63,-0.34
1.12,-0.68,-0.34
1.02,-0.83,-0.23
0.84,-0.92,-0.16
0.89,-1.02,-0.1
1.01,-1.1,-0.07
1.11,-1.18,-0.05
1.16,-1.25,-0.06
1.12,-1.3,-0.06
0.88,-1.31,-0.04
0.59,-1.35,0.04
0.39,-1.39,0.18
0.29,-1.49,0.29
0.33,-1.65,0.34
0.47,-1.8,0.32
0.67,-1.91,0.29
0.81,-1.96,0.25
0.81,-1.89,0.28
0.68,-1.75,0.41
0.52,-1.61,0.53
0.36,-1.52,0.59
0.28,-1.48,0.57
0.31,-1.54,0.55
0.37,-1.57,0.61
0.33,-1.51,0.67
0.21,-1.47,0.61
0.13,-1.47,0.52
0.25,-1.47,0.49
0.41,-1.25,0.61
0.3,-1.1,0.61
0.33,-0.95,0.55
0.38,-0.83,0.47
0.39,-0.79,0.39
0.38,-0.79,0.34
0.38,-0.74,0.36
0.42,-0.67,0.32
0.5,-0.61,0.29
0.58,-0.56,0.29
0.71,-0.52,0.24
0.86,-0.48,0.17
0.76,-0.45,0.15
0.6,-0.43,0.17
0.8,-0.12,0.22
0.82,-0.2,0.2
0.63,-0.48,0.16
0.72,-0.38,0.08
0.72,-0.38,-0.03
0.73,-0.33,-0.07
0.72,-0.36,-0.09
0.62,-0.39,-0.07
0.5,-0.36,0.02
0.51,-0.4,0.11
0.57,-0.43,0.09
0.56,-0.45,0.05
0.6,-0.49,0.02
0.71,-0.55,0.01
0.71,-0.58,0.01
0.7,-0.61,0.02
0.67,-0.64,0.07
0.67,-0.7,0.13
0.68,-0.78,0.15
0.62,-0.86,0.17
0.6,-0.92,0.19
0.64,-0.97,0.13
0.56,-1.05,0.03
0.49,-1.09,0.03
0.53,-1.17,-0.03
0.69,-1.25,0.04
0.86,-1.33,0.21
0.86,-1.53,0.24
0.83,-1.65,0.23
0.83,-1.63,0.22
0.75,-1.63,0.19
0.68,-1.69,0.18
0.69,-1.79,0.23
0.78,-1.94,0.22
0.88,-1.95,0.22
0.88,-1.89,0.23
0.84,-1.82,0.23
0.78,-1.68,0.26
0.72,-1.54,0.21
0.83,-1.59,0.12
0.85,-1.64,0.06
0.9,-1.56,0.05
0.93,-1.42,0.03
0.97,-1.31,-0.02
0.95,-1.23,-0.08
0.96,-1.16,-0.15
1.01,-1.08,-0.22
0.92,-1.05,-0.23
0.83,-1.06,-0.26
0.77,-1.09,-0.24
0.76,-1.08,-0.19
0.73,-1.04,-0.16
0.71,-0.97,-0.15
0.76,-0.89,-0.17
0.59,-0.9,0.18
0.1,-1.15,1.54
-0.24,-1.48,2.62
0.7,-1.11,1.8
1.67,-0.52,0
1.5,-0.49,-0.88
1.24,-0.59,-0.84
0.82,-0.72,-0.65
0.45,-0.74,-0.37
0.34,-0.7,-0.22
0.33,-0.7,-0.31
0.8,-0.69,-0.44
0.98,-0.67,-0.5
1.01,-0.64,-0.52
0.97,-0.6,-0.5
0.9,-0.55,-0.47
0.79,-0.53,-0.43
0.69,-0.53,-0.39
0.64,-0.56,-0.37
0.67,-0.63,-0.42
0.75,-0.69,-0.48
0.82,-0.71,-0.5
0.87,-0.71,-0.5
0.9,-0.72,-0.46
0.95,-0.73,-0.43
0.95,-0.76,-0.41
0.89,-0.82,-0.39
0.8,-0.9,-0.38
0.69,-0.97,-0.37
0.74,-0.98,-0.3
0.83,-0.97,-0.22
0.79,-1.02,-0.14
0.83,-1.08,-0.09
0.89,-1.13,-0.13
0.86,-1.17,-0.16
0.76,-1.23,-0.15
0.64,-1.28,-0.05
0.62,-1.42,0.01
0.56,-1.46,0.05
0.48,-1.46,0.11
0.45,-1.47,0.13
0.47,-1.49,0.12
0.53,-1.51,0.13
0.58,-1.5,0.15
0.48,-1.44,0.21
0.36,-1.39,0.28
0.31,-1.39,0.27
0.31,-1.36,0.29
0.33,-1.31,0.35
0.34,-1.28,0.4
0.28,-1.28,0.45
0.11,-1.29,0.53
-0.09,-1.29,0.62
-0.28,-1.28,0.67
-0.33,-1.29,0.62
-0.15,-1.29,0.54
0.13,-1.25,0.49
0.28,-1.13,0.42
0.36,-0.95,0.4
0.25,-0.88,0.47
0.12,-0.92,0.6
0.16,-0.89,0.62
0.26,-0.8,0.49
0.42,-0.73,0.37
0.55,-0.63,0.31
0.6,-0.56,0.27
0.68,-0.49,0.2
0.73,-0.38,0.23
0.69,-0.35,0.25
0.76,-0.31,0.31
0.77,-0.31,0.27
0.7,-0.48,0.12
0.7,-0.52,0.06
0.75,-0.47,-0.02
0.82,-0.48,-0.07
0.87,-0.45,-0.09
0.86,-0.41,-0.07
0.83,-0.42,0
0.78,-0.44,0.07
0.73,-0.47,0.12
0.67,-0.51,0.15
0.63,-0.56,0.17
0.6,-0.64,0.17
0.58,-0.7,0.16
0.57,-0.77,0.14
0.59,-0.87,0.1
0.62,-0.96,0.09
0.66,-1.03,0.12
0.68,-1.15,0.23
0.68,-1.33,0.22
0.62,-1.38,0.26
0.49,-1.38,0.28
0.46,-1.37,0.22
0.55,-1.47,0.22
0.59,-1.6,0.24
0.69,-1.64,0.25
0.72,-1.7,0.27
0.62,-1.77,0.3
0.59,-1.66,0.32
0.59,-1.56,0.33
0.52,-1.66,0.35
0.49,-1.7,0.42
0.56,-1.7,0.46
0.63,-1.62,0.48
0.59,-1.54,0.41
0.52,-1.45,0.31
0.49,-1.33,0.25
0.5,-1.26,0.2
0.53,-1.29,0.16
0.54,-1.4,0.16
0.55,-1.47,0.15
0.55,-1.44,0.16
0.59,-1.33,0.14
0.63,-1.18,0.15
0.58,-1.07,0.15
0.59,-0.89,0.01
0.69,-0.9,-0.07
0.72,-1,-0.08
0.73,-1.05,-0.06
0.73,-1.03,-0.04
0.69,-0.96,0.01
0.64,-0.88,0.05
0.62,-0.8,0.07
0.61,-0.73,0.06
0.64,-0.69,0.04
0.69,-0.7,0.02
0.74,-0.73,0.01
0.77,-0.73,0.03
0.76,-0.71,0.05
0.74,-0.68,0.09
0.74,-0.66,0.12
0.73,-0.65,0.16
0.7,-0.63,0.2
0.68,-0.62,0.21
0.69,-0.63,0.17
0.74,-0.66,0.12
0.79,-0.67,0.08
0.84,-0.68,0.02
0.89,-0.67,-0.02
0.93,-0.66,-0.02
0.92,-0.64,-0.01
0.84,-0.64,0.06
0.68,-0.68,0.07
0.58,-0.74,0.08
0.56,-0.81,0.03
0.6,-0.9,-0.06
0.68,-0.98,-0.11
0.78,-1.02,-0.09
0.85,-1.04,-0.01
0.88,-1.08,0.1
0.82,-1.14,0.2
0.66,-1.22,0.28
0.49,-1.31,0.34
0.4,-1.39,0.34
0.44,-1.47,0.29
0.55,-1.54,0.23
0.66,-1.55,0.19
0.73,-1.52,0.19
0.75,-1.49,0.21
0.72,-1.44,0.24
0.65,-1.4,0.26
0.6,-1.38,0.26
0.56,-1.38,0.29
0.53,-1.37,0.32
0.52,-1.33,0.34
0.55,-1.28,0.32
0.56,-1.24,0.32
0.54,-1.13,0.38
0.43,-1.07,0.41
0.35,-1.03,0.43
0.32,-1,0.45
0.3,-0.99,0.47
0.32,-0.98,0.47
0.37,-0.99,0.48
0.45,-1,0.5
0.54,-0.93,0.52
0.48,-0.86,0.49
0.36,-0.86,0.49
0.26,-0.81,0.55
0.1,-0.81,0.63
0.01,-0.83,0.69
0.05,-0.79,0.69
0.13,-0.73,0.66
0.22,-0.64,0.61
0.21,-0.59,0.53
0.14,-0.61,0.5
0.13,-0.56,0.48
0.24,-0.5,0.43
0.23,-0.55,0.46
0.23,-0.58,0.44
0.23,-0.59,0.38
0.21,-0.59,0.36
0.29,-0.58,0.35
0.33,-0.49,0.23
0.34,-0.44,0.22
0.33,-0.45,0.22
0.33,-0.49,0.24
0.31,-0.46,0.28
0.3,-0.46,0.31
0.29,-0.45,0.35
0.24,-0.44,0.4
0.2,-0.44,0.44
0.15,-0.45,0.51
0.12,-0.53,0.6
0.14,-0.59,0.69
0.12,-0.62,0.76
0.07,-0.6,0.81
0.01,-0.55,0.86
-0.09,-0.55,0.94
-0.21,-0.58,1.05
-0.29,-0.61,1.14
-0.3,-0.62,1.17
-0.28,-0.63,1.17
-0.23,-0.61,1.16
-0.19,-0.56,1.13
-0.16,-0.53,1.12
-0.18,-0.51,1.14
-0.2,-0.52,1.15
-0.23,-0.55,1.15
-0.24,-0.6,1.08
-0.2,-0.61,1.05
-0.17,-0.59,1.01
-0.14,-0.56,1
-0.13,-0.55,1
-0.13,-0.55,0.99
-0.13,-0.56,0.96
-0.14,-0.56,0.92
-0.14,-0.55,0.89
-0.13,-0.54,0.87
-0.12,-0.51,0.85
-0.11,-0.5,0.84
-0.08,-0.49,0.8
-0.08,-0.49,0.77
-0.11,-0.51,0.76
-0.17,-0.54,0.76
-0.2,-0.56,0.77
-0.18,-0.59,0.78
-0.13,-0.58,0.77
-0.08,-0.53,0.75
-0.03,-0.49,0.76
-0.03,-0.46,0.78
-0.04,-0.46,0.77
-0.07,-0.46,0.73
-0.11,-0.48,0.74
-0.14,-0.5,0.76
-0.16,-0.51,0.77
-0.1,-0.52,0.76
-0.03,-0.52,0.74
0.01,-0.51,0.71
0,-0.5,0.72
-0.02,-0.49,0.73
-0.03,-0.49,0.72
0.01,-0.5,0.69
0.04,-0.49,0.65
0.05,-0.5,0.63
0.04,-0.53,0.62
0.06,-0.55,0.6
0.08,-0.56,0.59
0.1,-0.59,0.58
0.14,-0.62,0.55
0.2,-0.62,0.51
0.25,-0.61,0.47
0.31,-0.61,0.47
0.36,-0.63,0.46
0.39,-0.65,0.4
0.44,-0.67,0.34
0.48,-0.73,0.32
0.49,-0.8,0.33
0.54,-0.85,0.33
0.58,-0.93,0.32
0.6,-0.99,0.3
0.59,-1.02,0.28
0.63,-1,0.26
0.7,-1.04,0.24
0.75,-1.17,0.21
0.79,-1.19,0.21
0.82,-1.2,0.22
0.81,-1.2,0.24
0.76,-1.12,0.25
0.77,-1.14,0.24
0.79,-1.11,0.24
0.82,-1.14,0.14
0.82,-1.2,0.11
0.76,-1.07,0.15
0.79,-1.04,0.11
0.78,-1.11,0.07
0.67,-1.2,0.07
0.73,-1.18,0.03
0.87,-1.12,-0.03
0.87,-1.17,-0.06
0.87,-1.19,-0.02
0.91,-1.12,-0.01
0.95,-1.06,-0.05
0.95,-1.01,-0.09
0.93,-0.95,-0.13
0.89,-0.98,-0.14
0.87,-1.02,-0.18
0.85,-1.05,-0.22
0.82,-1.02,-0.2
0.76,-0.99,-0.17
0.79,-0.95,-0.15
0.86,-0.87,-0.12
0.88,-0.82,-0.08
0.89,-0.8,-0.07
0.87,-0.81,-0.05
0.84,-0.8,-0.01
0.77,-0.77,0.03
0.69,-0.72,0.05
0.66,-0.67,0.07
0.68,-0.62,0.09
0.71,-0.57,0.11
0.73,-0.55,0.11
0.74,-0.54,0.11
0.76,-0.54,0.11
0.78,-0.55,0.12
0.78,-0.54,0.12
0.76,-0.53,0.13
0.75,-0.52,0.15
0.74,-0.5,0.15
0.72,-0.49,0.15
0.72,-0.49,0.14
0.7,-0.5,0.11
0.69,-0.51,0.06
0.7,-0.52,-0.06
0.75,-0.53,-0.09
0.75,-0.52,-0.1
0.74,-0.52,-0.09
0.65,-0.53,-0.03
0.47,-0.54,0.04
0.37,-0.61,0.06
0.33,-0.72,0.09
0.3,-0.86,0.1
0.37,-0.98,0.09
0.53,-1.13,0.09
0.7,-1.31,0.16
0.81,-1.43,0.3
0.86,-1.52,0.42
0.88,-1.63,0.45
0.85,-1.76,0.44
0.81,-1.85,0.43
0.78,-1.88,0.41
0.78,-1.88,0.39
0.8,-1.81,0.37
0.84,-1.71,0.34
0.83,-1.61,0.34
0.8,-1.52,0.37
0.75,-1.45,0.44
0.69,-1.41,0.52
0.66,-1.39,0.57
0.61,-1.37,0.65
0.51,-1.38,0.66
0.48,-1.36,0.67
0.48,-1.31,0.64
0.51,-1.24,0.57
0.56,-1.18,0.55
0.6,-1.1,0.58
0.61,-1,0.56
0.63,-0.88,0.51
0.64,-0.82,0.45
0.69,-0.76,0.34
0.79,-0.7,0.18
0.84,-0.68,0.05
0.89,-0.58,-0.06
0.92,-0.49,-0.24
0.93,-0.47,-0.39
0.93,-0.47,-0.45
0.91,-0.43,-0.5
0.79,-0.42,-0.54
0.79,-0.39,-0.58
0.85,-0.3,-0.64
0.78,-0.29,-0.69
0.76,-0.3,-0.68
0.74,-0.35,-0.64
0.66,-0.45,-0.55
0.6,-0.53,-0.42
0.6,-0.6,-0.32
0.62,-0.69,-0.24
0.65,-0.73,-0.21
0.69,-0.78,-0.18
0.71,-0.85,-0.11
0.77,-0.92,0.03
0.82,-1.03,0.07
0.81,-1.15,0.08
0.8,-1.18,0.12
0.77,-1.34,0.11
0.74,-1.39,0.22
0.69,-1.37,0.29
0.69,-1.42,0.26
0.78,-1.37,0.34
0.82,-1.45,0.36
0.78,-1.56,0.32
0.72,-1.63,0.31
0.73,-1.61,0.29
0.66,-1.64,0.27
0.66,-1.67,0.23
0.68,-1.65,0.26
0.67,-1.63,0.28
0.7,-1.53,0.28
0.73,-1.44,0.33
0.74,-1.38,0.36
0.69,-1.38,0.35
0.57,-1.44,0.34
0.57,-1.32,0.3
0.59,-1.34,0.29
0.68,-1.33,0.28
0.73,-1.29,0.29
0.7,-1.2,0.31
0.74,-1.09,0.26
0.8,-0.98,0.19
0.84,-0.95,0.13
0.83,-0.96,0.13
0.76,-0.95,0.18
0.69,-0.94,0.23
0.62,-0.88,0.26
0.59,-0.82,0.25
0.63,-0.78,0.23
0.7,-0.72,0.19
0.8,-0.65,0.11
0.85,-0.62,0.06
0.83,-0.59,0.03
0.77,-0.57,0.04
0.72,-0.56,0.06
0.71,-0.58,0.08
0.69,-0.61,0.09
0.69,-0.66,0.09
0.71,-0.69,0.07
0.73,-0.71,0.08
0.75,-0.7,0.08
0.77,-0.67,0.01
0.8,-0.67,-0.03
0.8,-0.67,-0.04
0.79,-0.67,-0.03
0.79,-0.69,-0.02
0.8,-0.72,-0.01
0.83,-0.76,-0.01
0.86,-0.8,-0.01
0.85,-0.82,0.01
0.84,-0.83,0.02
0.83,-0.85,0.03
0.8,-0.88,0.02
0.75,-0.9,0.02
0.76,-0.93,0.01
0.82,-0.98,0.01
0.9,-1.05,0.01
0.97,-1.12,0.03
1.01,-1.19,0.09
0.89,-1.28,0.17
0.7,-1.36,0.24
0.61,-1.42,0.32
0.59,-1.44,0.35
0.65,-1.44,0.3
0.78,-1.4,0.24
0.9,-1.36,0.2
0.94,-1.32,0.18
0.94,-1.31,0.15
0.77,-1.27,0.18
0.59,-1.2,0.23
0.47,-1.19,0.27
0.44,-1.24,0.3
0.49,-1.3,0.3
0.62,-1.32,0.31
0.69,-1.28,0.3
0.67,-1.21,0.32
0.62,-1.14,0.43
0.57,-1.08,0.57
0.49,-1.05,0.63
0.46,-1.05,0.58
0.49,-1.06,0.5
0.53,-1.06,0.44
0.6,-1.09,0.42
0.7,-1.08,0.41
0.73,-0.99,0.42
0.62,-0.88,0.47
0.54,-0.82,0.49
0.59,-0.66,0.46
0.54,-0.51,0.42
0.45,-0.47,0.33
0.54,-0.39,0.18
0.58,-0.42,0.03
0.62,-0.55,-0.01
0.69,-0.64,0.14
0.48,-0.51,0.31
0.34,-0.49,0.4
0.32,-0.5,0.26
0.36,-0.42,0.08
0.47,-0.36,0.05
0.67,-0.38,0.08
0.7,-0.42,0.04
0.61,-0.43,-0.09
0.63,-0.4,-0.28
0.74,-0.37,-0.32
0.7,-0.37,-0.15
0.56,-0.41,0.04
0.47,-0.46,0.13
0.42,-0.53,0.15
0.4,-0.57,0.19
0.38,-0.6,0.21
0.37,-0.67,0.22
0.36,-0.74,0.24
0.35,-0.77,0.23
0.38,-0.79,0.16
0.48,-0.78,0.1
0.55,-0.82,0.08
0.58,-0.94,0.11
0.64,-1.04,0.2
0.65,-1.09,0.32
0.64,-1.11,0.15
0.47,-1.48,0.01
0.53,-1.24,0.17
0.58,-1.18,0.2
0.66,-1.3,0.19
0.68,-1.42,0.18
0.77,-1.31,0.18
0.76,-1.31,0.23
0.71,-1.41,0.27
0.71,-1.38,0.26
0.65,-1.33,0.22
0.64,-1.26,0.22
0.73,-1.22,0.24
0.87,-1.17,0.25
0.9,-1.23,0.24
0.89,-1.26,0.2
0.91,-1.26,0.14
0.84,-1.25,0.13
0.71,-1.21,0.17
0.73,-1.13,0.14
0.76,-1.07,0.1
0.75,-1.08,0.08
0.84,-1.1,0.11
0.92,-1.15,0.17
0.86,-1.19,0.18
0.77,-1.16,0.14
0.76,-1.1,0.02
0.63,-0.98,0
0.52,-0.92,0.01
0.48,-0.88,-0.03
0.46,-0.85,-0.05
0.49,-0.86,-0.14
0.57,-0.92,-0.27
0.59,-0.98,-0.28
0.62,-0.97,-0.22
0.64,-0.88,-0.15
0.68,-0.79,-0.11
0.76,-0.77,-0.14
0.85,-0.79,-0.17
0.91,-0.8,-0.15
0.94,-0.81,-0.12
0.91,-0.79,-0.08
0.87,-0.75,-0.04
0.85,-0.71,-0.02
0.84,-0.69,0
0.85,-0.69,0.01
0.9,-0.69,0.01
0.97,-0.7,-0.01
1.03,-0.71,-0.01
1.05,-0.68,0
1.04,-0.66,0.02
1.01,-0.67,0.03
0.97,-0.7,0.01
0.89,-0.78,0
0.84,-0.82,-0.02
0.79,-0.85,-0.03
0.76,-0.89,-0.05
0.75,-0.92,-0.07
0.77,-0.97,-0.11
0.84,-1.03,-0.16
0.87,-1.09,-0.2
0.84,-1.13,-0.24
0.79,-1.17,-0.24
0.69,-1.21,-0.2
0.58,-1.22,-0.12
0.5,-1.22,-0.06
0.48,-1.26,-0.04
0.51,-1.29,-0.05
0.59,-1.3,-0.08
0.65,-1.31,-0.09
0.66,-1.32,-0.08
0.59,-1.31,-0.02
0.5,-1.3,0.05
0.47,-1.32,0.09
0.47,-1.32,0.1
0.47,-1.29,0.12
0.49,-1.27,0.13
0.52,-1.25,0.11
0.54,-1.22,0.13
0.58,-1.26,0.17
0.57,-1.28,0.21
0.58,-1.28,0.25
0.57,-1.25,0.32
0.56,-1.19,0.35
0.6,-1.13,0.35
0.65,-1.11,0.38
0.67,-1.09,0.44
0.63,-1.05,0.52
0.48,-1.02,0.58
0.37,-1.02,0.58
0.35,-1,0.58
0.42,-0.97,0.6
0.48,-0.96,0.6
0.49,-0.93,0.56
0.45,-0.86,0.52
0.41,-0.81,0.46
0.53,-0.82,0.39
0.68,-0.84,0.34
0.81,-0.86,0.32
0.92,-0.79,0.29
0.91,-0.61,0.24
0.77,-0.54,0.21
0.54,-0.59,0.2
0.43,-0.5,0.25
0.46,-0.48,0.34
0.66,-0.47,0.26
0.74,-0.37,0.14
0.65,-0.29,0.06
0.51,-0.28,0
0.42,-0.32,-0.02
0.37,-0.33,0
0.44,-0.35,-0.01
0.54,-0.37,-0.05
0.59,-0.41,-0.08
0.59,-0.45,-0.09
0.53,-0.48,-0.08
0.48,-0.49,-0.06
0.48,-0.48,-0.01
0.5,-0.48,0.05
0.51,-0.48,0.09
0.52,-0.51,0.11
0.56,-0.57,0.11
0.59,-0.67,0.09
0.63,-0.76,0.08
0.65,-0.84,0.1
0.63,-0.93,0.1
0.62,-0.94,0.09
0.6,-0.92,0.12
0.58,-0.99,0.13
0.66,-1.07,0.14
0.69,-1.16,0.2
0.68,-1.36,0.15
0.64,-1.39,0.17
0.67,-1.27,0.17
0.72,-1.21,0.14
0.77,-1.24,0.18
0.75,-1.38,0.19
0.8,-1.43,0.18
0.88,-1.41,0.24
0.86,-1.47,0.28
0.79,-1.48,0.28
0.68,-1.51,0.23
0.62,-1.47,0.18
0.65,-1.43,0.18
0.75,-1.38,0.15
0.8,-1.35,0.13
0.84,-1.33,0.13
0.89,-1.32,0.13
0.86,-1.4,0.16
0.79,-1.47,0.24
0.82,-1.42,0.29
0.76,-1.38,0.25
0.75,-1.3,0.16
0.8,-1.18,0.1
0.76,-1.13,0.06
0.78,-1.07,0.03
0.78,-1.02,0.03
0.75,-0.98,0.09
0.69,-0.97,0.12
0.68,-0.97,0.18
0.65,-0.95,0.23
0.62,-0.9,0.23
0.61,-0.85,0.23
0.61,-0.82,0.2
0.63,-0.81,0.18
0.68,-0.81,0.18
0.71,-0.81,0.19
0.7,-0.8,0.22
0.71,-0.78,0.24
0.72,-0.78,0.24
0.71,-0.79,0.23
0.69,-0.78,0.23
0.66,-0.76,0.22
0.64,-0.74,0.21
0.62,-0.73,0.2
0.63,-0.72,0.19
0.67,-0.72,0.18
0.7,-0.73,0.16
0.73,-0.75,0.14
0.75,-0.78,0.13
0.72,-0.8,0.12
0.68,-0.83,0.13
0.66,-0.87,0.16
0.63,-1,0.17
0.65,-1.04,0.14
0.7,-1.06,0.1
0.73,-1.08,0.08
0.74,-1.1,0.1
0.73,-1.13,0.11
0.72,-1.2,0.12
0.69,-1.28,0.12
0.7,-1.36,0.12
0.71,-1.46,0.15
0.7,-1.54,0.17
0.69,-1.59,0.2
0.69,-1.62,0.22
0.73,-1.62,0.23
0.8,-1.59,0.22
0.85,-1.54,0.2
0.86,-1.5,0.19
0.78,-1.48,0.23
0.68,-1.49,0.28
0.58,-1.49,0.35
0.47,-1.49,0.44
0.42,-1.5,0.53
0.43,-1.52,0.6
0.5,-1.58,0.62
0.62,-1.65,0.56
0.8,-1.6,0.47
1,-1.42,0.44
0.72,-1.11,0.55
0.5,-1.12,0.58
0.32,-1.13,0.58
0.31,-1.05,0.55
0.25,-1,0.55
0.3,-0.96,0.54
0.43,-0.92,0.44
0.42,-0.83,0.39
0.41,-0.74,0.4
0.49,-0.59,0.46
0.48,-0.48,0.45
0.4,-0.48,0.34
0.35,-0.46,0.25
0.23,-0.54,0.22
0.21,-0.6,0.16
0.31,-0.57,0.04
0.38,-0.52,-0.09
0.51,-0.47,-0.24
0.56,-0.37,-0.34
0.46,-0.29,-0.34
0.44,-0.27,-0.31
0.51,-0.3,-0.32
0.6,-0.34,-0.33
0.68,-0.38,-0.35
0.65,-0.42,-0.34
0.57,-0.44,-0.21
0.44,-0.48,-0.12
0.39,-0.5,-0.02
0.39,-0.52,0.05
0.44,-0.54,0.08
0.5,-0.57,0.11
0.55,-0.62,0.16
0.57,-0.69,0.24
0.59,-0.77,0.31
0.6,-0.84,0.35
0.61,-0.9,0.38
0.6,-0.97,0.38
0.6,-1.1,0.37
0.54,-1.09,0.45
0.54,-1.13,0.45
0.6,-1.35,0.39
0.66,-1.42,0.43
0.69,-1.45,0.42
0.7,-1.56,0.37
0.76,-1.63,0.35
0.79,-1.68,0.35
0.77,-1.78,0.35
0.76,-1.73,0.4
0.76,-1.68,0.41
0.72,-1.75,0.38
0.57,-1.91,0.3
0.64,-1.74,0.34
0.62,-1.66,0.31
0.61,-1.7,0.26
0.71,-1.54,0.23
0.71,-1.51,0.21
0.73,-1.53,0.21
0.75,-1.47,0.21
0.75,-1.4,0.17
0.76,-1.4,0.15
0.75,-1.46,0.14
0.75,-1.46,0.13
0.76,-1.39,0.12
0.69,-1.35,0.14
0.61,-1.3,0.17
0.62,-1.18,0.19
0.64,-1.05,0.16
0.6,-0.95,0.13
0.57,-0.88,0.11
0.53,-0.87,0.07
0.51,-0.88,0.04
0.51,-0.9,0.06
0.56,-0.87,0.09
0.24,-0.88,0.5
-2.06,-0.88,2.4
-1.48,-1.45,2.16
1.38,-1.44,0.08
1.79,-0.56,-0.18
0.99,-0.68,0.09
0.81,-0.83,0.1
0.42,-0.84,0.13
0.38,-0.83,0.1
0.45,-0.81,0.06
0.53,-0.82,0.04
0.65,-0.83,0.02
0.78,-0.85,0.04
0.86,-0.88,0.04
0.89,-0.9,0.04
0.89,-0.88,0.03
0.89,-0.86,0.02
0.86,-0.87,0.04
0.8,-0.9,0.07
0.76,-0.95,0.07
0.75,-1.05,0.09
0.76,-1.19,0.17
0.8,-1.31,0.24
0.84,-1.41,0.26
0.83,-1.47,0.29
0.83,-1.5,0.29
0.88,-1.53,0.26
0.9,-1.53,0.24
0.91,-1.54,0.23
0.89,-1.55,0.24
0.8,-1.56,0.33
0.6,-1.64,0.41
0.51,-1.66,0.47
0.5,-1.62,0.47
0.53,-1.58,0.41
0.55,-1.54,0.36
0.52,-1.5,0.38
0.48,-1.46,0.39
0.44,-1.49,0.35
0.35,-1.55,0.31
0.29,-1.59,0.31
0.29,-1.61,0.31
0.31,-1.53,0.24
0.35,-1.4,0.17
0.4,-1.36,0.21
0.51,-1.29,0.25
0.47,-1.2,0.25
0.32,-1.12,0.27
0.24,-0.93,0.28
0.23,-0.77,0.27
0.27,-0.73,0.28
0.29,-0.74,0.3
0.31,-0.68,0.36
0.42,-0.58,0.32
0.48,-0.49,0.26
0.51,-0.38,0.26
0.57,-0.34,0.21
0.64,-0.4,0.11
0.72,-0.45,0.01
0.79,-0.48,-0.09
0.81,-0.5,-0.12
0.81,-0.51,-0.14
0.78,-0.49,-0.14
0.75,-0.44,-0.12
0.75,-0.42,-0.1
0.77,-0.43,-0.09
0.82,-0.46,-0.09
0.85,-0.49,-0.08
0.83,-0.53,-0.05
0.78,-0.58,-0.01
0.74,-0.63,0.03
0.7,-0.68,0.07
0.66,-0.74,0.11
0.64,-0.8,0.14
0.63,-0.87,0.17
0.64,-0.91,0.17
0.67,-0.98,0.2
0.7,-1.08,0.23
0.65,-1.21,0.29
0.57,-1.22,0.39
0.54,-1.32,0.33
0.5,-1.52,0.27
0.5,-1.4,0.38
0.6,-1.76,0.25
0.47,-1.61,0.37
0.56,-1.56,0.33
0.54,-1.64,0.32
0.51,-1.65,0.35
0.5,-1.73,0.31
0.55,-1.75,0.31
0.53,-1.72,0.29
0.49,-1.71,0.26
0.48,-1.64,0.25
0.45,-1.56,0.24
0.4,-1.51,0.23
0.39,-1.43,0.23
0.4,-1.36,0.23
0.44,-1.33,0.23
0.49,-1.36,0.2
0.52,-1.42,0.18
0.52,-1.45,0.19
0.47,-1.41,0.2
0.44,-1.34,0.22
0.41,-1.19,0.26
0.36,-1.06,0.26
0.35,-0.99,0.23
0.34,-0.89,0.2
0.32,-0.82,0.18
0.33,-0.76,0.18
0.34,-0.73,0.07
0.41,-0.72,0.07
0.39,-0.69,0.1
0.44,-0.65,0.1
0.44,-0.7,0.06
0.35,-0.75,0.1
0.35,-0.67,0.17
0.44,-0.62,0.06
0.38,-0.65,0
0.32,-0.68,0.06
0.38,-0.64,0.05
0.36,-0.61,0.05
0.27,-0.67,0.1
0.25,-0.7,0.16
0.52,-0.79,-0.06
0.72,-0.85,-0.01
0.78,-0.81,0.45
0.85,-0.8,0.66
0.76,-0.82,0.78
0.62,-0.87,0.97
0.52,-0.86,1.21
0.53,-0.8,1.39
0.47,-0.79,1.49
0.42,-0.75,1.46
0.37,-0.68,1.33
0.31,-0.66,1.19
0.3,-0.58,0.88
0.33,-0.56,0.78
0.38,-0.54,0.72
0.44,-0.52,0.69
0.51,-0.5,0.67
0.58,-0.49,0.64
0.64,-0.48,0.6
0.69,-0.47,0.57
0.73,-0.46,0.56
0.75,-0.45,0.55
0.77,-0.44,0.54
0.79,-0.44,0.53
0.8,-0.44,0.54
0.81,-0.44,0.54
0.81,-0.44,0.54
0.8,-0.44,0.55
0.77,-0.43,0.55
0.75,-0.42,0.55
0.73,-0.43,0.56
0.71,-0.43,0.58
0.7,-0.44,0.59
0.69,-0.44,0.6
0.69,-0.44,0.6
0.69,-0.44,0.59
0.69,-0.44,0.58
0.7,-0.44,0.58
0.7,-0.44,0.57
0.71,-0.43,0.56
0.7,-0.42,0.55
0.7,-0.42,0.55
0.71,-0.4,0.55
0.72,-0.4,0.56
0.73,-0.4,0.57
0.73,-0.4,0.58
0.73,-0.4,0.59
0.71,-0.4,0.59
0.7,-0.4,0.57
0.68,-0.4,0.57
0.69,-0.4,0.59
0.72,-0.41,0.6
0.72,-0.41,0.61
0.71,-0.42,0.62
0.71,-0.43,0.61
0.71,-0.44,0.6
0.71,-0.44,0.59
0.72,-0.45,0.6
0.71,-0.45,0.61
0.71,-0.46,0.61
0.72,-0.47,0.6
0.71,-0.46,0.58
0.7,-0.46,0.56
0.68,-0.46,0.55
0.68,-0.46,0.53
0.7,-0.46,0.53
0.71,-0.48,0.53
0.72,-0.48,0.53
0.71,-0.48,0.53
0.71,-0.51,0.54
0.7,-0.52,0.54
0.7,-0.53,0.53
0.71,-0.53,0.53
0.72,-0.52,0.52
0.72,-0.54,0.51
0.72,-0.54,0.52
0.72,-0.52,0.52
0.7,-0.53,0.52
0.67,-0.54,0.5
0.66,-0.53,0.5
0.67,-0.52,0.51
0.7,-0.52,0.51
0.73,-0.54,0.51
0.75,-0.54,0.51
0.74,-0.53,0.51
0.75,-0.53,0.49
0.74,-0.52,0.49
0.73,-0.55,0.47
0.7,-0.54,0.47
0.67,-0.47,0.49
0.69,-0.54,0.49
0.81,-0.55,0.51
0.81,-0.55,0.5
0.79,-0.56,0.48
0.77,-0.56,0.48
0.75,-0.54,0.47
0.71,-0.56,0.44
0.68,-0.57,0.43
0.69,-0.56,0.44
0.71,-0.56,0.46
0.74,-0.58,0.48
0.76,-0.59,0.48
0.76,-0.59,0.48
0.73,-0.59,0.47
0.71,-0.58,0.47
0.69,-0.58,0.48
0.68,-0.59,0.47
0.68,-0.58,0.47
0.68,-0.58,0.47
0.68,-0.59,0.48
0.69,-0.59,0.48
0.71,-0.58,0.48
0.73,-0.58,0.48
0.73,-0.59,0.48
0.72,-0.58,0.47
0.72,-0.57,0.47
0.71,-0.57,0.46
0.7,-0.56,0.46
0.7,-0.55,0.46
0.7,-0.56,0.46
0.71,-0.57,0.47
0.72,-0.56,0.48
0.73,-0.57,0.49
0.73,-0.57,0.49
0.73,-0.56,0.49
0.72,-0.55,0.49
0.71,-0.52,0.49
0.71,-0.54,0.49
0.71,-0.56,0.48
0.71,-0.54,0.49
0.71,-0.54,0.49
0.71,-0.53,0.49
0.71,-0.53,0.49
0.71,-0.54,0.49
0.72,-0.54,0.5
0.71,-0.55,0.51
0.71,-0.55,0.5
0.7,-0.54,0.49
0.69,-0.54,0.48
0.7,-0.54,0.48
0.72,-0.53,0.49
0.73,-0.53,0.49
0.75,-0.54,0.5
0.74,-0.54,0.49
0.73,-0.54,0.49
0.71,-0.54,0.48
0.7,-0.55,0.48
0.69,-0.55,0.48
0.69,-0.54,0.48
0.7,-0.54,0.48
0.7,-0.54,0.48
0.71,-0.54,0.48
0.72,-0.53,0.48
0.72,-0.54,0.48
0.71,-0.55,0.48
0.71,-0.55,0.48
0.7,-0.55,0.48
0.7,-0.55,0.49
0.72,-0.56,0.5
0.73,-0.56,0.5
0.72,-0.55,0.5
0.71,-0.54,0.5
0.71,-0.54,0.49
0.71,-0.53,0.49
0.71,-0.53,0.49
0.72,-0.54,0.49
0.73,-0.53,0.49
0.73,-0.53,0.49
0.73,-0.53,0.49
0.72,-0.52,0.49
0.72,-0.52,0.49
0.71,-0.53,0.49
0.71,-0.53,0.49
0.71,-0.53,0.48
0.71,-0.53,0.48
0.71,-0.54,0.48
0.72,-0.55,0.49
0.72,-0.55,0.49
0.72,-0.54,0.49
0.72,-0.55,0.48
0.72,-0.54,0.48
0.71,-0.53,0.49
0.7,-0.54,0.49
0.71,-0.55,0.49
0.71,-0.53,0.5
0.72,-0.53,0.5
0.72,-0.53,0.5
0.73,-0.53,0.5
0.72,-0.53,0.5
0.72,-0.52,0.5
0.71,-0.54,0.5
0.71,-0.55,0.5
0.71,-0.53,0.5
0.71,-0.53,0.5
0.71,-0.54,0.5
0.72,-0.54,0.49
0.72,-0.54,0.49
0.72,-0.55,0.49
0.72,-0.55,0.49
0.72,-0.54,0.49
0.72,-0.54,0.49
0.71,-0.52,0.49
0.71,-0.53,0.49
0.72,-0.55,0.5
0.72,-0.53,0.5
0.72,-0.53,0.49
0.72,-0.53,0.49
0.72,-0.54,0.5
0.72,-0.54,0.5
0.71,-0.54,0.49
0.71,-0.54,0.49
0.72,-0.54,0.49
0.72,-0.54,0.49
0.72,-0.54,0.5
0.72,-0.54,0.5
0.73,-0.54,0.5
0.73,-0.54,0.5
0.72,-0.54,0.5
0.73,-0.54,0.5
0.72,-0.54,0.5
0.72,-0.54,0.49
0.72,-0.54,0.49
0.72,-0.54,0.5
0.72,-0.54,0.49
0.72,-0.53,0.49
0.72,-0.53,0.49
0.73,-0.53,0.49
