Acc_x,Acc_y,Acc_z
1.13,-0.39,0.65
1.12,-0.39,0.65
1.1,-0.38,0.66
1.09,-0.38,0.67
1.08,-0.38,0.67
1.07,-0.38,0.68
1.04,-0.38,0.68
1.03,-0.38,0.69
1.02,-0.39,0.7
1.02,-0.39,0.71
1,-0.38,0.71
0.98,-0.38,0.7
0.97,-0.37,0.69
0.97,-0.36,0.68
0.95,-0.36,0.66
0.93,-0.36,0.67
0.9,-0.34,0.7
0.89,-0.32,0.71
0.88,-0.32,0.72
0.86,-0.27,0.74
0.84,-0.26,0.75
0.82,-0.26,0.77
0.8,-0.24,0.78
0.79,-0.24,0.78
0.78,-0.23,0.77
0.77,-0.22,0.77
0.76,-0.22,0.78
0.73,-0.22,0.79
0.71,-0.2,0.8
0.7,-0.19,0.79
0.69,-0.18,0.8
0.69,-0.17,0.82
0.68,-0.15,0.83
0.66,-0.14,0.83
0.64,-0.11,0.83
0.62,-0.09,0.8
0.6,-0.08,0.78
0.6,-0.07,0.77
0.59,-0.07,0.79
0.58,-0.06,0.79
0.57,-0.05,0.78
0.55,-0.03,0.78
0.53,0,0.77
0.51,0.03,0.76
0.49,0.05,0.74
0.47,0.07,0.73
0.46,0.07,0.72
0.46,0.08,0.72
0.45,0.09,0.71
0.43,0.1,0.7
0.42,0.12,0.69
0.41,0.13,0.69
0.4,0.14,0.68
0.39,0.16,0.67
0.39,0.17,0.66
0.4,0.19,0.66
0.39,0.21,0.66
0.39,0.23,0.66
0.38,0.24,0.65
0.36,0.25,0.64
0.34,0.27,0.63
0.34,0.3,0.62
0.34,0.31,0.62
0.35,0.32,0.63
0.35,0.33,0.62
0.34,0.34,0.6
0.34,0.33,0.58
0.34,0.33,0.55
0.34,0.34,0.53
0.36,0.36,0.51
0.37,0.36,0.5
0.38,0.36,0.49
0.39,0.37,0.47
0.38,0.38,0.45
0.39,0.39,0.44
0.4,0.39,0.42
0.42,0.39,0.41
0.45,0.38,0.41
0.46,0.37,0.4
0.45,0.35,0.4
0.45,0.35,0.38
0.48,0.37,0.33
0.5,0.35,0.31
0.54,0.36,0.3
0.57,0.37,0.3
0.59,0.37,0.3
0.6,0.36,0.3
0.61,0.35,0.31
0.62,0.32,0.32
0.65,0.29,0.32
0.68,0.27,0.32
0.7,0.27,0.33
0.72,0.27,0.34
0.75,0.27,0.35
0.79,0.25,0.33
0.81,0.23,0.3
0.81,0.21,0.29
0.81,0.16,0.29
0.84,0.14,0.3
0.87,0.15,0.32
0.89,0.18,0.33
0.91,0.18,0.33
0.92,0.16,0.35
0.92,0.11,0.37
0.92,0.08,0.38
0.93,0.05,0.38
0.94,0.04,0.38
0.95,0.03,0.39
0.95,0.04,0.39
0.95,0.05,0.39
0.95,0.03,0.4
0.94,0,0.43
0.94,-0.04,0.47
0.94,-0.05,0.49
0.96,-0.06,0.5
0.97,-0.07,0.5
0.97,-0.08,0.5
0.95,-0.1,0.49
0.92,-0.12,0.48
0.88,-0.14,0.45
0.87,-0.15,0.41
0.89,-0.18,0.4
0.94,-0.21,0.43
0.98,-0.23,0.52
0.96,-0.24,0.53
0.95,-0.26,0.48
0.96,-0.27,0.41
0.95,-0.27,0.36
0.95,-0.28,0.36
0.97,-0.29,0.41
0.99,-0.32,0.48
1.01,-0.34,0.53
1.01,-0.36,0.56
1,-0.36,0.54
0.98,-0.36,0.51
0.97,-0.36,0.46
0.99,-0.38,0.42
1.01,-0.4,0.45
1.04,-0.42,0.51
1.04,-0.43,0.57
1.02,-0.44,0.61
1.01,-0.45,0.61
0.99,-0.45,0.59
0.97,-0.45,0.56
0.97,-0.45,0.52
1,-0.45,0.5
1.01,-0.47,0.52
1.01,-0.48,0.56
1.01,-0.48,0.58
1,-0.47,0.57
1.01,-0.46,0.55
1,-0.45,0.53
0.99,-0.46,0.52
0.98,-0.47,0.51
0.97,-0.47,0.49
0.98,-0.48,0.49
0.99,-0.49,0.51
0.98,-0.49,0.52
0.97,-0.49,0.51
0.96,-0.49,0.52
0.96,-0.49,0.51
0.95,-0.48,0.5
0.94,-0.48,0.48
0.94,-0.47,0.46
0.94,-0.48,0.44
0.95,-0.49,0.45
0.97,-0.5,0.47
0.97,-0.49,0.48
0.96,-0.48,0.47
0.97,-0.49,0.46
0.96,-0.52,0.45
0.95,-0.5,0.47
0.96,-0.48,0.48
0.96,-0.49,0.5
0.96,-0.49,0.51
0.96,-0.48,0.51
0.98,-0.47,0.52
0.98,-0.47,0.53
0.98,-0.46,0.54
0.98,-0.45,0.55
0.98,-0.44,0.56
0.98,-0.44,0.57
0.98,-0.45,0.58
0.99,-0.46,0.57
0.99,-0.46,0.57
0.99,-0.45,0.56
0.99,-0.44,0.56
0.99,-0.44,0.57
0.98,-0.46,0.59
0.96,-0.46,0.6
0.96,-0.47,0.59
0.97,-0.46,0.58
0.97,-0.46,0.59
0.97,-0.46,0.61
0.96,-0.46,0.62
0.95,-0.46,0.63
0.93,-0.45,0.64
0.93,-0.43,0.63
0.93,-0.42,0.64
0.93,-0.41,0.65
0.92,-0.42,0.68
0.92,-0.43,0.71
0.85,-0.42,0.71
0.87,-0.4,0.7
0.88,-0.38,0.7
0.9,-0.34,0.72
0.87,-0.35,0.74
0.8,-0.39,0.75
0.8,-0.37,0.76
0.82,-0.34,0.75
0.8,-0.33,0.75
0.77,-0.32,0.75
0.76,-0.29,0.75
0.74,-0.27,0.76
0.72,-0.26,0.76
0.7,-0.24,0.75
0.68,-0.23,0.75
0.66,-0.21,0.75
0.65,-0.19,0.74
0.65,-0.17,0.72
0.65,-0.16,0.72
0.64,-0.15,0.71
0.62,-0.13,0.71
0.61,-0.11,0.7
0.6,-0.08,0.7
0.58,-0.05,0.69
0.56,-0.04,0.69
0.55,0,0.7
0.53,0.02,0.68
0.51,0.02,0.67
0.51,0.03,0.65
0.51,0.04,0.64
0.51,0.06,0.64
0.51,0.08,0.64
0.5,0.1,0.63
0.49,0.12,0.62
0.49,0.13,0.61
0.48,0.15,0.59
0.47,0.16,0.57
0.46,0.18,0.55
0.46,0.19,0.54
0.46,0.21,0.54
0.45,0.23,0.54
0.43,0.24,0.54
0.43,0.25,0.54
0.44,0.25,0.52
0.45,0.26,0.52
0.44,0.29,0.53
0.44,0.3,0.52
0.43,0.3,0.52
0.43,0.31,0.52
0.47,0.32,0.52
0.48,0.33,0.51
0.48,0.34,0.49
0.49,0.34,0.47
0.49,0.34,0.47
0.47,0.35,0.45
0.49,0.37,0.42
0.51,0.39,0.4
0.5,0.38,0.4
0.49,0.38,0.4
0.51,0.38,0.37
0.51,0.37,0.36
0.51,0.37,0.35
0.48,0.39,0.34
0.48,0.41,0.33
0.55,0.43,0.29
0.58,0.41,0.26
0.6,0.38,0.24
0.62,0.36,0.22
0.61,0.36,0.2
0.61,0.36,0.19
0.63,0.37,0.18
0.66,0.36,0.15
0.68,0.33,0.14
0.69,0.32,0.12
0.69,0.29,0.1
0.69,0.27,0.09
0.7,0.26,0.08
0.7,0.24,0.04
0.73,0.23,0.02
0.74,0.21,0.02
0.75,0.19,0.02
0.77,0.18,0.01
0.79,0.17,0.02
0.82,0.15,0.03
0.84,0.12,0.02
0.84,0.1,0
0.86,0.08,-0.01
0.89,0.06,-0.01
0.91,0.04,0
0.94,0.05,0.01
0.95,0.06,0.03
0.96,0.03,0.05
0.95,-0.03,0.07
0.94,-0.08,0.08
0.98,-0.11,0.06
1.02,-0.12,0.06
1.06,-0.14,0.1
1.11,-0.14,0.15
1.14,-0.15,0.16
1.16,-0.15,0.15
1.17,-0.16,0.14
1.14,-0.18,0.09
1.12,-0.23,0.09
1.15,-0.31,0.19
1.21,-0.34,0.24
1.23,-0.36,0.28
1.18,-0.4,0.3
1.12,-0.41,0.3
1.17,-0.41,0.32
1.22,-0.44,0.34
1.23,-0.46,0.35
1.24,-0.47,0.37
1.25,-0.48,0.38
1.25,-0.49,0.39
1.23,-0.5,0.41
1.22,-0.55,0.47
1.23,-0.59,0.53
1.24,-0.61,0.57
1.24,-0.58,0.57
1.24,-0.54,0.54
1.21,-0.56,0.53
1.18,-0.6,0.55
1.2,-0.62,0.57
1.23,-0.67,0.62
1.24,-0.69,0.66
1.23,-0.67,0.67
1.22,-0.67,0.65
1.19,-0.65,0.65
1.15,-0.64,0.71
1.13,-0.65,0.74
1.11,-0.66,0.74
1.1,-0.68,0.76
1.07,-0.68,0.78
1.05,-0.68,0.79
1.03,-0.66,0.79
1.03,-0.63,0.79
1.05,-0.65,0.77
0.99,-0.66,0.81
0.92,-0.62,0.86
0.91,-0.62,0.86
0.95,-0.63,0.87
0.9,-0.65,0.88
0.82,-0.63,0.88
0.82,-0.58,0.85
0.83,-0.59,0.85
0.81,-0.58,0.86
0.8,-0.56,0.86
0.8,-0.54,0.86
0.79,-0.53,0.86
0.77,-0.52,0.86
0.76,-0.51,0.87
0.76,-0.5,0.9
0.75,-0.48,0.9
0.74,-0.45,0.9
0.72,-0.4,0.92
0.7,-0.4,0.91
0.64,-0.38,0.92
0.62,-0.38,0.92
0.6,-0.36,0.91
0.59,-0.34,0.91
0.58,-0.32,0.91
0.56,-0.31,0.89
0.55,-0.29,0.87
0.53,-0.28,0.85
0.51,-0.26,0.84
0.49,-0.23,0.83
0.46,-0.21,0.82
0.44,-0.18,0.81
0.4,-0.15,0.79
0.38,-0.13,0.78
0.38,-0.1,0.76
0.38,-0.07,0.75
0.37,-0.05,0.74
0.37,-0.02,0.72
0.37,-0.01,0.7
0.35,0.01,0.68
0.33,0.02,0.67
0.31,0.03,0.65
0.32,0.07,0.64
0.33,0.1,0.64
0.3,0.13,0.66
0.28,0.12,0.62
0.32,0.11,0.57
0.35,0.14,0.55
0.32,0.17,0.53
0.3,0.21,0.47
0.32,0.25,0.45
0.33,0.25,0.45
0.34,0.26,0.43
0.33,0.28,0.43
0.32,0.33,0.41
0.34,0.37,0.39
0.36,0.38,0.38
0.36,0.38,0.36
0.37,0.38,0.32
0.36,0.37,0.31
0.32,0.37,0.29
0.34,0.38,0.26
0.38,0.37,0.25
0.36,0.34,0.23
0.3,0.33,0.18
0.26,0.34,0.15
0.26,0.34,0.17
0.28,0.36,0.17
0.36,0.41,0.14
0.37,0.45,0.1
0.34,0.43,0.11
0.34,0.35,0.09
0.39,0.32,0.07
0.47,0.3,0.02
0.51,0.3,0.02
0.52,0.34,-0.07
0.54,0.34,-0.13
0.58,0.31,-0.09
0.61,0.29,-0.1
0.65,0.21,-0.11
0.66,0.16,-0.11
0.66,0.15,-0.13
0.7,0.12,-0.15
0.73,0.11,-0.17
0.76,0.12,-0.21
0.79,0.09,-0.23
0.8,0.02,-0.22
0.82,-0.05,-0.21
0.86,-0.1,-0.19
0.9,-0.13,-0.16
0.97,-0.12,-0.14
1.03,-0.1,-0.13
1.05,-0.12,-0.13
1.06,-0.17,-0.13
1.08,-0.24,-0.14
1.13,-0.3,-0.11
1.19,-0.33,-0.03
1.25,-0.39,0.08
1.28,-0.4,0.06
1.25,-0.39,0.03
1.24,-0.37,0.03
1.28,-0.37,0.03
1.35,-0.37,0.04
1.39,-0.38,0.04
1.41,-0.42,0.04
1.42,-0.44,0.05
1.4,-0.46,0.06
1.38,-0.47,0.07
1.38,-0.46,0.08
1.38,-0.45,0.1
1.38,-0.44,0.13
1.39,-0.43,0.17
1.43,-0.44,0.2
1.45,-0.45,0.22
1.44,-0.46,0.24
1.42,-0.48,0.28
1.39,-0.5,0.3
1.36,-0.52,0.31
1.35,-0.54,0.31
1.35,-0.58,0.31
1.34,-0.61,0.33
1.33,-0.63,0.38
1.34,-0.64,0.43
1.35,-0.61,0.43
1.34,-0.6,0.41
1.35,-0.6,0.39
1.36,-0.61,0.4
1.36,-0.62,0.43
1.35,-0.64,0.46
1.34,-0.64,0.47
1.33,-0.64,0.49
1.3,-0.62,0.5
1.28,-0.59,0.51
1.26,-0.59,0.52
1.24,-0.61,0.54
1.25,-0.64,0.56
1.24,-0.65,0.55
1.21,-0.66,0.53
1.19,-0.66,0.54
1.18,-0.64,0.55
1.15,-0.64,0.58
1.12,-0.65,0.62
1.12,-0.64,0.64
1.11,-0.64,0.63
1.08,-0.64,0.63
1.07,-0.62,0.64
1.07,-0.6,0.64
1.05,-0.59,0.66
1.03,-0.58,0.69
1.01,-0.6,0.74
0.95,-0.6,0.74
0.91,-0.57,0.74
0.87,-0.54,0.74
0.85,-0.51,0.73
0.83,-0.47,0.73
0.79,-0.44,0.76
0.76,-0.42,0.79
0.72,-0.41,0.79
0.68,-0.39,0.77
0.65,-0.36,0.76
0.63,-0.34,0.74
0.61,-0.32,0.71
0.58,-0.28,0.69
0.55,-0.23,0.67
0.52,-0.19,0.66
0.51,-0.17,0.65
0.51,-0.16,0.64
0.5,-0.15,0.62
0.48,-0.12,0.62
0.47,-0.09,0.61
0.48,-0.07,0.58
0.49,-0.06,0.55
0.49,-0.03,0.52
0.48,0.01,0.51
0.48,0.04,0.51
0.49,0.1,0.51
0.47,0.13,0.5
0.49,0.17,0.48
0.1,0.18,0.45
0.5,0.2,0.45
0.51,0.24,0.44
0.51,0.23,0.45
0.52,0.23,0.43
0.53,0.24,0.41
0.52,0.25,0.41
0.48,0.27,0.41
0.48,0.28,0.4
0.51,0.3,0.38
0.51,0.34,0.38
0.46,0.36,0.38
0.43,0.38,0.37
0.45,0.39,0.35
0.45,0.38,0.34
0.42,0.37,0.33
0.39,0.37,0.33
0.37,0.38,0.32
0.37,0.39,0.3
0.41,0.45,0.26
0.41,0.48,0.22
0.36,0.47,0.19
0.31,0.46,0.17
0.31,0.43,0.13
0.4,0.42,0.14
0.42,0.49,0.14
0.46,0.57,0.14
0.5,0.55,0.14
0.56,0.53,0.13
0.57,0.54,0.14
0.62,0.57,0.15
0.73,0.61,0.13
0.79,0.61,0.1
0.83,0.61,0.08
0.88,0.6,0.06
0.9,0.59,0.06
0.94,0.59,0.05
0.99,0.59,0.04
1.03,0.58,0.02
1.08,0.57,0.02
1.12,0.59,0
1.17,0.6,-0.04
1.21,0.61,-0.1
1.24,0.63,-0.15
1.27,0.63,-0.19
1.27,0.62,-0.21
1.27,0.6,-0.22
1.26,0.59,-0.22
1.24,0.6,-0.2
1.22,0.64,-0.23
1.17,0.63,-0.25
1.15,0.6,-0.26
1.14,0.59,-0.25
1.13,0.59,-0.25
1.12,0.59,-0.24
1.11,0.6,-0.23
1.09,0.58,-0.23
1.07,0.56,-0.21
1.04,0.55,-0.2
1.02,0.54,-0.18
1,0.54,-0.17
0.98,0.54,-0.17
0.96,0.54,-0.16
0.94,0.54,-0.15
0.91,0.53,-0.15
0.9,0.52,-0.15
0.88,0.51,-0.15
0.86,0.48,-0.15
0.84,0.46,-0.14
0.81,0.44,-0.12
0.79,0.43,-0.09
0.77,0.43,-0.07
0.74,0.45,-0.05
0.72,0.46,-0.05
0.69,0.44,-0.06
0.65,0.4,-0.05
0.56,0.4,-0.03
0.53,0.4,0
0.51,0.38,0.02
0.5,0.37,0.03
0.5,0.34,0.04
0.49,0.31,0.05
0.48,0.29,0.05
0.47,0.29,0.05
0.48,0.28,0.07
0.47,0.26,0.1
0.46,0.25,0.14
0.44,0.24,0.18
0.43,0.23,0.21
0.44,0.22,0.22
0.46,0.2,0.22
0.47,0.19,0.24
0.48,0.16,0.25
0.5,0.12,0.26
0.52,0.09,0.28
0.55,0.08,0.33
0.59,0.07,0.38
0.6,0.05,0.44
0.62,0.01,0.49
0.64,-0.03,0.53
0.64,-0.04,0.56
0.64,-0.11,0.53
0.68,-0.13,0.49
0.69,-0.15,0.48
0.73,-0.17,0.5
0.77,-0.2,0.53
0.81,-0.22,0.57
0.85,-0.22,0.6
0.86,-0.23,0.6
0.84,-0.25,0.57
0.8,-0.28,0.54
0.78,-0.31,0.53
0.8,-0.32,0.5
0.86,-0.32,0.49
0.93,-0.33,0.52
0.98,-0.33,0.54
0.99,-0.37,0.55
0.99,-0.44,0.58
0.99,-0.5,0.61
0.97,-0.53,0.58
0.97,-0.5,0.52
1.03,-0.42,0.51
1.12,-0.37,0.52
1.17,-0.39,0.53
1.18,-0.46,0.57
1.18,-0.53,0.61
1.21,-0.6,0.65
1.22,-0.63,0.63
1.21,-0.59,0.56
1.28,-0.52,0.53
1.38,-0.48,0.55
1.44,-0.52,0.58
1.44,-0.62,0.63
1.42,-0.7,0.66
1.41,-0.74,0.63
1.41,-0.72,0.55
1.44,-0.68,0.48
1.46,-0.64,0.46
1.48,-0.66,0.47
1.5,-0.72,0.48
1.52,-0.8,0.49
1.54,-0.84,0.47
1.54,-0.83,0.41
1.56,-0.79,0.34
1.59,-0.73,0.29
1.6,-0.68,0.28
1.58,-0.68,0.28
1.54,-0.71,0.27
1.51,-0.72,0.22
1.5,-0.71,0.16
1.51,-0.7,0.13
1.52,-0.68,0.12
1.52,-0.65,0.1
1.52,-0.61,0.05
1.46,-0.6,0.02
1.43,-0.58,-0.02
1.41,-0.57,-0.06
1.4,-0.55,-0.09
1.39,-0.52,-0.11
1.35,-0.52,-0.13
1.31,-0.5,-0.15
1.28,-0.48,-0.17
1.26,-0.46,-0.19
1.23,-0.44,-0.21
1.2,-0.41,-0.22
1.17,-0.38,-0.24
1.16,-0.35,-0.26
1.15,-0.33,-0.27
1.13,-0.3,-0.27
1.11,-0.25,-0.27
1.1,-0.21,-0.29
1.08,-0.17,-0.31
1.07,-0.16,-0.32
1.05,-0.14,-0.32
1.03,-0.11,-0.31
1.01,-0.09,-0.31
0.97,-0.08,-0.31
0.94,-0.06,-0.32
0.93,-0.04,-0.31
0.92,-0.02,-0.3
0.89,-0.01,-0.3
0.87,0.01,-0.3
0.84,0.03,-0.3
0.8,0.05,-0.3
0.78,0.08,-0.28
0.76,0.1,-0.27
0.74,0.12,-0.25
0.71,0.14,-0.23
0.68,0.16,-0.21
0.66,0.17,-0.19
0.64,0.18,-0.16
0.61,0.21,-0.14
0.6,0.23,-0.12
0.59,0.24,-0.09
0.57,0.26,-0.07
0.55,0.28,-0.04
0.52,0.29,-0.02
0.49,0.3,0
0.47,0.29,0.02
0.46,0.29,0.02
0.44,0.28,0.03
0.42,0.27,0.05
0.4,0.28,0.08
0.38,0.29,0.1
0.37,0.31,0.12
0.38,0.29,0.19
0.37,0.27,0.23
0.35,0.25,0.27
0.31,0.25,0.31
0.3,0.26,0.32
0.39,0.27,0.23
0.39,0.24,0.25
0.33,0.2,0.37
0.28,0.21,0.43
0.23,0.2,0.47
0.26,0.19,0.51
0.29,0.18,0.55
0.28,0.18,0.55
0.33,0.19,0.49
0.31,0.19,0.48
0.21,0.16,0.58
0.22,0.12,0.64
0.28,0.12,0.68
0.33,0.1,0.71
0.33,0.06,0.75
0.31,0.05,0.76
0.32,0.06,0.71
0.35,0.07,0.66
0.41,0.06,0.65
0.44,0.03,0.68
0.44,-0.02,0.71
0.42,-0.08,0.83
0.42,-0.06,0.88
0.45,-0.01,0.84
0.5,0,0.81
0.55,-0.03,0.82
0.57,-0.08,0.82
0.58,-0.14,0.82
0.58,-0.21,0.85
0.57,-0.26,0.88
0.55,-0.27,0.88
0.58,-0.22,0.88
0.66,-0.14,0.9
0.71,-0.11,0.89
0.74,-0.14,0.87
0.73,-0.21,0.88
0.69,-0.28,0.97
0.66,-0.34,1.07
0.64,-0.37,1.1
0.6,-0.39,1.04
0.61,-0.4,0.96
0.66,-0.41,0.94
0.64,-0.42,1
0.55,-0.44,1.08
0.51,-0.48,1.14
0.5,-0.52,1.16
0.49,-0.55,1.11
0.54,-0.53,0.99
0.59,-0.51,0.94
0.65,-0.49,0.92
0.87,-0.53,1.04
1.28,-0.59,1.37
1.27,-0.65,1.37
1.36,-0.62,1.76
1.91,-0.44,2.21
1.19,-0.57,1.38
0.12,-0.79,0.45
0.4,-0.52,0.12
1.24,-0.32,0
1.7,-0.45,0.03
1.69,-0.41,0.19
1.54,-0.19,0.41
1.27,-0.13,0.53
0.98,-0.21,0.5
0.74,-0.27,0.59
0.57,-0.31,0.71
0.57,-0.37,0.79
0.59,-0.42,0.77
0.6,-0.46,0.74
0.67,-0.52,0.7
0.79,-0.55,0.59
0.93,-0.55,0.45
1.04,-0.51,0.33
1.08,-0.46,0.21
1.05,-0.45,0.21
1.02,-0.43,0.21
0.99,-0.42,0.21
0.96,-0.39,0.27
0.95,-0.34,0.35
0.97,-0.33,0.42
0.97,-0.36,0.49
0.95,-0.4,0.53
0.95,-0.42,0.53
0.98,-0.43,0.52
1.02,-0.42,0.51
1.05,-0.42,0.52
1.07,-0.43,0.56
1.06,-0.45,0.58
1.06,-0.47,0.59
1.09,-0.48,0.61
1.12,-0.48,0.61
1.17,-0.49,0.57
1.22,-0.5,0.52
1.26,-0.5,0.49
1.3,-0.5,0.46
1.32,-0.5,0.4
1.33,-0.5,0.33
1.34,-0.48,0.28
1.36,-0.44,0.22
1.41,-0.37,0.08
1.41,-0.36,0.02
1.41,-0.35,-0.03
1.4,-0.33,-0.07
1.37,-0.31,-0.1
1.33,-0.28,-0.13
1.29,-0.25,-0.16
1.26,-0.21,-0.18
1.24,-0.18,-0.19
1.22,-0.15,-0.2
1.2,-0.12,-0.22
1.18,-0.1,-0.24
1.15,-0.08,-0.26
1.13,-0.06,-0.28
1.11,-0.04,-0.3
1.1,-0.02,-0.31
1.08,0.01,-0.31
1.07,0.04,-0.3
1.05,0.06,-0.29
1.02,0.08,-0.28
0.98,0.08,-0.26
0.96,0.09,-0.26
0.95,0.12,-0.24
0.93,0.15,-0.22
0.9,0.18,-0.21
0.88,0.22,-0.21
0.85,0.24,-0.22
0.84,0.24,-0.22
0.82,0.25,-0.21
0.78,0.25,-0.2
0.75,0.27,-0.18
0.72,0.27,-0.15
0.68,0.28,-0.13
0.65,0.29,-0.12
0.62,0.3,-0.11
0.59,0.31,-0.1
0.56,0.32,-0.09
0.54,0.32,-0.07
0.52,0.31,-0.05
0.49,0.32,-0.02
0.46,0.34,0
0.42,0.36,0
0.4,0.37,0.01
0.38,0.36,0.02
0.37,0.33,0.04
0.36,0.31,0.07
0.34,0.27,0.12
0.32,0.23,0.17
0.29,0.21,0.21
0.29,0.22,0.24
0.28,0.25,0.25
0.25,0.27,0.28
0.19,0.21,0.28
0.18,0.19,0.31
0.19,0.2,0.36
0.2,0.19,0.44
0.21,0.2,0.51
0.21,0.23,0.57
0.19,0.22,0.6
0.16,0.19,0.57
0.15,0.17,0.53
0.16,0.13,0.53
0.16,0.09,0.62
0.18,0.09,0.71
0.22,0.08,0.76
0.27,0.09,0.79
0.27,0.09,0.78
0.26,0.06,0.76
0.25,0.03,0.76
0.23,0,0.78
0.24,-0.04,0.77
0.32,-0.05,0.76
0.4,-0.05,0.76
0.44,-0.07,0.78
0.44,-0.1,0.78
0.43,-0.15,0.81
0.4,-0.2,0.86
0.37,-0.23,0.86
0.45,-0.29,0.71
0.56,-0.31,0.71
0.66,-0.32,0.75
0.7,-0.35,0.8
0.69,-0.4,0.83
0.68,-0.47,0.87
0.65,-0.53,0.88
0.6,-0.55,0.81
0.61,-0.54,0.76
0.71,-0.53,0.77
0.8,-0.52,0.8
0.85,-0.55,0.81
0.85,-0.61,0.81
0.88,-0.7,0.8
0.89,-0.75,0.75
0.91,-0.74,0.71
0.97,-0.71,0.72
1.03,-0.69,0.71
1.07,-0.69,0.7
1.08,-0.74,0.7
1.08,-0.8,0.7
1.06,-0.87,0.69
1.06,-0.87,0.69
1.09,-0.88,0.65
1.13,-0.88,0.61
1.15,-0.86,0.58
1.2,-0.83,0.57
1.19,-0.85,0.57
1.2,-0.87,0.54
1.23,-0.87,0.52
1.27,-0.87,0.5
1.29,-0.89,0.49
1.29,-0.92,0.49
1.28,-0.95,0.47
1.27,-0.97,0.45
1.28,-0.95,0.44
1.3,-0.92,0.43
1.32,-0.91,0.43
1.33,-0.9,0.41
1.35,-0.88,0.39
1.35,-0.88,0.39
1.34,-0.89,0.38
1.31,-0.89,0.37
1.3,-0.87,0.35
1.31,-0.85,0.31
1.31,-0.83,0.28
1.3,-0.83,0.26
1.3,-0.81,0.24
1.3,-0.8,0.2
1.31,-0.78,0.18
1.32,-0.76,0.15
1.31,-0.75,0.13
1.27,-0.73,0.09
1.25,-0.7,0.07
1.24,-0.68,0.05
1.24,-0.66,0.04
1.24,-0.65,0.04
1.23,-0.64,0.03
1.22,-0.61,0.02
1.21,-0.6,-0.01
1.2,-0.59,-0.03
1.2,-0.56,-0.05
1.18,-0.53,-0.06
1.18,-0.5,-0.07
1.17,-0.47,-0.08
1.15,-0.44,-0.09
1.13,-0.42,-0.09
1.12,-0.4,-0.1
1.1,-0.37,-0.13
1.09,-0.34,-0.14
1.09,-0.31,-0.14
1.08,-0.27,-0.14
1.09,-0.25,-0.14
1.09,-0.23,-0.15
1.06,-0.22,-0.16
1.03,-0.21,-0.16
1,-0.18,-0.15
1,-0.13,-0.14
1,-0.06,-0.15
1,-0.04,-0.15
0.98,-0.02,-0.14
0.96,0,-0.13
0.94,0.02,-0.11
0.92,0.06,-0.11
0.91,0.08,-0.11
0.88,0.1,-0.11
0.86,0.1,-0.11
0.84,0.11,-0.11
0.82,0.12,-0.1
0.79,0.14,-0.08
0.77,0.15,-0.07
0.73,0.15,-0.08
0.68,0.16,-0.08
0.64,0.17,-0.08
0.6,0.19,-0.08
0.57,0.21,-0.09
0.57,0.24,-0.1
0.59,0.25,-0.08
0.59,0.25,-0.05
0.56,0.24,0
0.53,0.24,0.03
0.52,0.26,0.08
0.45,0.26,0.13
0.44,0.25,0.16
0.39,0.28,0.27
0.36,0.25,0.3
0.3,0.22,0.31
0.22,0.21,0.33
0.22,0.2,0.37
0.18,0.19,0.4
0.12,0.19,0.39
0.12,0.21,0.4
0.06,0.21,0.47
0,0.23,0.51
-0.04,0.26,0.54
-0.1,0.26,0.61
-0.16,0.27,0.67
-0.19,0.27,0.68
-0.2,0.28,0.65
-0.22,0.28,0.62
-0.25,0.29,0.59
-0.28,0.29,0.53
-0.3,0.25,0.52
-0.28,0.23,0.6
-0.22,0.23,0.68
-0.17,0.21,0.72
-0.14,0.17,0.76
-0.12,0.14,0.79
-0.12,0.12,0.78
-0.14,0.12,0.75
-0.15,0.11,0.72
-0.13,0.11,0.75
-0.11,0.1,0.78
-0.08,0.07,0.81
-0.07,0.04,0.84
-0.05,0.02,0.91
-0.02,0.02,0.96
0,0.03,0.93
0.04,0.02,0.88
0.07,0.03,0.89
0.09,0.02,0.88
0.12,-0.03,0.87
0.15,-0.09,0.87
0.15,-0.14,0.89
0.14,-0.18,0.92
0.15,-0.2,0.91
0.18,-0.2,0.9
0.25,-0.17,0.94
0.32,-0.17,0.97
0.38,-0.21,0.94
0.42,-0.28,0.87
0.45,-0.37,0.8
0.47,-0.45,0.74
0.48,-0.53,0.7
0.5,-0.58,0.68
0.54,-0.6,0.62
0.71,-0.55,0.73
0.76,-0.59,0.8
0.78,-0.66,0.84
0.76,-0.74,0.84
0.77,-0.8,0.81
0.79,-0.81,0.71
0.75,-0.8,0.57
0.78,-0.76,0.52
0.87,-0.74,0.58
0.94,-0.77,0.69
0.96,-0.85,0.78
0.94,-0.93,0.81
0.94,-1.01,0.8
0.96,-1.05,0.75
0.94,-1.02,0.69
0.94,-1.01,0.65
0.96,-0.99,0.67
0.99,-0.99,0.72
1,-1.04,0.79
0.99,-1.07,0.85
0.98,-1.07,0.85
1.01,-1.06,0.83
1.02,-1.07,0.8
0.99,-1.1,0.78
0.96,-1.11,0.77
0.95,-1.11,0.76
1.01,-1.07,0.75
1.04,-1.05,0.76
1.07,-1.05,0.77
1.07,-1.05,0.77
1.05,-1.07,0.75
1.03,-1.08,0.73
1,-1.07,0.7
0.98,-1.06,0.68
1.01,-1.02,0.67
1.04,-0.98,0.67
1.06,-0.96,0.68
1.04,-0.97,0.66
1.02,-0.98,0.65
1.01,-0.98,0.63
1.02,-0.97,0.6
1.05,-0.93,0.57
1.09,-0.9,0.54
1.1,-0.9,0.52
1.09,-0.89,0.49
1.08,-0.86,0.46
1.07,-0.84,0.43
1.07,-0.84,0.4
1.1,-0.83,0.39
1.13,-0.81,0.37
1.13,-0.81,0.34
1.12,-0.79,0.31
1.12,-0.74,0.25
1.14,-0.72,0.22
1.14,-0.71,0.18
1.16,-0.7,0.14
1.18,-0.69,0.12
1.16,-0.66,0.09
1.15,-0.61,0.08
1.16,-0.54,0.08
1.16,-0.51,0.07
1.15,-0.5,0.07
1.12,-0.48,0.05
1.09,-0.46,0.04
1.07,-0.42,0.02
1.07,-0.39,0.02
1.08,-0.37,0.03
1.06,-0.36,0.03
1.03,-0.34,0.02
1.01,-0.32,0.01
1,-0.3,0.02
0.99,-0.26,0.03
0.97,-0.23,0.02
0.95,-0.2,0.01
0.91,-0.18,0
0.89,-0.14,-0.01
0.88,-0.11,-0.02
0.88,-0.08,-0.02
0.86,-0.06,0
0.79,-0.05,0.01
0.74,-0.03,0.01
0.71,-0.01,-0.01
0.69,0.02,-0.03
0.67,0.06,-0.03
0.65,0.11,-0.01
0.63,0.13,0
0.59,0.13,0.02
0.54,0.14,0.02
0.5,0.13,0.01
0.46,0.13,0.01
0.44,0.15,0.02
0.42,0.18,0.05
0.41,0.22,0.08
0.39,0.27,0.12
0.36,0.29,0.14
0.35,0.28,0.15
0.33,0.28,0.15
0.31,0.27,0.17
0.28,0.28,0.22
0.27,0.31,0.24
0.29,0.32,0.24
0.28,0.31,0.27
0.24,0.29,0.33
0.21,0.27,0.34
0.17,0.22,0.35
0.12,0.24,0.4
0.1,0.24,0.46
0.06,0.24,0.48
0.05,0.23,0.52
0.05,0.23,0.54
0.01,0.23,0.57
-0.05,0.2,0.61
-0.07,0.19,0.65
-0.07,0.19,0.68
-0.07,0.2,0.72
-0.06,0.21,0.75
-0.06,0.22,0.77
-0.04,0.21,0.79
-0.03,0.19,0.8
-0.02,0.15,0.84
-0.03,0.12,0.9
-0.04,0.13,0.91
-0.01,0.15,0.89
0.02,0.16,0.84
0.04,0.15,0.8
0.04,0.1,0.79
0.05,0.05,0.79
0.07,0,0.81
0.07,-0.03,0.9
0.07,-0.05,1
0.07,-0.09,1.09
0.14,-0.1,1.04
0.14,-0.12,0.92
0.11,-0.13,0.8
0.05,-0.16,0.75
-0.05,-0.2,0.83
-0.12,-0.22,1.01
-0.1,-0.23,1.16
-0.05,-0.26,1.27
0.01,-0.27,1.28
0.07,-0.25,1.19
0.08,-0.23,1.07
0.05,-0.23,0.96
0.03,-0.24,0.89
0.06,-0.26,0.9
0.14,-0.29,0.99
0.21,-0.33,1.08
0.26,-0.36,1.13
0.28,-0.4,1.14
0.29,-0.43,1.12
0.29,-0.46,1.06
0.28,-0.47,0.98
0.28,-0.45,0.88
0.31,-0.45,0.8
0.4,-0.48,0.78
0.49,-0.53,0.82
0.54,-0.64,0.99
0.53,-0.68,1.05
0.49,-0.7,1.05
0.44,-0.69,0.98
0.43,-0.64,0.86
0.45,-0.59,0.81
0.48,-0.55,0.88
0.48,-0.57,1.03
0.47,-0.62,1.15
0.46,-0.68,1.22
0.44,-0.72,1.23
0.41,-0.74,1.21
0.38,-0.75,1.17
0.36,-0.75,1.13
0.39,-0.73,1.15
0.46,-0.73,1.24
0.55,-0.76,1.31
0.62,-0.81,1.32
0.63,-0.86,1.28
0.6,-0.88,1.22
0.58,-0.88,1.18
0.59,-0.88,1.17
0.6,-0.88,1.15
0.61,-0.84,1.14
0.68,-0.81,1.17
0.77,-0.81,1.21
0.82,-0.89,1.08
0.83,-0.93,0.99
0.83,-0.93,0.95
0.85,-0.91,0.91
0.89,-0.86,0.9
0.95,-0.8,0.9
1,-0.77,0.9
0.99,-0.78,0.88
0.99,-0.79,0.8
1.02,-0.78,0.75
1.04,-0.77,0.71
1.05,-0.77,0.66
1.09,-0.72,0.64
1.12,-0.68,0.6
1.11,-0.68,0.56
1.09,-0.68,0.52
1.09,-0.65,0.49
1.1,-0.61,0.48
1.1,-0.58,0.45
1.1,-0.56,0.45
1.09,-0.56,0.43
1.09,-0.54,0.38
1.11,-0.52,0.34
1.11,-0.49,0.35
1.11,-0.46,0.34
1.13,-0.44,0.28
1.12,-0.4,0.22
1.07,-0.37,0.2
1.07,-0.35,0.18
1.05,-0.33,0.17
1.03,-0.31,0.15
1.05,-0.28,0.13
1.05,-0.24,0.13
1.03,-0.22,0.12
1.04,-0.2,0.1
1.02,-0.18,0.08
0.97,-0.18,0.07
0.94,-0.16,0.08
0.94,-0.12,0.06
0.96,-0.08,0.04
0.98,-0.05,0.02
0.97,-0.02,0.02
0.94,-0.01,0.01
0.92,0,0
0.91,0.02,0.01
0.9,0.05,0.01
0.89,0.08,0.02
0.86,0.1,0.04
0.83,0.12,0.05
0.82,0.14,0.05
0.79,0.17,0.05
0.77,0.21,0.05
0.73,0.24,0.06
0.69,0.23,0.07
0.66,0.21,0.08
0.62,0.21,0.11
0.59,0.24,0.12
0.56,0.28,0.13
0.54,0.33,0.13
0.52,0.35,0.14
0.5,0.36,0.16
0.47,0.37,0.17
0.46,0.38,0.18
0.46,0.39,0.2
0.43,0.39,0.22
0.4,0.38,0.22
0.36,0.37,0.24
0.33,0.34,0.27
0.31,0.34,0.28
0.28,0.34,0.26
0.25,0.34,0.24
0.25,0.33,0.26
0.21,0.32,0.3
0.17,0.32,0.36
0.16,0.34,0.42
0.13,0.34,0.43
0.11,0.32,0.43
0.09,0.31,0.44
0.06,0.24,0.48
0.07,0.24,0.58
0.05,0.24,0.65
0.03,0.22,0.64
0.02,0.19,0.62
0.02,0.15,0.61
0,0.11,0.65
0.01,0.1,0.72
0.05,0.11,0.79
0.09,0.12,0.82
0.12,0.13,0.81
0.12,0.14,0.79
0.11,0.12,0.8
0.11,0.12,0.83
0.11,0.14,0.85
0.13,0.16,0.84
0.16,0.16,0.85
0.19,0.14,0.88
0.23,0.11,0.91
0.25,0.08,0.93
0.26,0.04,0.97
0.27,0.01,0.98
0.29,0,0.94
0.31,0.02,0.89
0.34,0.05,0.85
0.39,0.04,0.8
0.43,-0.1,0.85
0.52,-0.18,0.88
0.56,-0.26,0.89
0.59,-0.29,0.88
0.62,-0.27,0.84
0.65,-0.24,0.75
0.68,-0.21,0.65
0.69,-0.2,0.6
0.69,-0.23,0.58
0.71,-0.29,0.58
0.74,-0.36,0.58
0.8,-0.42,0.62
0.85,-0.46,0.62
0.9,-0.43,0.63
0.93,-0.38,0.62
0.94,-0.37,0.57
0.96,-0.37,0.52
0.97,-0.41,0.52
1.01,-0.46,0.57
1.05,-0.51,0.69
1.06,-0.54,0.82
1.06,-0.55,0.87
1.09,-0.56,0.83
1.11,-0.58,0.78
1.12,-0.61,0.71
1.13,-0.62,0.62
1.23,-0.6,0.59
1.34,-0.57,0.62
1.41,-0.57,0.63
1.4,-0.59,0.64
1.35,-0.62,0.65
1.31,-0.63,0.65
1.27,-0.63,0.64
1.23,-0.61,0.63
1.18,-0.57,0.61
1.17,-0.51,0.59
1.2,-0.47,0.63
1.21,-0.47,0.67
1.21,-0.52,0.69
1.2,-0.57,0.72
1.18,-0.61,0.72
1.18,-0.65,0.67
1.18,-0.65,0.62
1.17,-0.64,0.57
1.18,-0.63,0.54
1.23,-0.62,0.54
1.26,-0.65,0.55
1.26,-0.71,0.56
1.27,-0.74,0.55
1.26,-0.75,0.53
1.25,-0.74,0.49
1.24,-0.72,0.45
1.24,-0.68,0.37
1.31,-0.68,0.3
1.33,-0.65,0.26
1.34,-0.6,0.23
1.33,-0.59,0.19
1.33,-0.59,0.17
1.33,-0.58,0.15
1.32,-0.55,0.12
1.3,-0.53,0.1
1.29,-0.53,0.08
1.28,-0.52,0.06
1.26,-0.5,0.04
1.24,-0.49,0.03
1.22,-0.47,0.01
1.19,-0.44,0
1.17,-0.42,0
1.16,-0.4,-0.02
1.17,-0.39,-0.05
1.15,-0.36,-0.08
1.11,-0.35,-0.12
1.09,-0.33,-0.15
1.06,-0.31,-0.17
1.03,-0.29,-0.18
1.02,-0.27,-0.18
1.02,-0.25,-0.18
1.01,-0.24,-0.17
0.98,-0.19,-0.17
0.93,-0.16,-0.17
0.92,-0.12,-0.17
0.91,-0.08,-0.16
0.9,-0.03,-0.16
0.89,0.01,-0.14
0.88,0.04,-0.12
0.87,0.08,-0.11
0.87,0.12,-0.09
0.86,0.15,-0.08
0.85,0.16,-0.07
0.85,0.17,-0.06
0.83,0.18,-0.06
0.81,0.2,-0.04
0.8,0.24,-0.03
0.79,0.27,-0.04
0.78,0.3,-0.04
0.77,0.32,-0.04
0.78,0.33,-0.02
0.78,0.33,0
0.77,0.34,0.03
0.73,0.36,0.05
0.7,0.39,0.07
0.67,0.39,0.08
0.64,0.38,0.09
0.61,0.35,0.11
0.57,0.32,0.2
0.49,0.36,0.23
0.46,0.43,0.22
0.46,0.46,0.21
0.45,0.44,0.18
0.45,0.44,0.15
0.43,0.45,0.13
0.42,0.44,0.11
0.42,0.45,0.11
0.42,0.46,0.11
0.42,0.45,0.12
0.42,0.42,0.13
0.37,0.38,0.15
0.35,0.37,0.16
0.35,0.38,0.18
0.32,0.37,0.21
0.29,0.36,0.25
0.25,0.33,0.3
0.22,0.31,0.32
0.23,0.3,0.33
0.23,0.29,0.35
0.22,0.28,0.37
0.21,0.27,0.38
0.18,0.27,0.4
0.19,0.29,0.42
0.21,0.3,0.44
0.23,0.23,0.56
0.11,0.18,0.63
0.13,0.18,0.65
0.15,0.22,0.62
0.16,0.25,0.59
0.17,0.25,0.55
0.18,0.22,0.59
0.17,0.17,0.68
0.14,0.12,0.8
0.14,0.06,0.87
0.17,0.02,0.86
0.22,0.03,0.82
0.26,0.04,0.76
0.27,0.03,0.73
0.27,0.01,0.74
0.29,-0.04,0.79
0.31,-0.1,0.88
0.31,-0.13,0.91
0.33,-0.14,0.89
0.4,-0.11,0.88
0.47,-0.08,0.86
0.51,-0.08,0.83
0.53,-0.12,0.83
0.52,-0.18,0.84
0.51,-0.25,0.91
0.5,-0.32,1.16
0.48,-0.33,1.14
0.57,-0.26,1.06
0.68,-0.21,0.96
0.74,-0.22,0.87
0.75,-0.28,0.78
0.71,-0.36,0.71
0.71,-0.46,0.65
0.75,-0.56,0.63
0.82,-0.63,0.64
0.87,-0.65,0.66
0.91,-0.61,0.68
0.92,-0.55,0.68
0.93,-0.53,0.68
0.95,-0.55,0.67
0.95,-0.59,0.65
0.93,-0.64,0.62
0.93,-0.69,0.6
0.94,-0.72,0.57
0.96,-0.72,0.55
0.98,-0.68,0.55
1.01,-0.62,0.57
1.04,-0.61,0.61
1.04,-0.64,0.65
1.02,-0.69,0.68
0.99,-0.76,0.71
0.96,-0.8,0.72
0.94,-0.83,0.71
0.93,-0.84,0.72
0.95,-0.85,0.72
0.95,-0.86,0.72
0.95,-0.85,0.74
0.96,-0.82,0.75
0.98,-0.8,0.76
1,-0.81,0.75
1,-0.84,0.74
0.97,-0.88,0.72
0.92,-0.91,0.69
0.88,-0.93,0.65
0.88,-0.96,0.62
0.9,-0.97,0.59
0.95,-0.95,0.58
0.97,-0.92,0.56
0.99,-0.87,0.58
1,-0.83,0.61
0.96,-0.85,0.59
0.92,-0.87,0.57
0.9,-0.87,0.55
0.92,-0.87,0.54
0.94,-0.86,0.54
0.94,-0.83,0.54
0.94,-0.81,0.54
0.97,-0.79,0.53
1.02,-0.75,0.53
1.13,-0.75,0.53
1.12,-0.74,0.55
1.09,-0.73,0.55
1.09,-0.71,0.55
1.11,-0.7,0.55
1.1,-0.71,0.53
1.12,-0.68,0.5
1.16,-0.66,0.47
1.16,-0.68,0.44
1.15,-0.68,0.44
1.16,-0.67,0.42
1.18,-0.65,0.37
1.18,-0.61,0.35
1.17,-0.57,0.35
1.2,-0.55,0.32
1.21,-0.53,0.3
1.17,-0.52,0.25
1.14,-0.51,0.18
1.14,-0.49,0.14
1.16,-0.48,0.09
1.16,-0.47,0.05
1.11,-0.44,0.03
1.07,-0.39,0.01
1.07,-0.35,-0.03
1.05,-0.3,-0.07
1.01,-0.26,-0.1
0.97,-0.25,-0.13
0.99,-0.24,-0.16
1.02,-0.23,-0.18
1.03,-0.22,-0.16
1.02,-0.2,-0.14
1,-0.18,-0.14
0.99,-0.12,-0.16
0.97,-0.09,-0.16
0.96,-0.07,-0.15
0.96,-0.06,-0.14
0.94,-0.04,-0.13
0.89,-0.02,-0.12
0.86,-0.01,-0.12
0.84,0.02,-0.13
0.81,0.05,-0.13
0.79,0.07,-0.12
0.78,0.08,-0.1
0.76,0.1,-0.07
0.75,0.12,-0.05
0.73,0.14,-0.03
0.7,0.16,-0.02
0.69,0.18,-0.01
0.69,0.2,0
0.68,0.2,0.04
0.64,0.19,0.06
0.64,0.2,0.1
0.62,0.19,0.13
0.59,0.19,0.16
0.56,0.21,0.21
0.54,0.22,0.25
0.55,0.24,0.27
0.53,0.25,0.28
0.48,0.22,0.29
0.4,0.2,0.28
0.35,0.19,0.27
0.33,0.21,0.28
0.32,0.25,0.29
0.33,0.26,0.3
0.33,0.26,0.29
0.32,0.24,0.3
0.3,0.21,0.33
0.27,0.17,0.38
0.27,0.14,0.44
0.25,0.15,0.48
0.23,0.18,0.51
0.25,0.21,0.5
0.25,0.22,0.49
0.24,0.19,0.5
0.23,0.15,0.53
0.19,0.05,0.65
0.15,0.03,0.65
0.21,0.02,0.68
0.25,0.02,0.73
0.24,0.03,0.73
0.25,0.02,0.74
0.25,-0.02,0.72
0.2,-0.05,0.77
0.14,-0.07,0.84
0.14,-0.1,0.86
0.15,-0.1,0.87
0.18,-0.09,0.91
0.2,-0.07,0.97
0.24,-0.07,1
0.28,-0.09,1.05
0.28,-0.12,1.13
0.26,-0.16,1.17
0.26,-0.2,1.14
0.27,-0.2,1.07
0.29,-0.18,1.03
0.32,-0.16,1
0.35,-0.18,0.98
0.38,-0.22,0.94
0.42,-0.27,0.9
0.45,-0.33,0.88
0.44,-0.34,0.89
0.43,-0.34,0.83
0.61,-0.35,0.84
0.69,-0.36,0.81
0.72,-0.39,0.77
0.71,-0.44,0.75
0.7,-0.49,0.75
0.68,-0.51,0.75
0.67,-0.5,0.72
0.72,-0.46,0.7
0.81,-0.44,0.71
0.9,-0.45,0.72
0.95,-0.49,0.75
0.97,-0.55,0.79
0.95,-0.59,0.83
0.9,-0.61,0.83
0.86,-0.6,0.79
0.83,-0.54,0.73
0.87,-0.45,0.73
0.97,-0.39,0.81
1.05,-0.43,0.88
1.09,-0.52,0.92
1.05,-0.61,0.95
1,-0.66,0.94
0.99,-0.67,0.9
1.01,-0.65,0.86
1.02,-0.62,0.86
1.03,-0.72,0.89
1.06,-0.77,0.91
1.08,-0.79,0.9
1.12,-0.81,0.88
1.14,-0.8,0.86
1.14,-0.79,0.81
1.15,-0.8,0.78
1.14,-0.82,0.77
1.12,-0.83,0.76
1.11,-0.84,0.74
1.11,-0.82,0.72
1.11,-0.8,0.71
1.11,-0.8,0.69
1.1,-0.79,0.67
1.11,-0.79,0.66
1.12,-0.77,0.66
1.14,-0.76,0.64
1.16,-0.74,0.61
1.17,-0.7,0.59
1.17,-0.68,0.55
1.17,-0.67,0.53
1.16,-0.65,0.51
1.15,-0.64,0.48
1.16,-0.63,0.46
1.16,-0.61,0.45
1.16,-0.6,0.43
1.15,-0.59,0.36
1.1,-0.56,0.32
1.11,-0.51,0.29
1.13,-0.5,0.24
1.13,-0.49,0.19
1.12,-0.48,0.15
1.1,-0.47,0.14
1.07,-0.43,0.15
1.06,-0.38,0.14
1.09,-0.34,0.13
1.12,-0.31,0.14
1.12,-0.27,0.1
1.13,-0.25,0.04
1.14,-0.23,0.03
1.12,-0.23,0.01
1.08,-0.23,0
1.06,-0.2,-0.01
1.06,-0.15,-0.04
1.06,-0.11,-0.03
1.05,-0.07,-0.03
1.03,-0.06,-0.05
0.99,-0.06,-0.06
0.94,-0.05,-0.08
0.91,-0.03,-0.1
0.9,-0.01,-0.11
0.9,0.01,-0.13
0.9,0.04,-0.15
0.86,0.06,-0.13
0.84,0.09,-0.13
0.82,0.13,-0.13
0.81,0.16,-0.14
0.78,0.17,-0.15
0.75,0.16,-0.16
0.72,0.16,-0.17
0.7,0.18,-0.16
0.69,0.21,-0.14
0.68,0.24,-0.12
0.67,0.26,-0.1
0.66,0.25,-0.08
0.64,0.24,-0.06
0.63,0.25,-0.03
0.62,0.28,0
0.61,0.3,0.02
0.6,0.3,0.04
0.58,0.3,0.05
0.59,0.29,0.08
0.58,0.29,0.1
0.56,0.28,0.12
0.52,0.25,0.15
0.5,0.24,0.16
0.52,0.27,0.17
0.51,0.27,0.18
0.46,0.24,0.26
0.43,0.22,0.31
0.4,0.21,0.36
0.37,0.21,0.42
0.33,0.22,0.47
0.3,0.22,0.49
0.28,0.23,0.48
0.27,0.26,0.46
0.29,0.28,0.43
0.32,0.28,0.42
0.34,0.25,0.46
0.34,0.22,0.52
0.31,0.21,0.58
0.27,0.2,0.6
0.26,0.18,0.6
0.27,0.15,0.61
0.29,0.13,0.61
0.31,0.1,0.63
0.34,0.07,0.67
0.37,0.03,0.72
0.39,0.01,0.73
0.39,0,0.7
0.4,-0.01,0.65
0.44,-0.03,0.61
0.48,-0.05,0.62
0.52,-0.07,0.66
0.57,-0.12,0.74
0.61,-0.14,0.78
0.61,-0.15,0.79
0.6,-0.16,0.77
0.57,-0.15,0.72
0.56,-0.14,0.63
0.63,-0.15,0.57
0.74,-0.19,0.55
0.82,-0.21,0.54
0.83,-0.24,0.55
0.79,-0.3,0.58
0.76,-0.35,0.65
0.74,-0.36,0.69
0.74,-0.37,0.65
0.76,-0.35,0.59
0.81,-0.35,0.56
0.91,-0.37,0.56
0.99,-0.39,0.57
0.99,-0.43,0.59
0.97,-0.48,0.63
0.96,-0.52,0.68
0.93,-0.54,0.71
0.92,-0.55,0.71
0.94,-0.54,0.72
0.97,-0.54,0.7
1,-0.54,0.69
1,-0.64,0.67
1,-0.66,0.68
1.03,-0.67,0.68
1.08,-0.66,0.7
1.14,-0.67,0.72
1.17,-0.69,0.73
1.17,-0.72,0.74
1.16,-0.74,0.72
1.15,-0.76,0.72
1.14,-0.78,0.7
1.15,-0.76,0.68
1.19,-0.73,0.65
1.24,-0.72,0.65
1.26,-0.74,0.66
1.23,-0.76,0.65
1.19,-0.78,0.64
1.16,-0.8,0.61
1.14,-0.8,0.57
1.14,-0.79,0.53
1.14,-0.78,0.5
1.14,-0.78,0.49
1.15,-0.8,0.47
1.15,-0.82,0.45
1.15,-0.82,0.42
1.17,-0.81,0.41
1.18,-0.79,0.39
1.17,-0.78,0.34
1.15,-0.77,0.32
1.14,-0.75,0.31
1.12,-0.74,0.3
1.12,-0.74,0.26
1.12,-0.72,0.24
1.13,-0.69,0.22
1.15,-0.67,0.2
1.16,-0.66,0.2
1.15,-0.65,0.21
1.14,-0.64,0.22
1.14,-0.62,0.24
1.13,-0.61,0.24
1.13,-0.58,0.23
1.13,-0.56,0.23
1.15,-0.54,0.22
1.19,-0.52,0.21
1.21,-0.51,0.2
1.2,-0.51,0.19
1.18,-0.51,0.19
1.17,-0.5,0.18
1.17,-0.46,0.16
1.18,-0.44,0.14
1.17,-0.44,0.12
1.15,-0.43,0.11
1.13,-0.41,0.09
1.13,-0.38,0.05
1.13,-0.34,0.04
1.12,-0.3,0.02
1.13,-0.29,0.03
1.11,-0.26,0.03
1.09,-0.23,0.01
1.09,-0.2,-0.02
1.09,-0.17,-0.04
1.07,-0.16,-0.05
1.04,-0.15,-0.06
1.02,-0.15,-0.08
1.01,-0.14,-0.11
0.99,-0.12,-0.14
0.97,-0.1,-0.16
0.94,-0.08,-0.16
0.91,-0.05,-0.14
0.87,-0.03,-0.11
0.86,-0.01,-0.09
0.86,0.03,-0.12
0.84,0.07,-0.13
0.8,0.07,-0.14
0.78,0.07,-0.14
0.79,0.09,-0.13
0.79,0.12,-0.11
0.78,0.15,-0.1
0.76,0.18,-0.09
0.74,0.24,-0.1
0.71,0.27,-0.12
0.72,0.28,-0.12
0.72,0.28,-0.11
0.7,0.27,-0.08
0.67,0.26,-0.06
0.64,0.26,-0.04
0.62,0.28,-0.02
0.62,0.32,-0.02
0.62,0.35,0
0.61,0.36,0.02
0.6,0.35,0.02
0.58,0.34,0.03
0.59,0.34,0.05
0.6,0.34,0.05
0.6,0.36,0.05
0.59,0.39,0.06
0.57,0.39,0.07
0.57,0.4,0.09
0.58,0.41,0.12
0.58,0.39,0.15
0.57,0.36,0.17
0.56,0.33,0.19
0.57,0.31,0.22
0.59,0.31,0.22
0.57,0.31,0.25
0.52,0.29,0.3
0.47,0.27,0.3
0.43,0.23,0.33
0.37,0.18,0.38
0.35,0.13,0.42
0.38,0.11,0.47
0.4,0.13,0.51
0.4,0.16,0.53
0.37,0.19,0.53
0.34,0.21,0.53
0.33,0.2,0.54
0.32,0.16,0.54
0.32,0.11,0.56
0.36,0.07,0.58
0.4,0.04,0.61
0.41,0.04,0.64
0.38,0.05,0.69
0.37,0.05,0.74
0.36,0.04,0.79
0.37,0.04,0.81
0.38,0.01,0.78
0.43,-0.01,0.76
0.49,-0.03,0.76
0.53,-0.05,0.8
0.56,-0.07,0.85
0.58,-0.1,0.88
0.55,-0.12,0.87
0.51,-0.15,0.84
0.52,-0.17,0.81
0.56,-0.21,0.79
0.62,-0.25,0.8
0.65,-0.25,0.82
0.66,-0.25,0.82
0.67,-0.26,0.82
0.66,-0.3,0.82
0.65,-0.34,0.81
0.63,-0.39,0.76
0.64,-0.41,0.71
0.7,-0.4,0.7
0.78,-0.35,0.75
0.85,-0.34,0.78
0.89,-0.38,0.79
0.89,-0.44,0.8
0.88,-0.5,0.82
0.87,-0.55,0.8
0.89,-0.58,0.75
0.93,-0.58,0.73
0.97,-0.54,0.71
1.02,-0.48,0.7
1.07,-0.46,0.71
1.1,-0.47,0.72
1.12,-0.52,0.71
1.12,-0.62,0.67
1.11,-0.64,0.64
1.09,-0.66,0.62
1.07,-0.65,0.62
1.08,-0.63,0.63
1.11,-0.63,0.64
1.13,-0.66,0.65
1.11,-0.68,0.66
1.08,-0.69,0.66
1.09,-0.7,0.64
1.13,-0.71,0.61
1.16,-0.72,0.58
1.17,-0.74,0.56
1.18,-0.77,0.56
1.2,-0.8,0.54
1.21,-0.82,0.52
1.21,-0.83,0.5
1.22,-0.8,0.52
1.24,-0.84,0.51
1.24,-0.83,0.51
1.22,-0.8,0.51
1.21,-0.84,0.49
1.2,-0.79,0.46
1.18,-0.74,0.44
1.28,-0.78,0.41
1.37,-0.78,0.37
1.33,-0.72,0.32
1.3,-0.69,0.3
1.28,-0.67,0.3
1.29,-0.64,0.29
1.29,-0.61,0.28
1.28,-0.58,0.26
1.28,-0.55,0.25
1.28,-0.53,0.21
1.29,-0.52,0.16
1.31,-0.51,0.13
1.33,-0.5,0.1
1.33,-0.48,0.09
1.29,-0.47,0.08
1.25,-0.45,0.07
1.19,-0.44,0.06
1.16,-0.42,0.04
1.16,-0.39,0.03
1.15,-0.36,0.01
1.13,-0.3,-0.04
1.13,-0.25,-0.1
1.14,-0.19,-0.14
1.16,-0.16,-0.17
1.16,-0.19,-0.17
1.13,-0.23,-0.16
1.09,-0.27,-0.18
1.06,-0.26,-0.19
1.08,-0.23,-0.18
1.15,-0.21,-0.14
1.12,-0.22,-0.1
1.06,-0.23,-0.09
1.01,-0.22,-0.08
1,-0.2,-0.07
1,-0.18,-0.05
0.97,-0.15,-0.02
0.95,-0.13,0
0.93,-0.11,0.02
0.91,-0.1,0.02
0.89,-0.09,0.03
0.85,-0.09,0.05
0.81,-0.1,0.08
0.76,-0.09,0.11
0.71,-0.07,0.14
0.68,-0.06,0.16
0.67,-0.03,0.18
0.65,-0.01,0.18
0.63,0.02,0.18
0.61,0.02,0.18
0.6,0.02,0.18
0.59,0.02,0.19
0.57,0.02,0.2
0.54,0.04,0.22
0.51,0.07,0.25
0.49,0.1,0.28
0.43,0.07,0.29
0.42,0.08,0.29
0.41,0.1,0.31
0.42,0.1,0.35
0.38,0.11,0.38
0.33,0.11,0.4
0.34,0.1,0.41
0.35,0.11,0.42
0.34,0.12,0.43
0.31,0.12,0.46
0.26,0.11,0.51
0.21,0.12,0.53
0.19,0.13,0.5
0.21,0.12,0.49
0.22,0.1,0.54
0.23,0.09,0.59
0.27,0.1,0.62
0.28,0.08,0.64
0.24,0.06,0.68
0.21,0.1,0.75
0.16,0.11,0.77
0.11,0.04,0.76
0.15,0.01,0.79
0.2,0.01,0.82
0.2,-0.01,0.83
0.18,-0.04,0.85
0.16,-0.09,0.91
0.17,-0.12,0.94
0.2,-0.15,0.95
0.24,-0.17,0.97
0.26,-0.2,0.98
0.26,-0.22,0.97
0.25,-0.25,0.97
0.24,-0.28,0.95
0.22,-0.27,0.92
0.16,-0.26,0.93
0.12,-0.32,0.95
0.14,-0.39,0.94
0.2,-0.46,0.92
0.23,-0.46,0.95
0.25,-0.41,0.99
0.29,-0.39,1
0.26,-0.41,0.99
0.25,-0.44,0.96
0.23,-0.45,0.91
0.23,-0.46,0.85
0.26,-0.49,0.84
0.32,-0.52,0.88
0.37,-0.52,0.94
0.4,-0.53,0.98
0.4,-0.53,0.98
0.4,-0.55,0.88
0.41,-0.57,0.82
0.46,-0.55,0.8
0.51,-0.51,0.82
0.59,-0.49,0.86
0.68,-0.54,0.9
0.78,-0.6,0.96
0.81,-0.61,0.98
0.77,-0.59,0.95
0.77,-0.57,0.89
0.81,-0.59,0.82
0.85,-0.61,0.81
0.88,-0.64,0.85
0.9,-0.65,0.91
0.91,-0.65,0.97
0.95,-0.66,1
1.01,-0.68,1.02
1.06,-0.69,0.98
1.08,-0.67,0.92
1.07,-0.63,0.91
1.04,-0.59,0.92
1.04,-0.55,0.94
1.03,-0.53,0.94
0.99,-0.53,0.93
0.94,-0.53,0.91
0.9,-0.53,0.89
0.89,-0.52,0.86
0.94,-0.49,0.86
0.97,-0.5,0.85
1,-0.5,0.83
1,-0.5,0.79
0.96,-0.48,0.79
0.93,-0.47,0.82
0.87,-0.47,0.86
0.82,-0.47,0.88
0.87,-0.47,0.87
0.9,-0.46,0.86
0.92,-0.47,0.85
0.93,-0.48,0.84
0.95,-0.49,0.82
0.96,-0.49,0.81
0.96,-0.5,0.83
0.93,-0.49,0.85
0.88,-0.5,0.86
0.85,-0.49,0.88
0.77,-0.49,0.92
0.73,-0.51,0.93
0.76,-0.51,0.91
0.75,-0.5,0.93
0.72,-0.51,0.94
0.7,-0.52,0.93
0.69,-0.52,0.92
0.67,-0.52,0.94
0.61,-0.53,0.96
0.61,-0.52,0.96
0.59,-0.51,0.99
0.54,-0.51,1.03
0.49,-0.51,1.05
0.44,-0.52,1.06
0.39,-0.54,1.07
0.36,-0.53,1.09
0.33,-0.5,1.12
0.32,-0.48,1.16
0.3,-0.48,1.17
0.27,-0.47,1.18
0.24,-0.48,1.2
0.2,-0.49,1.21
0.15,-0.5,1.22
0.1,-0.51,1.22
0.06,-0.49,1.2
0.04,-0.45,1.18
0.02,-0.42,1.18
0,-0.41,1.17
-0.02,-0.4,1.14
-0.02,-0.39,1.11
-0.03,-0.37,1.08
-0.04,-0.35,1.04
-0.05,-0.34,1
-0.06,-0.31,0.94
-0.06,-0.26,0.9
-0.06,-0.23,0.88
-0.08,-0.2,0.86
-0.09,-0.18,0.85
-0.09,-0.17,0.82
-0.09,-0.16,0.79
-0.09,-0.15,0.77
-0.1,-0.13,0.75
-0.1,-0.11,0.72
-0.1,-0.09,0.69
-0.11,-0.06,0.65
-0.1,-0.03,0.62
-0.07,-0.02,0.6
-0.03,0,0.58
-0.01,0.02,0.56
0,0.04,0.54
0.01,0.05,0.53
0.01,0.06,0.52
0.03,0.07,0.48
0.04,0.1,0.43
0.06,0.14,0.39
0.07,0.19,0.36
0.08,0.23,0.33
0.09,0.26,0.29
0.11,0.28,0.27
0.15,0.29,0.27
0.19,0.33,0.26
0.23,0.35,0.23
0.26,0.38,0.22
0.29,0.38,0.19
0.31,0.36,0.16
0.33,0.32,0.15
0.36,0.29,0.14
0.4,0.28,0.16
0.43,0.26,0.19
0.47,0.26,0.21
0.53,0.26,0.21
0.59,0.26,0.19
0.62,0.24,0.18
0.63,0.23,0.18
0.63,0.2,0.18
0.64,0.17,0.18
0.65,0.14,0.19
0.68,0.14,0.2
0.72,0.16,0.17
0.78,0.18,0.14
0.84,0.19,0.12
0.89,0.18,0.12
0.93,0.16,0.14
0.93,0.11,0.16
0.91,0.08,0.15
0.91,0.07,0.13
1.03,0.04,0.19
1.11,0.02,0.28
1.09,-0.06,0.38
1,-0.16,0.44
0.97,-0.24,0.48
1,-0.31,0.45
1.03,-0.37,0.39
1.06,-0.43,0.41
1.1,-0.47,0.53
1.1,-0.47,0.64
1.11,-0.47,0.68
1.1,-0.47,0.67
1.04,-0.49,0.67
0.95,-0.5,0.67
0.9,-0.52,0.66
0.9,-0.57,0.68
0.93,-0.61,0.76
0.99,-0.64,0.84
1.04,-0.66,0.88
1.06,-0.67,0.9
1.01,-0.66,0.95
0.92,-0.65,0.98
0.86,-0.65,0.95
0.83,-0.65,0.9
0.84,-0.67,0.87
0.88,-0.7,0.92
1.01,-0.81,0.96
1.07,-0.86,0.99
1.09,-0.89,1.02
1.06,-0.88,1.03
0.98,-0.81,1.05
0.95,-0.78,1.08
0.92,-0.79,1.07
0.87,-0.8,1.07
0.84,-0.81,1.07
0.83,-0.82,1.07
0.85,-0.83,1.07
0.87,-0.83,1.07
0.87,-0.82,1.07
0.85,-0.82,1.07
0.8,-0.82,1.06
0.75,-0.82,1.02
0.72,-0.83,0.99
0.7,-0.83,0.97
0.67,-0.82,0.96
0.64,-0.81,0.92
0.66,-0.76,0.89
0.7,-0.72,0.91
0.7,-0.73,0.95
0.65,-0.75,0.97
0.61,-0.77,0.95
0.6,-0.75,0.88
0.6,-0.69,0.86
0.61,-0.68,0.84
0.63,-0.68,0.83
0.64,-0.68,0.82
0.64,-0.67,0.8
0.6,-0.6,0.77
0.59,-0.77,0.81
-0.1,-1.19,0.86
-0.14,-0.91,0.83
0.67,-0.54,0.66
0.41,-0.45,0.72
0.3,-0.34,1.02
0.3,-0.86,1.15
-0.13,-0.95,1.25
0.31,-0.46,1.09
1.01,-0.4,0.83
1,-0.41,0.85
0.71,-0.33,0.94
0.56,-0.41,0.98
0.51,-0.46,0.94
0.48,-0.44,0.94
0.49,-0.44,0.93
0.43,-0.39,0.93
0.38,-0.34,0.96
0.36,-0.34,0.96
0.35,-0.34,0.95
0.38,-0.31,0.92
0.37,-0.28,0.89
0.36,-0.25,0.89
0.37,-0.24,0.9
0.37,-0.22,0.9
0.36,-0.19,0.89
0.36,-0.16,0.88
0.36,-0.13,0.88
0.35,-0.13,0.88
0.33,-0.12,0.89
0.3,-0.11,0.89
0.28,-0.1,0.89
0.26,-0.09,0.88
0.24,-0.09,0.87
0.23,-0.08,0.85
0.23,-0.06,0.82
0.24,-0.03,0.8
0.25,-0.01,0.79
0.25,0.02,0.79
0.25,0.04,0.78
0.24,0.05,0.75
0.24,0.05,0.73
0.22,0.04,0.71
0.21,0.05,0.69
0.21,0.06,0.67
0.21,0.08,0.64
0.2,0.14,0.65
0.2,0.15,0.65
0.2,0.14,0.65
0.19,0.13,0.63
0.17,0.12,0.6
0.17,0.14,0.56
0.18,0.18,0.52
0.19,0.22,0.5
0.21,0.24,0.5
0.22,0.24,0.5
0.23,0.24,0.49
0.22,0.24,0.48
0.21,0.22,0.48
0.21,0.21,0.46
0.21,0.2,0.45
0.22,0.22,0.44
0.25,0.25,0.43
0.29,0.26,0.41
0.33,0.26,0.4
0.35,0.25,0.38
0.37,0.21,0.37
0.39,0.18,0.39
0.41,0.19,0.39
0.43,0.2,0.36
0.47,0.21,0.32
0.54,0.22,0.29
0.62,0.2,0.3
0.61,0.16,0.32
0.6,0.11,0.34
0.62,0.08,0.34
0.65,0.08,0.32
0.7,0.09,0.31
0.74,0.1,0.3
0.78,0.08,0.3
0.84,0.04,0.28
0.87,-0.01,0.27
0.88,-0.05,0.28
0.89,-0.07,0.29
0.93,-0.08,0.28
0.96,-0.07,0.27
1,-0.05,0.27
1.04,-0.06,0.29
1.04,-0.12,0.32
1.04,-0.18,0.34
1.05,-0.23,0.33
1.07,-0.26,0.28
1.12,-0.26,0.26
1.17,-0.24,0.3
1.19,-0.23,0.36
1.19,-0.26,0.4
1.16,-0.31,0.43
1.15,-0.35,0.4
1.12,-0.39,0.38
1.12,-0.41,0.39
1.12,-0.42,0.43
1.13,-0.45,0.47
1.14,-0.49,0.5
1.15,-0.5,0.51
1.14,-0.5,0.51
1.14,-0.5,0.5
1.11,-0.51,0.51
1.08,-0.52,0.54
1.06,-0.56,0.57
1.05,-0.59,0.6
1.04,-0.61,0.62
1.04,-0.62,0.62
1.04,-0.64,0.63
1.04,-0.64,0.64
1.01,-0.64,0.64
0.98,-0.64,0.64
0.95,-0.66,0.66
0.94,-0.68,0.69
0.94,-0.7,0.74
0.95,-0.72,0.75
0.94,-0.73,0.73
0.93,-0.72,0.71
0.89,-0.71,0.69
0.86,-0.71,0.67
0.81,-0.73,0.67
0.82,-0.75,0.68
0.83,-0.77,0.71
0.85,-0.76,0.71
0.85,-0.75,0.7
0.84,-0.75,0.69
0.82,-0.76,0.68
0.81,-0.77,0.66
0.79,-0.78,0.66
0.79,-0.79,0.66
0.79,-0.8,0.69
0.8,-0.81,0.73
0.8,-0.8,0.76
0.8,-0.77,0.75
0.79,-0.75,0.76
0.79,-0.74,0.77
0.79,-0.74,0.78
0.77,-0.76,0.78
0.74,-0.77,0.78
0.71,-0.77,0.79
0.7,-0.75,0.81
0.71,-0.74,0.82
0.7,-0.73,0.83
0.68,-0.72,0.85
0.66,-0.72,0.86
0.63,-0.72,0.88
0.59,-0.69,0.9
0.6,-0.66,0.9
0.63,-0.64,0.9
0.64,-0.64,0.9
0.61,-0.62,0.9
0.56,-0.6,0.9
0.51,-0.58,0.91
0.48,-0.56,0.94
0.47,-0.53,0.96
0.46,-0.51,0.96
0.44,-0.5,0.96
0.43,-0.49,0.95
0.44,-0.47,0.94
0.46,-0.46,0.93
0.47,-0.44,0.93
0.46,-0.42,0.93
0.47,-0.4,0.92
0.48,-0.39,0.89
0.49,-0.38,0.87
0.5,-0.37,0.87
0.51,-0.36,0.87
0.51,-0.35,0.86
0.51,-0.34,0.84
0.51,-0.32,0.84
0.5,-0.3,0.85
0.5,-0.28,0.85
0.48,-0.24,0.84
0.46,-0.1,0.72
0.47,-0.04,0.7
0.47,0.01,0.69
0.47,0.05,0.68
0.47,0.07,0.65
0.46,0.08,0.64
0.44,0.1,0.64
0.43,0.13,0.64
0.42,0.16,0.63
0.41,0.18,0.63
0.41,0.18,0.63
0.41,0.17,0.62
0.41,0.16,0.62
0.41,0.16,0.62
0.39,0.16,0.62
0.37,0.19,0.6
0.35,0.22,0.57
0.36,0.23,0.56
0.37,0.23,0.56
0.34,0.23,0.55
0.33,0.24,0.54
0.31,0.26,0.52
0.29,0.29,0.49
0.3,0.3,0.45
0.32,0.32,0.4
0.35,0.33,0.38
0.37,0.33,0.36
0.37,0.31,0.36
0.36,0.29,0.35
0.35,0.29,0.32
0.34,0.31,0.31
0.38,0.34,0.29
0.43,0.33,0.27
0.45,0.3,0.25
0.45,0.28,0.24
0.46,0.27,0.22
0.49,0.27,0.2
0.53,0.26,0.19
0.57,0.26,0.17
0.59,0.25,0.15
0.59,0.25,0.14
0.6,0.25,0.13
0.6,0.25,0.11
0.6,0.24,0.09
0.61,0.21,0.09
0.6,0.12,0.09
0.66,0.07,0.07
0.76,0.03,0.04
0.86,0.01,0
0.93,-0.04,-0.04
0.97,-0.13,-0.08
0.98,-0.24,-0.13
1.01,-0.33,-0.16
1.06,-0.39,-0.17
1.12,-0.43,-0.17
1.17,-0.44,-0.18
1.21,-0.43,-0.17
1.2,-0.43,-0.15
1.15,-0.43,-0.14
1.12,-0.43,-0.08
1.14,-0.46,0.03
1.19,-0.49,0.11
1.23,-0.51,0.14
1.2,-0.5,0.13
1.14,-0.47,0.12
1.1,-0.46,0.09
1.1,-0.48,0.09
1.12,-0.53,0.17
1.14,-0.58,0.28
1.15,-0.6,0.34
1.15,-0.59,0.35
1.09,-0.54,0.35
1.05,-0.54,0.34
1.04,-0.57,0.35
1.05,-0.62,0.42
1.09,-0.63,0.49
1.13,-0.6,0.47
1.16,-0.59,0.41
1.19,-0.62,0.32
1.24,-0.68,0.26
1.27,-0.73,0.25
1.25,-0.74,0.32
1.23,-0.75,0.42
1.22,-0.73,0.47
1.2,-0.71,0.46
1.16,-0.7,0.44
1.12,-0.72,0.43
1.09,-0.73,0.42
1.07,-0.72,0.41
1.06,-0.71,0.42
1.08,-0.71,0.44
1.09,-0.71,0.48
1.09,-0.71,0.49
1.08,-0.71,0.5
1.06,-0.69,0.52
1.04,-0.67,0.54
1.02,-0.68,0.6
1.03,-0.67,0.61
1.05,-0.65,0.6
1.07,-0.64,0.61
1.08,-0.64,0.61
1.07,-0.64,0.62
1.06,-0.65,0.64
1.04,-0.64,0.65
1.04,-0.62,0.66
1.04,-0.62,0.66
1.03,-0.64,0.65
0.99,-0.65,0.65
0.96,-0.63,0.65
0.96,-0.61,0.65
0.98,-0.59,0.66
0.98,-0.58,0.66
0.96,-0.59,0.65
0.94,-0.59,0.64
0.91,-0.59,0.63
0.89,-0.59,0.62
0.87,-0.57,0.62
0.88,-0.53,0.63
0.9,-0.48,0.64
0.92,-0.45,0.65
0.93,-0.44,0.65
0.91,-0.44,0.64
0.86,-0.43,0.65
0.79,-0.4,0.66
0.77,-0.37,0.67
0.77,-0.35,0.69
0.76,-0.33,0.68
0.76,-0.28,0.68
0.75,-0.23,0.67
0.75,-0.18,0.68
0.75,-0.15,0.68
0.74,-0.14,0.69
0.71,-0.14,0.68
0.67,-0.13,0.67
0.63,-0.12,0.65
0.59,-0.1,0.64
0.57,-0.06,0.64
0.55,-0.02,0.64
0.54,0.02,0.63
0.53,0.06,0.63
0.53,0.08,0.63
0.52,0.09,0.64
0.5,0.11,0.63
0.48,0.12,0.61
0.48,0.14,0.6
0.46,0.15,0.6
0.44,0.16,0.6
0.41,0.17,0.59
0.4,0.18,0.58
0.4,0.2,0.58
0.41,0.19,0.58
0.41,0.18,0.59
0.4,0.18,0.59
0.4,0.18,0.58
0.41,0.18,0.58
0.41,0.19,0.58
0.43,0.18,0.57
0.44,0.18,0.57
0.44,0.19,0.56
0.46,0.2,0.55
0.46,0.21,0.54
0.46,0.22,0.52
0.47,0.23,0.5
0.48,0.22,0.51
0.48,0.22,0.51
0.48,0.23,0.49
0.48,0.23,0.48
0.49,0.23,0.46
0.5,0.24,0.41
0.51,0.24,0.37
0.52,0.23,0.34
0.52,0.22,0.3
0.53,0.2,0.28
0.54,0.2,0.28
0.56,0.21,0.27
0.6,0.24,0.25
0.63,0.24,0.24
0.66,0.21,0.22
0.67,0.19,0.19
0.67,0.17,0.15
0.68,0.13,0.12
0.7,0.09,0.11
0.72,0.06,0.1
0.75,0.06,0.1
0.77,0.07,0.1
0.79,0.08,0.1
0.81,0.09,0.1
0.83,0.08,0.1
0.84,0.05,0.1
0.86,0,0.1
0.87,-0.04,0.09
0.89,-0.06,0.07
0.9,-0.06,0.05
0.93,-0.07,0.03
0.97,-0.08,0.03
0.99,-0.08,0.03
1.01,-0.09,0.02
1.01,-0.1,0.02
1.01,-0.13,0.02
1.01,-0.18,0.04
1,-0.21,0.1
1.05,-0.25,0.11
1.09,-0.26,0.12
1.12,-0.27,0.12
1.12,-0.3,0.12
1.11,-0.32,0.12
1.09,-0.34,0.12
1.09,-0.36,0.15
1.13,-0.37,0.18
1.18,-0.37,0.2
1.21,-0.38,0.25
1.21,-0.4,0.29
1.2,-0.42,0.3
1.16,-0.43,0.27
1.12,-0.44,0.24
1.09,-0.46,0.24
1.1,-0.51,0.29
1.15,-0.55,0.36
1.21,-0.57,0.42
1.23,-0.56,0.42
1.22,-0.56,0.39
1.2,-0.55,0.38
1.16,-0.55,0.37
1.11,-0.56,0.36
1.07,-0.58,0.37
1.06,-0.62,0.41
1.09,-0.67,0.5
1.14,-0.69,0.55
1.1,-0.67,0.53
1.05,-0.65,0.5
1.02,-0.64,0.48
1,-0.64,0.48
0.96,-0.65,0.51
0.95,-0.69,0.57
1.02,-0.74,0.61
1.08,-0.77,0.65
1.06,-0.77,0.71
0.95,-0.75,0.74
0.87,-0.73,0.71
0.86,-0.71,0.69
0.9,-0.72,0.72
0.94,-0.74,0.77
0.95,-0.76,0.77
0.95,-0.75,0.75
0.97,-0.74,0.74
0.98,-0.75,0.74
0.96,-0.77,0.74
0.92,-0.78,0.75
0.9,-0.78,0.76
0.91,-0.78,0.77
0.92,-0.76,0.75
0.93,-0.72,0.73
0.93,-0.7,0.71
0.91,-0.69,0.69
0.88,-0.69,0.7
0.85,-0.69,0.7
0.83,-0.68,0.7
0.82,-0.68,0.69
0.81,-0.68,0.68
0.79,-0.68,0.67
0.77,-0.68,0.66
0.75,-0.68,0.64
0.74,-0.65,0.64
0.75,-0.61,0.65
0.76,-0.58,0.66
0.76,-0.58,0.67
0.75,-0.58,0.69
0.73,-0.57,0.71
0.71,-0.55,0.71
0.7,-0.53,0.72
0.71,-0.51,0.73
0.71,-0.5,0.74
0.71,-0.48,0.75
0.71,-0.46,0.78
0.7,-0.44,0.79
0.69,-0.43,0.79
0.67,-0.4,0.79
0.67,-0.37,0.8
0.66,-0.37,0.81
0.64,-0.37,0.8
0.62,-0.34,0.79
0.62,-0.29,0.78
0.64,-0.24,0.79
0.67,-0.22,0.8
0.67,-0.21,0.8
0.64,-0.2,0.79
0.6,-0.19,0.78
0.57,-0.17,0.77
0.56,-0.15,0.76
0.56,-0.13,0.75
0.55,-0.1,0.72
0.56,-0.07,0.71
0.57,-0.05,0.7
0.57,-0.04,0.68
0.57,-0.03,0.67
0.57,-0.01,0.67
0.56,0.02,0.67
0.58,0.05,0.65
0.57,0.08,0.63
0.55,0.09,0.62
0.52,0.1,0.6
0.51,0.1,0.57
0.51,0.1,0.54
0.49,0.14,0.52
0.48,0.17,0.51
0.48,0.21,0.47
0.47,0.23,0.45
0.45,0.23,0.44
0.44,0.22,0.4
0.44,0.22,0.37
0.43,0.23,0.33
0.43,0.24,0.29
0.44,0.27,0.28
0.46,0.31,0.28
0.46,0.34,0.3
0.47,0.35,0.31
0.46,0.34,0.3
0.44,0.32,0.29
0.43,0.32,0.27
0.44,0.34,0.26
0.49,0.36,0.24
0.54,0.37,0.23
0.55,0.36,0.23
0.54,0.35,0.22
0.53,0.34,0.22
0.53,0.33,0.22
0.54,0.34,0.2
0.58,0.37,0.17
0.6,0.38,0.13
0.62,0.37,0.12
0.64,0.35,0.12
0.64,0.3,0.11
0.66,0.3,0.1
0.66,0.31,0.09
0.68,0.31,0.08
0.7,0.29,0.07
0.7,0.27,0.07
0.71,0.25,0.08
0.72,0.24,0.08
0.74,0.23,0.07
0.77,0.23,0.06
0.81,0.22,0.05
0.83,0.21,0.06
0.84,0.18,0.07
0.86,0.15,0.08
0.85,0.12,0.11
0.83,0.09,0.1
0.83,0.06,0.05
0.88,0.03,0.03
0.95,0.01,0.06
0.98,-0.01,0.1
0.99,-0.01,0.13
0.99,-0.01,0.15
0.97,-0.01,0.15
0.97,-0.04,0.15
1,-0.08,0.17
1.02,-0.14,0.21
1.05,-0.24,0.26
1.12,-0.26,0.25
1.11,-0.26,0.25
1.08,-0.25,0.27
1.04,-0.23,0.33
1.01,-0.25,0.39
1.04,-0.29,0.42
1.06,-0.31,0.43
1.03,-0.32,0.43
0.99,-0.33,0.42
1.01,-0.35,0.43
1.06,-0.37,0.45
1.15,-0.38,0.45
1.12,-0.37,0.47
1.12,-0.39,0.52
1.21,-0.41,0.52
1.18,-0.41,0.51
1.14,-0.42,0.49
1.2,-0.44,0.51
1.3,-0.46,0.58
1.38,-0.47,0.64
1.4,-0.47,0.64
1.37,-0.45,0.61
1.33,-0.45,0.61
1.32,-0.46,0.62
1.31,-0.47,0.65
1.32,-0.51,0.65
1.34,-0.53,0.65
1.32,-0.55,0.66
1.29,-0.56,0.66
1.27,-0.56,0.67
1.26,-0.54,0.68
1.25,-0.54,0.69
1.21,-0.55,0.68
1.18,-0.55,0.67
1.17,-0.56,0.68
1.17,-0.57,0.67
1.16,-0.58,0.67
1.14,-0.57,0.66
1.12,-0.58,0.65
1.08,-0.6,0.64
1.04,-0.62,0.64
1.02,-0.63,0.64
1.01,-0.62,0.66
0.98,-0.61,0.67
0.97,-0.59,0.67
0.98,-0.58,0.69
0.98,-0.59,0.7
0.95,-0.61,0.7
0.91,-0.62,0.7
0.89,-0.6,0.71
0.89,-0.57,0.73
0.88,-0.54,0.77
0.85,-0.53,0.78
0.84,-0.53,0.8
0.82,-0.53,0.83
0.8,-0.52,0.85
0.77,-0.51,0.86
0.73,-0.5,0.86
0.72,-0.48,0.86
0.7,-0.46,0.85
0.69,-0.43,0.85
0.68,-0.42,0.87
0.68,-0.42,0.88
0.68,-0.41,0.87
0.69,-0.39,0.85
0.69,-0.37,0.84
0.69,-0.33,0.83
0.68,-0.29,0.82
0.67,-0.26,0.81
0.65,-0.22,0.81
0.62,-0.19,0.83
0.59,-0.17,0.84
0.55,-0.15,0.83
0.53,-0.13,0.83
0.51,-0.1,0.83
0.49,-0.05,0.82
0.5,0.01,0.8
0.51,0.06,0.8
0.52,0.07,0.81
0.5,0.07,0.8
0.5,0.07,0.79
0.49,0.07,0.76
0.48,0.1,0.74
0.47,0.11,0.72
0.46,0.12,0.72
0.44,0.13,0.72
0.41,0.15,0.7
0.39,0.18,0.69
0.37,0.2,0.68
0.37,0.22,0.66
0.36,0.25,0.65
0.35,0.28,0.64
0.33,0.28,0.61
0.32,0.27,0.58
0.3,0.29,0.55
0.28,0.3,0.54
0.26,0.29,0.54
0.26,0.31,0.54
0.26,0.37,0.52
0.28,0.4,0.5
0.3,0.41,0.49
0.3,0.39,0.48
0.28,0.41,0.47
0.26,0.45,0.47
0.27,0.44,0.44
0.31,0.4,0.4
0.33,0.44,0.39
0.32,0.45,0.39
0.34,0.42,0.37
0.37,0.39,0.35
0.35,0.38,0.35
0.33,0.36,0.33
0.34,0.36,0.3
0.35,0.41,0.28
0.37,0.44,0.28
0.4,0.44,0.29
0.4,0.42,0.29
0.39,0.4,0.3
0.38,0.4,0.31
0.38,0.43,0.32
0.4,0.49,0.32
0.45,0.5,0.31
0.51,0.46,0.28
0.54,0.44,0.26
0.52,0.41,0.26
0.54,0.38,0.24
0.57,0.41,0.23
0.6,0.46,0.21
0.63,0.45,0.19
0.65,0.39,0.18
0.66,0.38,0.16
0.68,0.4,0.12
0.72,0.41,0.06
0.75,0.41,0.02
0.74,0.4,-0.01
0.76,0.39,-0.03
0.81,0.38,-0.06
0.84,0.36,-0.1
0.87,0.35,-0.11
0.91,0.37,-0.11
0.97,0.39,-0.13
1.02,0.36,-0.14
1.03,0.33,-0.15
1.02,0.32,-0.17
1.03,0.32,-0.18
1.07,0.33,-0.17
1.14,0.33,-0.15
1.2,0.3,-0.12
1.27,0.25,-0.08
1.31,0.2,-0.07
1.36,0.17,-0.08
1.4,0.18,-0.09
1.45,0.22,-0.09
1.5,0.22,-0.06
1.56,0.19,0.01
1.59,0.18,0.09
1.64,0.2,0.08
1.68,0.19,0.07
1.71,0.19,0.09
1.73,0.19,0.11
1.72,0.19,0.12
1.71,0.19,0.12
1.71,0.19,0.11
1.7,0.19,0.11
1.7,0.16,0.1
1.68,0.13,0.09
1.66,0.11,0.08
1.64,0.1,0.07
1.59,0.11,0.07
1.54,0.12,0.07
1.47,0.13,0.07
1.41,0.12,0.05
1.35,0.1,0.03
1.29,0.09,0.02
1.22,0.09,0.01
1.18,0.12,0
1.15,0.14,-0.01
1.13,0.15,-0.02
1.1,0.15,-0.03
