Acc_x,Acc_y,Acc_z
0,0,0
0,0,0
0,0,0
0,0,0
0,0,0
0,0,0
0,0,0
0,0,0
0,0,0
0,0,0
0,0,0
0,0,0
0,0,0
0,0,0
0,0,0
0,0,0
0,0,0
0,0,0
0,0,0
0,0,0
0,0,0
0,0,0
0,0,0
0,0,0
0,0,0
0,0,0
0,0,0
0,0,0
0,0,0
0,0,0
0,0,0
0,0,0
0,0,0
0,0,0
0,0,0
0,0,0
0,0,0
0,0,0
0,0,0
0,0,0
0,0,0
0,0,0
0,0,0
0,0,0
0,0,0
0,0,0
0,0,0
0,0,0
0,0,0
0,0,0
0,0,0
0,0,0
0,0,0
0,0,0
0,0,0
0,0,0
0,0,0
0,0,0
0,0,0
0,0,0
0,0,0
0,0,0
0,0,0
0,0,0
0,0,0
0,0,0
0,0,0
0,0,0
0,0,0
0,0,0
0,0,0
0,0,0
0,0,0
0,0,0
0,0,0
0,0,0
0,0,0
0,0,0
0,0,0
0,0,0
0,0,0
0,0,0
0,0,0
0,0,0
0,0,0
0,0,0
0,0,0
0,0,0
0,0,0
0,0,0
0,0,0
0,0,0
0,0,0
0,0,0
0,0,0
0,0,0
0,0,0
0,0,0
0,0,0
0,0,0
0,0,0
0,0,0
0,0,0
0,0,0
0,0,0
0,0,0
0,0,0
0,0,0
0,0,0
0,0,0
0,0,0
0,0,0
0,0,0
0,0,0
0,0,0
0,0,0
0,0,0
0,0,0
0,0,0
0,0,0
0,0,0
0,0,0
0,0,0
0,0,0
0,0,0
0,0,0
0,0,0
0,0,0
0,0,0
0,0,0
0,0,0
0,0,0
0,0,0
0,0,0
0,0,0
0,0,0
0,0,0
0,0,0
0,0,0
0,0,0
0,0,0
0,0,0
0,0,0
0,0,0
0,0,0
0,0,0
0,0,0
0,0,0
0,0,0
0,0,0
0,0,0
0,0,0
0,0,0
0,0,0
0,0,0
0,0,0
0,0,0
0,0,0
0,0,0
0,0,0
0,0,0
0,0,0
0,0,0
0,0,0
0,0,0
0,0,0
0,0,0
0,0,0
0,0,0
0,0,0
0,0,0
0,0,0
0,0,0
0,0,0
0,0,0
0,0,0
0,0,0
0,0,0
0,0,0
0,0,0
0,0,0
0,0,0
0,0,0
0,0,0
0,0,0
0,0,0
0,0,0
0,0,0
0,0,0
0,0,0
0,0,0
0,0,0
0,0,0
0,0,0
0,0,0
0,0,0
0,0,0
0,0,0
0,0,0
0,0,0
0,0,0
0,0,0
0,0,0
0,0,0
0,0,0
0,0,0
0,0,0
0,0,0
0,0,0
0,0,0
0,0,0
0,0,0
0,0,0
0,0,0
0,0,0
0,0,0
0,0,0
0,0,0
0,0,0
0,0,0
0,0,0
0,0,0
0,0,0
0,0,0
0,0,0
0,0,0
0,0,0
0,0,0
0,0,0
0,0,0
0,0,0
0,0,0
0,0,0
0,0,0
0,0,0
0,0,0
0,0,0
0,0,0
0,0,0
0,0,0
0,0,0
0,0,0
0,0,0
0,0,0
0,0,0
0,0,0
0,0,0
0,0,0
0,0,0
0,0,0
0,0,0
0,0,0
0,0,0
0,0,0
0,0,0
0,0,0
0,0,0
0,0,0
0,0,0
0,0,0
0,0,0
0,0,0
0,0,0
0,0,0
0,0,0
0,0,0
0,0,0
0,0,0
0,0,0
0,0,0
0,0,0
0,0,0
0,0,0
0,0,0
0,0,0
0,0,0
0,0,0
0,0,0
0,0,0
0,0,0
0,0,0
0,0,0
0,0,0
0,0,0
0,0,0
0,0,0
0,0,0
0,0,0
0,0,0
0,0,0
0,0,0
0,0,0
0,0,0
0,0,0
0,0,0
0,0,0
0,0,0
0,0,0
0,0,0
0,0,0
0,0,0
0,0,0
0,0,0
0,0,0
0,0,0
0,0,0
0,0,0
0,0,0
0,0,0
0,0,0
0,0,0
0,0,0
0,0,0
0,0,0
0,0,0
0,0,0
0,0,0
0,0,0
0,0,0
0,0,0
0,0,0
0,0,0
0,0,0
0,0,0
0,0,0
0,0,0
0,0,0
0,0,0
0,0,0
0,0,0
0,0,0
0,0,0
0,0,0
0,0,0
0,0,0
0,0,0
0,0,0
0,0,0
0,0,0
0,0,0
0,0,0
0,0,0
0,0,0
0,0,0
0,0,0
0,0,0
0,0,0
0,0,0
0,0,0
0,0,0
0,0,0
0,0,0
0,0,0
0,0,0
0,0,0
0,0,0
0,0,0
0,0,0
0,0,0
0,0,0
0,0,0
0,0,0
0,0,0
0,0,0
0,0,0
0,0,0
0,0,0
0,0,0
0,0,0
0,0,0
0,0,0
0,0,0
0,0,0
0,0,0
0,0,0
0,0,0
0,0,0
0,0,0
0,0,0
0,0,0
0,0,0
0,0,0
0,0,0
0,0,0
0,0,0
0,0,0
0,0,0
0,0,0
0,0,0
0,0,0
0,0,0
0,0,0
0,0,0
0,0,0
0,0,0
0,0,0
0,0,0
0,0,0
0,0,0
0,0,0
0,0,0
0,0,0
0,0,0
0,0,0
0,0,0
0,0,0
0,0,0
0,0,0
0,0,0
0,0,0
0,0,0
0,0,0
0,0,0
0,0,0
0,0,0
0,0,0
0,0,0
0,0,0
0,0,0
0,0,0
0,0,0
0,0,0
0,0,0
0,0,0
0,0,0
0,0,0
0,0,0
0,0,0
0,0,0
0,0,0
0,0,0
0,0,0
0,0,0
0,0,0
0,0,0
0,0,0
0,0,0
0,0,0
0,0,0
0,0,0
0,0,0
0,0,0
0,0,0
0,0,0
0,0,0
0,0,0
0,0,0
0,0,0
0,0,0
0,0,0
0,0,0
0,0,0
0,0,0
0,0,0
0,0,0
0,0,0
0,0,0
0,0,0
0,0,0
0,0,0
0,0,0
0,0,0
0,0,0
0,0,0
0,0,0
0,0,0
0,0,0
0,0,0
0,0,0
0,0,0
0,0,0
0,0,0
0,0,0
0,0,0
0,0,0
0,0,0
0,0,0
0,0,0
0,0,0
0,0,0
0,0,0
0,0,0
0,0,0
0,0,0
0,0,0
0,0,0
0,0,0
0,0,0
0,0,0
0,0,0
0,0,0
0,0,0
0,0,0
0,0,0
0,0,0
0,0,0
0,0,0
0,0,0
0,0,0
0,0,0
0,0,0
0,0,0
0,0,0
0,0,0
0,0,0
0,0,0
0,0,0
0,0,0
0,0,0
0,0,0
0,0,0
0,0,0
0,0,0
0,0,0
0,0,0
0,0,0
0,0,0
0,0,0
0,0,0
0,0,0
0,0,0
0,0,0
0,0,0
0,0,0
0,0,0
0,0,0
0,0,0
0,0,0
0,0,0
0,0,0
0,0,0
0,0,0
0,0,0
0,0,0
0,0,0
0,0,0
0,0,0
0,0,0
0,0,0
0,0,0
0,0,0
0,0,0
0,0,0
0,0,0
0,0,0
0,0,0
0,0,0
0,0,0
0,0,0
0,0,0
0,0,0
0,0,0
0,0,0
0,0,0
0,0,0
0,0,0
0,0,0
0,0,0
0,0,0
0,0,0
0,0,0
0,0,0
0,0,0
0,0,0
0,0,0
0,0,0
0,0,0
0,0,0
0,0,0
0,0,0
0,0,0
0,0,0
0,0,0
0,0,0
0,0,0
0,0,0
0,0,0
0,0,0
0,0,0
0,0,0
0,0,0
0,0,0
0,0,0
0,0,0
0,0,0
0,0,0
0,0,0
0,0,0
0,0,0
0,0,0
0,0,0
0,0,0
0,0,0
0,0,0
0,0,0
0,0,0
0,0,0
0,0,0
0,0,0
0,0,0
0,0,0
0,0,0
0,0,0
0,0,0
0,0,0
0,0,0
0,0,0
0,0,0
0,0,0
0,0,0
0,0,0
0,0,0
0,0,0
0,0,0
0,0,0
0,0,0
0,0,0
0,0,0
0,0,0
0,0,0
0,0,0
0,0,0
0,0,0
0,0,0
0,0,0
0,0,0
0,0,0
0,0,0
0,0,0
0,0,0
0,0,0
0,0,0
0,0,0
0,0,0
0,0,0
0,0,0
0,0,0
0,0,0
0,0,0
0,0,0
0,0,0
0,0,0
0,0,0
0,0,0
0,0,0
0,0,0
0,0,0
0,0,0
0,0,0
0,0,0
0,0,0
0,0,0
0,0,0
0,0,0
0,0,0
0,0,0
0,0,0
0,0,0
0,0,0
0,0,0
0,0,0
0,0,0
0,0,0
0,0,0
0,0,0
0,0,0
0,0,0
0,0,0
0,0,0
0,0,0
0,0,0
0,0,0
0,0,0
0,0,0
0,0,0
0,0,0
0,0,0
0,0,0
0,0,0
0,0,0
0,0,0
0,0,0
0,0,0
0,0,0
0,0,0
0,0,0
0,0,0
0,0,0
0,0,0
0,0,0
0,0,0
0,0,0
0,0,0
0,0,0
0,0,0
0,0,0
0,0,0
0,0,0
0,0,0
0,0,0
0,0,0
0,0,0
0,0,0
0,0,0
0,0,0
0,0,0
0,0,0
0,0,0
0,0,0
0,0,0
0,0,0
0,0,0
0,0,0
0,0,0
0,0,0
0,0,0
0,0,0
0,0,0
0,0,0
0,0,0
0,0,0
0,0,0
0,0,0
0,0,0
0,0,0
0,0,0
0,0,0
0,0,0
0,0,0
0,0,0
0,0,0
0,0,0
0,0,0
0,0,0
0,0,0
0,0,0
0,0,0
0,0,0
0,0,0
0,0,0
0,0,0
0,0,0
0,0,0
0,0,0
0,0,0
0,0,0
0,0,0
0,0,0
0,0,0
0,0,0
0,0,0
0,0,0
0,0,0
0,0,0
0,0,0
0,0,0
0,0,0
0,0,0
0,0,0
0,0,0
0,0,0
0,0,0
0,0,0
0,0,0
0,0,0
0,0,0
0,0,0
0,0,0
0,0,0
0,0,0
0,0,0
0,0,0
0,0,0
0,0,0
0,0,0
0,0,0
0,0,0
0,0,0
0,0,0
0,0,0
0,0,0
0,0,0
0,0,0
0,0,0
0,0,0
0,0,0
0,0,0
0,0,0
0,0,0
0,0,0
0,0,0
0,0,0
0,0,0
0,0,0
0,0,0
0,0,0
0,0,0
0,0,0
0,0,0
0,0,0
0,0,0
0,0,0
0,0,0
0,0,0
0,0,0
0,0,0
0,0,0
0,0,0
0,0,0
0,0,0
0,0,0
0,0,0
0,0,0
0,0,0
0,0,0
0,0,0
0,0,0
0,0,0
0,0,0
0,0,0
0,0,0
0,0,0
0,0,0
0,0,0
0,0,0
0,0,0
0,0,0
0,0,0
0,0,0
0,0,0
0,0,0
0,0,0
0,0,0
0,0,0
0,0,0
0,0,0
0,0,0
0,0,0
0.51,0.45,0.74
0.51,0.45,0.73
0.51,0.45,0.73
0.52,0.45,0.73
0.52,0.45,0.73
0.51,0.45,0.74
0.51,0.45,0.74
0.5,0.45,0.74
0.5,0.45,0.74
0.5,0.45,0.74
0.5,0.45,0.74
0.5,0.45,0.74
0.5,0.45,0.74
0.51,0.45,0.73
0.51,0.45,0.73
0.52,0.45,0.73
0.52,0.45,0.74
0.52,0.45,0.74
0.51,0.45,0.74
0.51,0.45,0.74
0.51,0.45,0.74
0.51,0.45,0.74
0.51,0.45,0.74
0.51,0.45,0.73
0.52,0.45,0.73
0.52,0.45,0.73
0.52,0.45,0.74
0.52,0.45,0.74
0.52,0.44,0.74
0.51,0.44,0.74
0.51,0.44,0.74
0.51,0.45,0.74
0.51,0.45,0.74
0.51,0.45,0.74
0.51,0.45,0.73
0.52,0.46,0.73
0.52,0.45,0.73
0.51,0.45,0.73
0.51,0.45,0.73
0.51,0.45,0.73
0.51,0.45,0.74
0.5,0.45,0.74
0.5,0.45,0.75
0.5,0.45,0.75
0.5,0.44,0.75
0.51,0.44,0.75
0.51,0.44,0.74
0.51,0.45,0.74
0.51,0.44,0.74
0.52,0.44,0.74
0.52,0.44,0.74
0.52,0.44,0.74
0.51,0.44,0.75
0.51,0.44,0.75
0.51,0.44,0.75
0.51,0.44,0.74
0.52,0.44,0.74
0.53,0.44,0.74
0.53,0.44,0.74
0.52,0.44,0.75
0.5,0.44,0.76
0.5,0.43,0.76
0.5,0.44,0.76
0.5,0.45,0.75
0.49,0.45,0.75
0.48,0.46,0.75
0.48,0.46,0.75
0.49,0.46,0.75
0.49,0.46,0.75
0.48,0.46,0.74
0.46,0.47,0.74
0.46,0.47,0.73
0.47,0.47,0.72
0.47,0.47,0.72
0.5,0.47,0.73
0.54,0.45,0.74
0.59,0.43,0.74
0.64,0.4,0.78
0.68,0.35,0.8
0.67,0.33,0.82
0.66,0.31,0.82
0.7,0.31,0.8
0.74,0.32,0.8
0.72,0.35,0.82
0.67,0.4,0.82
0.62,0.46,0.84
0.63,0.49,0.88
0.63,0.48,0.89
0.66,0.49,0.88
0.71,0.48,0.85
0.73,0.46,0.83
0.73,0.41,0.84
0.74,0.38,0.85
0.74,0.37,0.85
0.71,0.36,0.82
0.71,0.34,0.79
0.73,0.33,0.76
0.72,0.32,0.76
0.71,0.31,0.78
0.71,0.32,0.78
0.69,0.32,0.78
0.67,0.3,0.77
0.66,0.28,0.76
0.67,0.24,0.74
0.67,0.2,0.73
0.66,0.18,0.7
0.67,0.17,0.67
0.7,0.16,0.67
0.73,0.14,0.68
0.75,0.13,0.7
0.75,0.12,0.71
0.74,0.12,0.71
0.72,0.12,0.71
0.68,0.11,0.71
0.66,0.11,0.67
0.67,0.11,0.62
0.68,0.1,0.59
0.71,0.11,0.57
0.75,0.11,0.57
0.78,0.13,0.54
0.78,0.13,0.54
0.77,0.12,0.57
0.75,0.11,0.58
0.73,0.1,0.58
0.72,0.1,0.56
0.7,0.11,0.54
0.68,0.11,0.53
0.67,0.11,0.52
0.68,0.11,0.52
0.69,0.11,0.5
0.74,0.1,0.51
0.76,0.09,0.53
0.76,0.09,0.54
0.75,0.1,0.54
0.73,0.11,0.54
0.72,0.12,0.53
0.73,0.13,0.53
0.74,0.14,0.54
0.78,0.15,0.59
0.81,0.15,0.61
0.81,0.13,0.6
0.8,0.13,0.62
0.81,0.12,0.63
0.84,0.12,0.64
0.87,0.13,0.64
0.89,0.14,0.66
0.89,0.15,0.67
0.89,0.14,0.68
0.9,0.13,0.68
0.94,0.13,0.68
0.98,0.14,0.69
1,0.14,0.68
1.02,0.12,0.68
1.02,0.1,0.67
1,0.09,0.64
0.99,0.07,0.62
0.97,0.04,0.61
0.94,0.04,0.61
0.92,0.03,0.6
0.9,0.03,0.56
0.85,0.04,0.5
0.8,0.06,0.45
0.79,0.08,0.41
0.79,0.09,0.39
0.78,0.1,0.39
0.75,0.11,0.38
0.75,0.12,0.38
0.77,0.13,0.37
0.8,0.14,0.36
0.84,0.16,0.34
0.87,0.18,0.34
0.87,0.19,0.35
0.87,0.22,0.36
0.88,0.23,0.37
0.88,0.23,0.38
0.9,0.22,0.38
0.92,0.2,0.38
0.93,0.17,0.38
0.94,0.14,0.38
0.97,0.11,0.38
0.99,0.09,0.39
1.01,0.07,0.4
1.03,0.03,0.41
1.01,0.02,0.41
1.01,0.01,0.41
1,0,0.39
0.98,0,0.37
0.98,0,0.36
0.98,-0.02,0.36
0.98,-0.04,0.36
1,-0.06,0.34
1.01,-0.08,0.33
1.02,-0.07,0.32
1.01,-0.06,0.3
0.99,-0.06,0.29
0.97,-0.06,0.28
0.95,-0.06,0.29
0.93,-0.07,0.29
0.9,-0.09,0.3
0.87,-0.1,0.3
0.84,-0.11,0.29
0.8,-0.11,0.28
0.78,-0.1,0.27
0.77,-0.1,0.27
0.77,-0.11,0.28
0.78,-0.11,0.28
0.81,-0.12,0.29
0.81,-0.14,0.3
0.81,-0.13,0.3
0.79,-0.12,0.29
0.78,-0.11,0.28
0.77,-0.09,0.28
0.76,-0.08,0.27
0.77,-0.08,0.27
0.79,-0.09,0.28
0.82,-0.09,0.28
0.87,-0.09,0.28
0.91,-0.11,0.29
0.94,-0.13,0.31
0.95,-0.14,0.31
0.94,-0.16,0.31
0.93,-0.17,0.3
0.92,-0.17,0.3
0.92,-0.17,0.29
0.93,-0.17,0.3
0.95,-0.17,0.32
0.96,-0.18,0.32
0.98,-0.2,0.33
1.01,-0.2,0.34
1.03,-0.22,0.37
1.04,-0.22,0.39
1.05,-0.22,0.39
1.05,-0.23,0.39
1.04,-0.23,0.4
1.03,-0.24,0.47
1.05,-0.25,0.51
1.05,-0.26,0.56
1.04,-0.27,0.59
1.01,-0.29,0.59
0.98,-0.3,0.59
0.98,-0.29,0.59
0.98,-0.28,0.59
0.96,-0.26,0.61
0.94,-0.24,0.64
0.93,-0.23,0.65
0.89,-0.22,0.68
0.84,-0.2,0.72
0.85,-0.18,0.73
0.83,-0.18,0.75
0.8,-0.17,0.78
0.78,-0.15,0.8
0.78,-0.13,0.81
0.8,-0.1,0.82
0.8,-0.08,0.84
0.78,-0.06,0.87
0.75,-0.03,0.89
0.75,0,0.9
0.75,0.03,0.9
0.73,0.03,0.91
0.75,0.04,0.91
0.74,0.06,0.95
0.72,0.08,0.97
0.73,0.1,0.99
0.74,0.13,1.01
0.74,0.15,1.01
0.72,0.15,1.01
0.67,0.12,1.01
0.59,0.1,1.02
0.51,0.09,1.01
0.48,0.08,0.99
0.48,0.08,0.96
0.49,0.08,0.92
0.49,0.07,0.87
0.5,0.05,0.83
0.5,0.03,0.83
0.48,0.01,0.84
0.45,-0.01,0.83
0.42,-0.01,0.81
0.4,0,0.77
0.39,0.01,0.75
0.39,0.01,0.72
0.4,0.02,0.71
0.42,0.01,0.7
0.43,0,0.68
0.43,-0.02,0.66
0.44,-0.02,0.64
0.46,-0.01,0.63
0.55,-0.03,0.64
0.59,-0.04,0.67
0.62,-0.07,0.7
0.65,-0.09,0.72
0.67,-0.11,0.73
0.68,-0.14,0.76
0.7,-0.15,0.8
0.72,-0.15,0.84
0.73,-0.13,0.87
0.74,-0.11,0.88
0.76,-0.1,0.88
0.77,-0.09,0.88
0.76,-0.08,0.88
0.73,-0.07,0.88
0.69,-0.07,0.88
0.67,-0.07,0.88
0.63,-0.06,0.87
0.59,-0.06,0.86
0.59,-0.06,0.84
0.64,-0.06,0.82
0.68,-0.06,0.81
0.69,-0.06,0.8
0.68,-0.05,0.79
0.66,-0.05,0.77
0.64,-0.04,0.75
0.62,-0.03,0.73
0.59,0,0.72
0.58,0.01,0.72
0.58,0.01,0.72
0.58,0.01,0.73
0.58,0,0.73
0.58,0,0.72
0.58,-0.01,0.7
0.61,-0.01,0.7
0.64,0,0.7
0.64,0,0.71
0.62,0,0.74
0.59,-0.01,0.76
0.59,-0.03,0.77
0.58,-0.05,0.75
0.57,-0.06,0.73
0.56,-0.06,0.72
0.55,-0.06,0.71
0.54,-0.05,0.69
0.52,-0.04,0.68
0.51,-0.03,0.68
0.5,-0.01,0.69
0.5,0,0.7
0.51,0.02,0.7
0.51,0.03,0.71
0.49,0.03,0.73
0.47,0.02,0.78
0.54,-0.01,0.79
0.61,-0.03,0.8
0.64,-0.04,0.82
0.63,-0.04,0.86
0.62,-0.03,0.89
0.6,-0.01,0.92
0.59,0.01,0.95
0.58,0.02,0.97
0.56,0.03,0.99
0.54,0.02,0.98
0.54,-0.01,0.96
0.57,-0.06,0.96
0.62,-0.12,0.98
0.64,-0.19,1.01
0.62,-0.24,1.03
0.6,-0.3,1.07
0.6,-0.34,1.13
0.58,-0.37,1.18
0.54,-0.38,1.2
0.51,-0.35,1.19
0.48,-0.3,1.16
0.46,-0.24,1.12
0.46,-0.2,1.08
0.46,-0.17,1.05
0.45,-0.13,1.01
0.43,-0.09,0.9
0.38,0,0.86
0.36,0.03,0.83
0.35,0.05,0.81
0.35,0.06,0.79
0.35,0.06,0.8
0.35,0.06,0.8
0.36,0.07,0.78
0.37,0.09,0.76
0.39,0.11,0.74
0.41,0.13,0.72
0.42,0.14,0.7
0.42,0.15,0.69
0.4,0.15,0.67
0.39,0.15,0.65
0.38,0.14,0.64
0.39,0.13,0.65
0.41,0.12,0.67
0.42,0.12,0.7
0.44,0.12,0.73
0.44,0.12,0.75
0.44,0.12,0.75
0.45,0.12,0.74
0.46,0.12,0.72
0.47,0.13,0.71
0.46,0.13,0.7
0.44,0.13,0.7
0.42,0.14,0.7
0.45,0.15,0.72
0.49,0.15,0.77
0.52,0.15,0.83
0.53,0.15,0.87
0.53,0.15,0.88
0.52,0.16,0.87
0.51,0.18,0.84
0.49,0.19,0.83
0.48,0.19,0.81
0.48,0.19,0.8
0.49,0.19,0.8
0.51,0.2,0.81
0.53,0.23,0.84
0.52,0.26,0.87
0.49,0.28,0.89
0.47,0.29,0.9
0.44,0.28,0.91
0.42,0.25,0.93
0.4,0.24,0.95
0.39,0.24,0.96
0.38,0.24,0.95
0.38,0.24,0.93
0.4,0.22,0.93
0.42,0.2,0.94
0.43,0.2,0.96
0.42,0.26,0.97
0.36,0.31,0.96
0.34,0.38,0.94
0.33,0.43,0.9
0.33,0.45,0.87
0.35,0.46,0.89
0.37,0.47,0.91
0.4,0.48,0.91
0.41,0.49,0.89
0.42,0.5,0.86
0.42,0.52,0.85
0.4,0.53,0.84
0.38,0.53,0.84
0.36,0.54,0.83
0.35,0.53,0.84
0.35,0.53,0.88
0.35,0.53,0.92
0.34,0.53,0.93
0.33,0.54,0.93
0.32,0.55,0.92
0.34,0.57,0.89
0.36,0.58,0.86
0.35,0.57,0.84
0.35,0.57,0.86
0.34,0.56,0.9
0.33,0.54,0.95
0.32,0.51,1.03
0.32,0.49,1.02
0.32,0.48,0.99
0.32,0.46,0.95
0.31,0.45,0.9
0.33,0.45,0.85
0.4,0.43,0.81
0.47,0.45,0.8
0.52,0.49,0.83
0.52,0.5,0.87
0.46,0.49,0.88
0.44,0.48,0.87
0.45,0.46,0.82
0.45,0.45,0.76
0.44,0.44,0.71
0.42,0.45,0.68
0.43,0.46,0.65
0.44,0.46,0.64
0.45,0.45,0.63
0.45,0.45,0.65
0.43,0.44,0.69
0.4,0.43,0.74
0.37,0.43,0.75
0.36,0.43,0.75
0.37,0.44,0.75
0.37,0.45,0.74
0.37,0.48,0.74
0.4,0.49,0.76
0.43,0.5,0.79
0.46,0.49,0.82
0.49,0.48,0.85
0.52,0.48,0.88
0.53,0.47,0.89
0.53,0.46,0.88
0.52,0.45,0.86
0.52,0.44,0.83
0.51,0.45,0.8
0.51,0.46,0.78
0.5,0.46,0.76
0.5,0.47,0.74
0.5,0.48,0.74
0.5,0.5,0.74
0.5,0.51,0.75
0.49,0.5,0.76
0.49,0.5,0.77
0.48,0.5,0.77
0.48,0.49,0.76
0.47,0.49,0.76
0.46,0.48,0.75
0.45,0.49,0.74
0.45,0.5,0.74
0.44,0.5,0.74
0.44,0.49,0.75
0.43,0.48,0.77
0.43,0.47,0.78
0.44,0.46,0.79
0.44,0.46,0.79
0.43,0.46,0.8
0.43,0.45,0.8
0.43,0.46,0.8
0.44,0.46,0.81
0.45,0.47,0.83
0.46,0.48,0.84
0.46,0.48,0.85
0.46,0.48,0.86
0.47,0.47,0.87
0.47,0.47,0.88
0.47,0.47,0.88
0.47,0.47,0.88
0.46,0.48,0.87
0.46,0.48,0.84
0.46,0.49,0.82
0.48,0.5,0.79
0.5,0.51,0.76
0.51,0.51,0.73
0.52,0.5,0.71
0.52,0.5,0.67
0.52,0.49,0.66
0.51,0.5,0.65
0.52,0.49,0.65
0.52,0.49,0.64
0.51,0.49,0.66
0.51,0.49,0.68
0.5,0.48,0.66
0.5,0.48,0.66
0.49,0.47,0.66
0.48,0.46,0.64
0.46,0.46,0.66
0.45,0.45,0.68
0.44,0.45,0.69
0.42,0.45,0.69
0.41,0.44,0.68
0.38,0.44,0.71
0.35,0.42,0.74
0.32,0.42,0.77
0.31,0.41,0.77
0.3,0.39,0.77
0.27,0.39,0.81
0.27,0.4,0.83
0.25,0.41,0.83
0.25,0.42,0.83
0.24,0.42,0.83
0.22,0.42,0.84
0.2,0.42,0.82
0.19,0.43,0.82
0.17,0.44,0.85
0.17,0.44,0.89
0.18,0.42,0.93
0.21,0.41,0.96
0.24,0.42,0.97
0.26,0.43,0.96
0.28,0.44,0.95
0.27,0.45,0.92
0.27,0.45,0.89
0.26,0.44,0.86
0.25,0.44,0.84
0.25,0.43,0.83
0.25,0.44,0.83
0.25,0.44,0.84
0.26,0.44,0.85
0.26,0.43,0.86
0.27,0.43,0.88
0.27,0.42,0.89
0.26,0.42,0.9
0.26,0.43,0.9
0.26,0.43,0.91
0.25,0.43,0.9
0.25,0.42,0.9
0.26,0.41,0.9
0.27,0.4,0.9
0.28,0.4,0.89
0.29,0.39,0.88
0.29,0.39,0.87
0.29,0.4,0.86
0.29,0.41,0.87
0.29,0.42,0.87
0.3,0.42,0.87
0.29,0.42,0.87
0.29,0.43,0.86
0.29,0.44,0.85
0.27,0.43,0.85
0.27,0.43,0.84
0.27,0.45,0.84
0.26,0.45,0.85
0.26,0.45,0.85
0.26,0.45,0.87
0.26,0.45,0.89
0.27,0.44,0.9
0.28,0.43,0.91
0.29,0.42,0.91
0.29,0.41,0.89
0.29,0.4,0.88
0.29,0.41,0.86
0.28,0.41,0.85
0.28,0.41,0.84
0.28,0.42,0.84
0.28,0.42,0.86
0.27,0.42,0.87
0.26,0.41,0.87
0.25,0.41,0.86
0.24,0.41,0.86
0.24,0.41,0.86
0.24,0.42,0.86
0.25,0.42,0.86
0.26,0.42,0.85
0.26,0.41,0.85
0.27,0.41,0.85
0.28,0.41,0.85
0.3,0.41,0.86
0.31,0.42,0.87
0.32,0.42,0.87
0.33,0.41,0.87
0.33,0.41,0.87
0.32,0.41,0.87
0.31,0.41,0.88
0.3,0.42,0.88
0.29,0.42,0.88
0.29,0.42,0.88
0.29,0.42,0.88
0.29,0.42,0.87
0.29,0.42,0.86
0.29,0.42,0.86
0.29,0.42,0.85
0.28,0.43,0.85
0.28,0.43,0.85
0.28,0.43,0.85
0.28,0.44,0.85
0.28,0.44,0.85
0.28,0.43,0.85
0.28,0.43,0.85
0.29,0.43,0.85
0.29,0.43,0.85
0.29,0.43,0.85
0.3,0.43,0.85
0.3,0.43,0.86
0.3,0.43,0.86
0.3,0.43,0.86
0.3,0.42,0.86
0.3,0.42,0.86
0.3,0.42,0.86
0.3,0.42,0.86
0.3,0.42,0.86
0.29,0.42,0.86
0.29,0.42,0.86
0.29,0.42,0.86
0.29,0.41,0.87
0.28,0.41,0.87
0.28,0.41,0.87
0.29,0.42,0.86
0.29,0.42,0.85
0.3,0.42,0.85
0.3,0.42,0.85
0.3,0.43,0.85
0.29,0.42,0.85
0.29,0.43,0.85
0.28,0.43,0.85
0.28,0.43,0.85
0.28,0.44,0.85
0.29,0.44,0.84
0.29,0.44,0.84
0.29,0.44,0.85
0.29,0.43,0.85
0.3,0.43,0.85
0.3,0.42,0.85
0.3,0.43,0.85
0.31,0.43,0.84
0.3,0.42,0.84
0.3,0.42,0.85
0.3,0.42,0.85
0.29,0.41,0.85
0.29,0.41,0.85
0.28,0.41,0.84
0.28,0.41,0.84
0.28,0.41,0.83
0.28,0.42,0.82
0.29,0.42,0.81
0.32,0.43,0.8
0.34,0.43,0.81
0.35,0.44,0.81
0.35,0.44,0.81
0.37,0.45,0.81
0.37,0.46,0.81
0.37,0.46,0.8
0.38,0.46,0.8
0.38,0.47,0.8
0.39,0.48,0.8
0.4,0.48,0.8
0.41,0.48,0.8
0.42,0.48,0.8
0.43,0.48,0.8
0.44,0.49,0.79
0.44,0.49,0.79
0.45,0.49,0.79
0.45,0.49,0.79
0.45,0.49,0.78
0.46,0.49,0.78
0.46,0.49,0.77
0.47,0.49,0.78
0.47,0.49,0.78
0.48,0.49,0.78
0.48,0.49,0.78
0.47,0.49,0.78
0.46,0.49,0.78
0.46,0.49,0.78
0.46,0.49,0.78
0.45,0.49,0.77
0.44,0.48,0.77
0.44,0.48,0.77
0.44,0.48,0.77
0.43,0.48,0.76
0.43,0.48,0.76
0.43,0.48,0.76
0.43,0.47,0.76
0.42,0.47,0.76
0.42,0.47,0.76
0.42,0.47,0.77
0.42,0.48,0.77
0.42,0.48,0.78
0.41,0.47,0.78
0.41,0.47,0.78
0.41,0.47,0.79
0.41,0.47,0.79
0.4,0.47,0.8
0.4,0.46,0.8
0.4,0.46,0.8
0.4,0.46,0.8
0.4,0.46,0.79
0.4,0.46,0.79
0.4,0.46,0.78
0.39,0.46,0.78
0.39,0.46,0.78
0.38,0.46,0.78
0.37,0.46,0.78
0.36,0.46,0.77
0.36,0.46,0.78
0.37,0.46,0.79
0.38,0.46,0.79
0.39,0.46,0.79
0.41,0.46,0.8
0.42,0.46,0.8
0.42,0.47,0.8
0.42,0.46,0.8
0.42,0.46,0.8
0.41,0.46,0.8
0.41,0.46,0.81
0.41,0.46,0.8
0.41,0.46,0.8
0.4,0.47,0.8
0.39,0.47,0.79
0.39,0.47,0.79
0.38,0.46,0.78
0.38,0.46,0.78
0.38,0.46,0.78
0.39,0.46,0.78
0.41,0.46,0.78
0.41,0.46,0.79
0.41,0.47,0.79
0.4,0.47,0.79
0.4,0.46,0.8
0.4,0.46,0.8
0.4,0.46,0.8
0.41,0.46,0.8
0.41,0.46,0.8
0.41,0.45,0.8
0.41,0.45,0.8
0.4,0.45,0.79
0.4,0.45,0.79
0.4,0.46,0.79
0.4,0.46,0.79
0.4,0.46,0.79
0.4,0.46,0.79
0.4,0.46,0.79
0.4,0.46,0.79
0.4,0.46,0.79
0.4,0.46,0.79
0.41,0.46,0.79
0.41,0.46,0.79
0.41,0.46,0.79
0.41,0.46,0.79
0.41,0.46,0.79
0.41,0.45,0.79
0.41,0.45,0.79
0.41,0.45,0.8
0.41,0.45,0.8
0.41,0.45,0.79
0.41,0.45,0.79
0.41,0.45,0.79
0.41,0.45,0.79
0.41,0.46,0.79
0.4,0.46,0.79
0.4,0.46,0.79
0.41,0.46,0.79
0.41,0.46,0.79
0.41,0.46,0.79
0.41,0.46,0.79
0.41,0.46,0.79
0.41,0.46,0.79
0.41,0.46,0.79
0.41,0.46,0.79
0.41,0.46,0.79
0.41,0.46,0.79
0.41,0.46,0.79
0.41,0.46,0.79
0.42,0.46,0.79
0.41,0.46,0.79
0.41,0.46,0.79
0.41,0.46,0.79
0.41,0.46,0.78
0.41,0.46,0.78
0.41,0.46,0.78
0.41,0.46,0.78
0.41,0.46,0.79
0.41,0.46,0.79
0.42,0.46,0.79
0.41,0.47,0.79
0.41,0.47,0.79
0.41,0.47,0.79
0.41,0.47,0.78
0.42,0.47,0.78
0.43,0.47,0.78
0.44,0.47,0.78
0.44,0.47,0.78
0.45,0.47,0.77
0.45,0.47,0.77
0.44,0.47,0.77
0.43,0.47,0.77
0.42,0.47,0.77
0.42,0.47,0.77
0.42,0.47,0.78
0.42,0.47,0.78
0.42,0.47,0.77
0.43,0.47,0.78
0.43,0.47,0.78
0.43,0.47,0.78
0.43,0.47,0.78
0.43,0.47,0.78
0.43,0.47,0.78
0.43,0.47,0.78
0.44,0.47,0.78
0.44,0.47,0.78
0.43,0.47,0.78
0.43,0.47,0.78
0.43,0.47,0.78
0.43,0.47,0.78
0.42,0.47,0.77
0.42,0.47,0.77
0.43,0.47,0.78
0.43,0.47,0.78
0.43,0.47,0.77
0.43,0.47,0.77
0.43,0.47,0.77
0.42,0.47,0.77
0.42,0.47,0.77
0.42,0.47,0.77
0.42,0.47,0.78
0.42,0.47,0.78
0.42,0.47,0.78
0.43,0.47,0.78
0.43,0.47,0.78
0.43,0.47,0.78
0.43,0.46,0.78
0.42,0.46,0.78
0.42,0.46,0.77
0.42,0.46,0.78
0.41,0.46,0.78
0.41,0.46,0.77
0.41,0.46,0.77
0.41,0.46,0.77
0.42,0.46,0.77
0.42,0.45,0.76
0.42,0.44,0.75
0.42,0.44,0.73
0.41,0.42,0.73
0.42,0.42,0.73
0.43,0.43,0.7
0.42,0.44,0.69
0.43,0.44,0.68
0.44,0.45,0.67
0.44,0.45,0.67
0.44,0.45,0.68
0.44,0.44,0.68
0.45,0.45,0.67
0.47,0.45,0.66
0.49,0.48,0.6
0.52,0.5,0.6
0.51,0.51,0.62
0.51,0.53,0.67
0.51,0.55,0.71
0.51,0.55,0.73
0.53,0.55,0.73
0.54,0.53,0.73
0.55,0.52,0.74
0.54,0.52,0.74
0.54,0.52,0.73
0.52,0.53,0.72
0.51,0.53,0.74
0.5,0.53,0.72
0.5,0.52,0.73
0.47,0.52,0.74
0.46,0.52,0.74
0.48,0.51,0.76
0.46,0.51,0.77
0.46,0.5,0.78
0.48,0.5,0.79
0.47,0.5,0.79
0.44,0.5,0.79
0.41,0.5,0.78
0.4,0.5,0.79
0.39,0.49,0.78
0.38,0.47,0.79
0.37,0.46,0.79
0.37,0.47,0.79
0.38,0.47,0.77
0.4,0.47,0.75
0.42,0.46,0.74
0.41,0.46,0.73
0.4,0.47,0.73
0.42,0.48,0.72
0.44,0.49,0.72
0.45,0.5,0.7
0.45,0.49,0.69
0.45,0.49,0.7
0.47,0.49,0.7
0.47,0.5,0.69
0.48,0.5,0.7
0.48,0.5,0.69
0.49,0.49,0.69
0.5,0.49,0.67
0.52,0.49,0.67
0.52,0.49,0.67
0.51,0.48,0.67
0.51,0.48,0.67
0.51,0.47,0.66
0.51,0.46,0.66
0.51,0.45,0.65
0.51,0.45,0.65
0.51,0.46,0.66
0.51,0.48,0.66
0.51,0.5,0.66
0.52,0.51,0.66
0.52,0.52,0.67
0.52,0.53,0.68
0.52,0.53,0.7
0.53,0.52,0.7
0.54,0.51,0.71
0.56,0.49,0.71
0.57,0.45,0.72
0.56,0.42,0.74
0.55,0.38,0.75
0.55,0.35,0.74
0.54,0.33,0.73
0.54,0.32,0.72
0.53,0.31,0.7
0.52,0.3,0.68
0.52,0.31,0.67
0.51,0.31,0.67
0.51,0.28,0.66
0.51,0.25,0.65
0.52,0.23,0.64
0.54,0.19,0.63
0.55,0.17,0.61
0.54,0.15,0.61
0.53,0.04,0.6
0.52,-0.01,0.6
0.51,-0.05,0.64
0.49,-0.11,0.7
0.47,-0.2,0.75
0.44,-0.28,0.75
0.4,-0.31,0.74
0.36,-0.31,0.73
0.35,-0.32,0.68
0.35,-0.34,0.61
0.37,-0.36,0.56
0.39,-0.35,0.56
0.4,-0.36,0.59
0.38,-0.36,0.59
0.37,-0.36,0.57
0.37,-0.38,0.57
0.44,-0.42,0.58
0.48,-0.53,0.61
0.53,-0.55,0.66
0.62,-0.6,0.73
0.65,-0.75,0.75
0.63,-0.75,0.77
0.67,-0.82,0.74
0.86,-0.9,0.72
0.79,-0.8,0.7
0.65,-0.69,0.59
0.77,-0.53,0.62
0.92,-0.51,0.63
0.98,-0.58,0.6
1,-0.75,0.51
1.01,-0.91,0.38
1.07,-1.04,0.24
1.14,-1.17,0.17
1.08,-1.21,0.18
0.98,-1.21,0.17
0.89,-1.15,0.16
0.31,-1.13,0.58
1.19,-0.96,0.44
2.25,-0.81,-0.95
2.95,-0.68,0.43
3.93,-0.84,2.44
3.34,-1.3,1.58
1.48,-1.7,1.23
-0.83,-2.23,1.78
-1.18,-2.42,1.56
-0.02,-1.87,0.69
0.45,-1.17,0.44
0.27,-0.99,0.67
0.09,-0.98,0.57
0.15,-0.93,0.33
0.44,-0.9,0.26
0.62,-0.85,0.41
0.66,-0.74,0.7
0.49,-0.72,0.73
-0.01,-0.75,0.74
-0.2,-0.77,0.68
0.19,-0.7,0.76
0.61,-0.68,0.78
0.63,-0.73,0.62
0.39,-0.76,0.61
0.12,-0.79,0.63
0,-0.86,0.58
0.16,-0.9,0.47
0.39,-0.76,0.47
0.46,-0.65,0.55
0.26,-0.49,0.51
0.15,-0.56,0.66
0.36,-0.68,0.86
0.62,-0.46,0.79
0.65,-0.22,0.64
0.51,-0.31,0.7
0.4,-0.47,0.74
0.31,-0.42,0.69
0.29,-0.55,0.78
0.16,-0.69,0.65
0.09,-0.81,0.64
0.17,-1,0.79
0.24,-0.97,0.77
0.3,-0.78,0.55
0.41,-0.55,0.57
0.59,-0.63,0.77
0.47,-0.56,0.64
0.44,-0.59,0.68
0.51,-0.45,0.89
0.43,-0.13,0.85
0.56,-0.06,0.86
0.65,-0.08,0.87
0.73,-0.06,0.81
1.06,0.16,1.02
1.28,0.34,1.28
0.41,0.77,1.27
-0.25,1.02,1.14
0.13,0.58,1.21
1,0.04,1.51
0.9,-0.5,0.7
0.19,-0.78,0.5
0.26,-0.51,1.02
0.63,-0.45,0.79
0.8,-0.42,0.71
0.61,-0.08,0.75
0.76,0,0.75
0.83,0,0.67
0.59,-0.04,0.82
0.46,-0.07,0.87
0.59,-0.05,0.7
0.93,0.05,0.61
1.01,-0.02,0.65
0.76,-0.1,0.74
0.5,-0.13,0.82
0.53,-0.14,0.8
0.69,-0.09,0.72
0.79,-0.05,0.69
0.88,-0.03,0.72
0.87,-0.04,0.71
0.71,-0.04,0.74
0.55,-0.03,0.82
0.47,-0.06,0.88
0.44,-0.11,0.86
0.55,-0.14,0.79
0.73,-0.13,0.78
0.75,-0.09,0.75
0.7,-0.03,0.73
0.68,-0.02,0.79
0.66,-0.06,0.83
0.56,-0.1,0.81
0.52,-0.11,0.81
0.59,-0.1,0.8
0.67,-0.08,0.78
0.71,-0.07,0.75
0.71,-0.06,0.74
0.7,-0.05,0.78
0.62,-0.09,0.79
0.56,-0.08,0.78
0.57,-0.06,0.78
0.62,-0.06,0.79
0.68,-0.06,0.76
0.74,-0.06,0.73
0.75,-0.06,0.73
0.72,-0.07,0.75
0.67,-0.07,0.75
0.64,-0.07,0.77
0.63,-0.07,0.78
0.64,-0.07,0.77
0.68,-0.07,0.77
0.72,-0.07,0.75
0.72,-0.06,0.74
0.67,-0.06,0.76
0.59,-0.06,0.79
0.58,-0.06,0.81
0.62,-0.06,0.79
0.67,-0.06,0.78
0.69,-0.06,0.75
0.71,-0.05,0.73
0.72,-0.05,0.73
0.71,-0.04,0.74
0.7,-0.05,0.75
0.67,-0.06,0.76
0.68,-0.06,0.77
0.69,-0.06,0.75
0.71,-0.05,0.74
0.72,-0.05,0.75
0.67,-0.06,0.76
0.63,-0.06,0.78
0.65,-0.05,0.77
0.67,-0.04,0.75
0.69,-0.03,0.75
0.71,-0.05,0.75
0.71,-0.05,0.73
0.71,-0.05,0.73
0.71,-0.05,0.75
0.69,-0.05,0.75
0.66,-0.04,0.75
0.66,-0.03,0.75
0.68,-0.03,0.75
0.71,-0.05,0.75
0.71,-0.04,0.73
0.7,-0.04,0.74
0.69,-0.04,0.76
0.66,-0.04,0.76
0.64,-0.04,0.77
0.66,-0.05,0.77
0.68,-0.04,0.76
0.69,-0.05,0.75
0.69,-0.05,0.75
0.68,-0.05,0.75
0.68,-0.05,0.75
0.67,-0.04,0.74
0.68,-0.04,0.76
0.69,-0.05,0.76
0.68,-0.05,0.75
0.67,-0.04,0.75
0.68,-0.04,0.76
0.67,-0.04,0.74
0.66,-0.03,0.75
0.67,-0.04,0.77
0.68,-0.05,0.75
0.69,-0.04,0.74
0.7,-0.04,0.75
0.71,-0.04,0.75
0.69,-0.04,0.75
0.67,-0.04,0.76
0.68,-0.05,0.77
0.7,-0.05,0.75
0.71,-0.04,0.73
0.7,-0.04,0.73
0.7,-0.03,0.73
0.7,-0.03,0.75
0.7,-0.04,0.74
0.69,-0.04,0.74
0.7,-0.04,0.73
0.71,-0.03,0.72
0.71,-0.03,0.73
0.71,-0.04,0.73
0.71,-0.04,0.74
0.7,-0.04,0.74
0.69,-0.04,0.74
0.68,-0.03,0.73
0.69,-0.03,0.74
0.71,-0.04,0.74
0.71,-0.05,0.73
0.72,-0.05,0.72
0.72,-0.04,0.71
0.73,-0.03,0.72
0.71,-0.04,0.73
0.69,-0.03,0.74
0.68,-0.04,0.75
0.69,-0.04,0.74
0.71,-0.04,0.72
0.73,-0.04,0.72
0.72,-0.04,0.72
0.72,-0.03,0.71
0.71,-0.03,0.73
0.7,-0.04,0.74
0.69,-0.04,0.74
0.7,-0.04,0.74
0.71,-0.04,0.72
0.73,-0.04,0.72
0.72,-0.03,0.72
0.72,-0.03,0.72
0.71,-0.03,0.73
0.71,-0.04,0.72
0.71,-0.04,0.72
0.71,-0.04,0.71
0.72,-0.03,0.72
0.73,-0.04,0.72
0.72,-0.03,0.71
0.71,-0.04,0.72
0.71,-0.04,0.73
0.71,-0.03,0.72
0.71,-0.04,0.73
0.72,-0.04,0.72
0.72,-0.03,0.71
0.72,-0.03,0.71
0.72,-0.03,0.71
0.72,-0.03,0.71
0.71,-0.04,0.73
0.7,-0.04,0.73
0.7,-0.04,0.73
0.72,-0.04,0.73
0.72,-0.04,0.72
0.72,-0.04,0.72
0.71,-0.04,0.73
0.71,-0.04,0.73
0.71,-0.04,0.73
0.71,-0.04,0.72
0.72,-0.04,0.72
0.72,-0.03,0.72
0.73,-0.03,0.72
0.73,-0.04,0.73
0.72,-0.04,0.74
0.72,-0.03,0.74
0.73,-0.03,0.73
0.72,-0.04,0.73
0.72,-0.05,0.73
0.72,-0.05,0.72
0.68,-0.06,0.75
0.67,-0.06,0.77
0.68,-0.05,0.74
0.66,-0.05,0.74
0.65,-0.06,0.76
0.63,-0.06,0.77
0.65,-0.06,0.76
0.7,-0.05,0.74
0.72,-0.05,0.73
0.73,-0.05,0.72
0.73,-0.03,0.71
0.73,-0.03,0.73
0.72,-0.04,0.74
0.67,-0.06,0.75
0.67,-0.06,0.75
0.68,-0.04,0.74
0.68,-0.03,0.74
0.69,-0.04,0.74
0.7,-0.05,0.74
0.71,-0.06,0.73
0.72,-0.06,0.72
0.72,-0.04,0.71
0.7,-0.04,0.73
0.68,-0.04,0.74
0.68,-0.03,0.74
0.7,-0.04,0.74
0.72,-0.05,0.73
0.73,-0.04,0.72
0.75,-0.04,0.71
0.75,-0.05,0.72
0.73,-0.05,0.72
0.72,-0.05,0.72
0.72,-0.05,0.73
0.71,-0.05,0.73
0.71,-0.04,0.72
0.72,-0.04,0.72
0.72,-0.04,0.72
0.71,-0.04,0.73
0.7,-0.05,0.74
0.7,-0.05,0.74
0.72,-0.05,0.72
0.71,-0.04,0.72
0.7,-0.04,0.72
0.7,-0.03,0.72
0.72,-0.03,0.73
0.73,-0.04,0.72
0.73,-0.05,0.71
0.73,-0.04,0.71
0.72,-0.04,0.71
0.71,-0.03,0.71
0.71,-0.03,0.73
0.71,-0.04,0.73
0.72,-0.05,0.72
0.72,-0.05,0.72
0.73,-0.04,0.71
0.74,-0.04,0.71
0.73,-0.04,0.71
0.71,-0.04,0.72
0.7,-0.04,0.72
0.7,-0.04,0.72
0.72,-0.03,0.71
0.75,-0.03,0.7
0.75,-0.03,0.7
0.74,-0.04,0.71
0.73,-0.04,0.72
0.73,-0.04,0.72
0.73,-0.04,0.71
0.73,-0.04,0.71
0.73,-0.04,0.71
0.73,-0.04,0.71
0.71,-0.03,0.71
0.72,-0.04,0.72
0.74,-0.04,0.72
0.72,-0.04,0.71
0.72,-0.04,0.71
0.73,-0.04,0.71
0.73,-0.04,0.71
0.73,-0.04,0.71
0.72,-0.04,0.71
0.71,-0.03,0.71
0.72,-0.04,0.72
0.73,-0.04,0.72
0.72,-0.04,0.71
0.72,-0.04,0.71
0.74,-0.04,0.71
0.75,-0.04,0.71
0.74,-0.04,0.7
0.73,-0.04,0.7
0.72,-0.04,0.71
0.72,-0.04,0.71
0.73,-0.04,0.71
0.74,-0.04,0.71
0.73,-0.04,0.7
0.73,-0.03,0.7
0.73,-0.04,0.71
0.72,-0.04,0.71
0.72,-0.04,0.71
0.72,-0.04,0.71
0.73,-0.04,0.71
0.74,-0.04,0.7
0.74,-0.04,0.7
0.74,-0.04,0.7
0.73,-0.03,0.7
0.72,-0.03,0.71
0.72,-0.04,0.72
0.72,-0.04,0.71
0.73,-0.04,0.7
0.73,-0.04,0.71
0.74,-0.04,0.7
0.74,-0.03,0.69
0.75,-0.03,0.7
0.74,-0.04,0.7
0.73,-0.04,0.71
0.73,-0.04,0.71
0.73,-0.04,0.71
0.72,-0.04,0.71
0.73,-0.04,0.71
0.74,-0.04,0.71
0.74,-0.04,0.7
0.74,-0.04,0.69
0.74,-0.03,0.7
0.74,-0.04,0.7
0.73,-0.04,0.7
0.73,-0.04,0.7
0.74,-0.04,0.71
0.74,-0.04,0.7
0.74,-0.04,0.7
0.74,-0.04,0.7
0.74,-0.04,0.7
0.73,-0.04,0.7
0.73,-0.03,0.7
0.74,-0.04,0.7
0.74,-0.04,0.7
0.74,-0.04,0.7
0.74,-0.04,0.7
0.74,-0.04,0.7
0.73,-0.03,0.69
0.74,-0.03,0.7
0.74,-0.04,0.7
0.73,-0.04,0.7
0.74,-0.04,0.7
0.75,-0.04,0.7
0.74,-0.04,0.7
0.74,-0.04,0.7
0.74,-0.04,0.7
0.73,-0.04,0.7
0.73,-0.03,0.7
0.74,-0.04,0.7
0.75,-0.04,0.7
0.74,-0.04,0.7
0.74,-0.04,0.7
0.74,-0.04,0.7
0.74,-0.03,0.7
0.74,-0.04,0.7
0.74,-0.04,0.7
0.74,-0.04,0.7
0.74,-0.04,0.7
0.74,-0.03,0.69
0.74,-0.04,0.7
0.74,-0.04,0.7
0.74,-0.04,0.7
0.74,-0.04,0.7
0.74,-0.04,0.7
0.74,-0.04,0.7
0.75,-0.04,0.69
0.75,-0.03,0.69
0.75,-0.04,0.69
0.74,-0.04,0.7
0.74,-0.04,0.7
0.74,-0.04,0.7
0.74,-0.04,0.69
0.74,-0.04,0.69
0.75,-0.03,0.69
0.75,-0.04,0.69
0.75,-0.04,0.69
0.74,-0.04,0.7
0.73,-0.04,0.7
0.73,-0.04,0.7
0.74,-0.04,0.69
0.76,-0.03,0.69
0.76,-0.04,0.69
0.75,-0.03,0.69
0.75,-0.04,0.69
0.75,-0.04,0.69
0.74,-0.04,0.69
0.74,-0.04,0.7
0.74,-0.04,0.7
0.74,-0.03,0.69
0.75,-0.04,0.69
0.75,-0.04,0.69
0.74,-0.03,0.69
0.74,-0.04,0.69
0.75,-0.04,0.7
0.75,-0.04,0.69
0.75,-0.04,0.68
0.75,-0.03,0.69
0.75,-0.04,0.69
0.74,-0.04,0.69
0.75,-0.03,0.69
0.75,-0.04,0.69
0.75,-0.03,0.68
0.75,-0.03,0.68
0.75,-0.04,0.69
0.75,-0.04,0.69
0.76,-0.04,0.68
0.76,-0.03,0.68
0.75,-0.04,0.68
0.74,-0.03,0.67
0.75,-0.02,0.68
0.76,-0.03,0.69
0.75,-0.03,0.67
0.76,-0.03,0.66
0.77,-0.03,0.67
0.77,-0.03,0.67
0.77,-0.03,0.68
0.76,-0.03,0.68
0.75,-0.03,0.68
0.76,-0.03,0.67
0.77,-0.03,0.68
0.77,-0.03,0.67
0.75,-0.03,0.68
0.75,-0.04,0.69
0.74,-0.04,0.69
0.75,-0.03,0.69
0.75,-0.03,0.68
0.76,-0.03,0.68
0.76,-0.03,0.68
0.76,-0.04,0.68
0.75,-0.04,0.68
0.75,-0.04,0.69
0.75,-0.03,0.68
0.76,-0.03,0.68
0.76,-0.03,0.68
0.76,-0.03,0.68
0.75,-0.04,0.68
0.74,-0.03,0.69
0.74,-0.04,0.69
0.75,-0.03,0.68
0.75,-0.03,0.68
0.75,-0.03,0.69
0.76,-0.03,0.68
0.76,-0.03,0.68
0.76,-0.03,0.68
0.76,-0.03,0.68
0.76,-0.03,0.68
0.76,-0.03,0.68
0.75,-0.03,0.68
0.75,-0.04,0.68
0.75,-0.03,0.68
0.75,-0.03,0.68
0.76,-0.03,0.68
0.76,-0.03,0.68
0.76,-0.04,0.68
0.76,-0.04,0.68
0.76,-0.03,0.68
0.76,-0.03,0.68
0.76,-0.03,0.67
0.76,-0.03,0.68
0.75,-0.03,0.68
0.75,-0.03,0.68
0.75,-0.03,0.68
0.76,-0.03,0.68
0.76,-0.04,0.68
0.76,-0.04,0.68
0.76,-0.03,0.68
0.76,-0.03,0.68
0.75,-0.03,0.68
0.76,-0.03,0.68
0.77,-0.03,0.67
0.77,-0.03,0.68
0.76,-0.03,0.68
0.75,-0.03,0.68
0.75,-0.04,0.68
0.74,-0.03,0.69
0.76,-0.03,0.68
0.77,-0.04,0.67
0.77,-0.04,0.67
0.76,-0.03,0.67
0.75,-0.03,0.68
0.75,-0.03,0.69
0.75,-0.04,0.69
0.75,-0.04,0.69
0.75,-0.03,0.68
0.76,-0.03,0.68
0.76,-0.03,0.67
0.77,-0.03,0.67
0.77,-0.03,0.67
0.76,-0.03,0.68
0.74,-0.04,0.68
0.75,-0.04,0.68
0.76,-0.04,0.68
0.76,-0.03,0.67
0.76,-0.03,0.68
0.76,-0.03,0.68
0.74,-0.03,0.68
0.75,-0.03,0.68
0.76,-0.04,0.68
0.76,-0.04,0.68
0.76,-0.03,0.68
0.76,-0.04,0.68
0.76,-0.04,0.68
0.77,-0.04,0.67
0.76,-0.03,0.67
0.77,-0.03,0.67
0.76,-0.03,0.68
0.75,-0.03,0.68
0.75,-0.03,0.68
0.75,-0.03,0.69
0.76,-0.03,0.68
0.77,-0.04,0.68
0.77,-0.04,0.67
0.77,-0.03,0.67
0.76,-0.03,0.67
0.75,-0.03,0.68
0.76,-0.03,0.68
0.76,-0.04,0.68
0.76,-0.04,0.68
0.76,-0.04,0.68
0.76,-0.03,0.68
0.75,-0.03,0.68
0.74,-0.03,0.68
0.75,-0.04,0.69
0.76,-0.04,0.68
0.77,-0.04,0.67
0.77,-0.04,0.67
0.77,-0.03,0.67
0.76,-0.03,0.68
0.75,-0.04,0.68
0.76,-0.04,0.68
0.76,-0.03,0.68
0.76,-0.04,0.68
0.75,-0.04,0.68
0.75,-0.03,0.68
0.76,-0.03,0.67
0.77,-0.03,0.67
0.77,-0.03,0.66
0.78,-0.03,0.66
0.77,-0.03,0.67
0.76,-0.03,0.67
0.76,-0.03,0.68
0.75,-0.03,0.68
0.75,-0.03,0.68
0.76,-0.03,0.68
0.76,-0.03,0.67
0.77,-0.03,0.67
0.77,-0.03,0.67
0.77,-0.03,0.67
0.77,-0.04,0.67
0.77,-0.04,0.66
0.78,-0.04,0.67
0.76,-0.04,0.68
0.73,-0.03,0.7
0.74,-0.03,0.69
0.75,-0.03,0.69
0.76,-0.04,0.68
0.76,-0.04,0.68
0.76,-0.04,0.68
0.76,-0.03,0.67
0.76,-0.04,0.68
0.76,-0.04,0.68
0.76,-0.03,0.68
0.75,-0.03,0.68
0.74,-0.03,0.69
0.74,-0.03,0.69
0.75,-0.03,0.69
0.77,-0.04,0.68
0.78,-0.04,0.67
0.78,-0.04,0.67
0.77,-0.04,0.67
0.76,-0.03,0.67
0.75,-0.03,0.68
0.74,-0.03,0.69
0.75,-0.03,0.69
0.75,-0.03,0.69
0.75,-0.04,0.69
0.76,-0.04,0.68
0.77,-0.04,0.67
0.77,-0.04,0.66
0.77,-0.03,0.66
0.77,-0.03,0.68
0.77,-0.04,0.68
0.75,-0.04,0.68
0.74,-0.04,0.68
0.75,-0.03,0.68
0.76,-0.03,0.68
0.76,-0.03,0.67
0.77,-0.04,0.66
0.77,-0.04,0.67
0.76,-0.04,0.67
0.75,-0.03,0.68
0.75,-0.03,0.68
0.76,-0.03,0.68
0.76,-0.03,0.68
0.75,-0.03,0.68
0.75,-0.04,0.68
0.75,-0.04,0.68
0.76,-0.04,0.68
0.75,-0.03,0.68
0.76,-0.03,0.68
0.76,-0.03,0.68
0.75,-0.04,0.68
0.75,-0.03,0.68
0.76,-0.03,0.68
0.77,-0.03,0.68
0.75,-0.03,0.69
0.75,-0.04,0.69
0.74,-0.04,0.68
0.73,-0.03,0.68
0.73,-0.03,0.69
0.75,-0.02,0.68
0.79,-0.02,0.67
0.8,-0.02,0.67
0.76,-0.03,0.68
0.71,-0.02,0.69
0.72,-0.03,0.72
0.74,-0.04,0.71
0.74,-0.03,0.7
0.76,-0.04,0.69
0.77,-0.03,0.67
0.76,-0.02,0.67
0.77,-0.03,0.68
0.77,-0.03,0.68
0.75,-0.03,0.68
0.74,-0.03,0.69
0.75,-0.03,0.69
0.76,-0.03,0.69
0.77,-0.03,0.68
0.76,-0.03,0.68
0.76,-0.03,0.68
0.76,-0.03,0.68
0.74,-0.04,0.69
0.75,-0.03,0.69
0.75,-0.03,0.68
0.76,-0.02,0.67
0.77,-0.02,0.67
0.77,-0.02,0.67
0.76,-0.02,0.68
0.75,-0.03,0.69
0.73,-0.03,0.7
0.72,-0.03,0.71
0.73,-0.04,0.7
0.75,-0.03,0.68
0.77,-0.02,0.67
0.78,-0.03,0.67
0.76,-0.02,0.66
0.74,-0.02,0.67
0.75,-0.03,0.7
0.76,-0.03,0.69
0.76,-0.03,0.68
0.76,-0.03,0.68
0.76,-0.02,0.68
0.75,-0.02,0.68
0.74,-0.02,0.69
0.76,-0.03,0.68
0.78,-0.03,0.67
0.79,-0.03,0.67
0.77,-0.02,0.68
0.74,-0.03,0.69
0.74,-0.03,0.7
0.74,-0.03,0.7
0.75,-0.03,0.69
0.76,-0.03,0.69
0.77,-0.03,0.68
0.75,-0.03,0.68
0.75,-0.03,0.69
0.76,-0.03,0.69
0.75,-0.03,0.69
0.75,-0.03,0.7
0.75,-0.04,0.71
0.73,-0.04,0.7
0.7,-0.03,0.71
0.71,-0.03,0.72
0.7,-0.03,0.72
0.7,-0.03,0.72
0.73,-0.03,0.71
0.76,-0.04,0.68
0.78,-0.03,0.67
0.8,-0.02,0.67
0.77,-0.02,0.68
0.71,-0.02,0.69
0.72,-0.02,0.71
0.71,-0.03,0.72
0.71,-0.04,0.69
0.76,-0.04,0.67
0.77,-0.02,0.65
0.81,-0.01,0.64
0.84,-0.02,0.65
0.82,-0.02,0.63
0.8,-0.02,0.64
0.78,-0.02,0.66
0.75,-0.02,0.68
0.73,-0.02,0.69
0.73,-0.02,0.7
0.74,-0.02,0.69
0.77,-0.02,0.66
0.8,-0.01,0.64
0.8,-0.02,0.65
0.76,-0.02,0.67
0.74,-0.02,0.69
0.74,-0.03,0.69
0.76,-0.02,0.68
0.77,-0.02,0.68
0.78,-0.02,0.67
0.79,-0.01,0.66
0.78,-0.01,0.66
0.75,-0.02,0.68
0.73,-0.02,0.69
0.72,-0.02,0.7
0.73,-0.02,0.69
0.75,-0.02,0.69
0.76,-0.02,0.68
0.77,-0.02,0.68
0.76,-0.03,0.68
0.75,-0.03,0.69
0.75,-0.03,0.68
0.76,-0.02,0.69
0.75,-0.02,0.69
0.74,-0.02,0.69
0.74,-0.02,0.69
0.74,-0.02,0.69
0.74,-0.02,0.68
0.75,-0.02,0.68
0.77,-0.02,0.68
0.78,-0.02,0.67
0.77,-0.02,0.67
0.77,-0.02,0.68
0.76,-0.02,0.68
0.76,-0.02,0.69
0.76,-0.03,0.69
0.74,-0.03,0.69
0.74,-0.03,0.69
0.75,-0.03,0.69
0.75,-0.02,0.69
0.75,-0.02,0.69
0.74,-0.03,0.7
0.71,-0.03,0.71
0.72,-0.03,0.71
0.74,-0.03,0.71
0.75,-0.03,0.69
0.76,-0.03,0.68
0.76,-0.03,0.68
0.75,-0.02,0.68
0.75,-0.02,0.7
0.74,-0.03,0.7
0.74,-0.03,0.71
0.73,-0.04,0.71
0.72,-0.03,0.71
0.72,-0.03,0.71
0.73,-0.03,0.7
0.73,-0.03,0.7
0.73,-0.03,0.7
0.74,-0.02,0.69
0.75,-0.02,0.69
0.75,-0.02,0.69
0.73,-0.02,0.7
0.73,-0.03,0.7
0.75,-0.02,0.7
0.76,-0.02,0.69
0.75,-0.02,0.68
0.74,-0.02,0.69
0.74,-0.02,0.69
0.73,-0.02,0.7
0.73,-0.02,0.7
0.73,-0.01,0.7
0.74,-0.01,0.71
0.75,-0.01,0.71
0.74,-0.02,0.7
0.73,-0.02,0.7
0.73,-0.02,0.7
0.73,-0.02,0.71
0.74,-0.02,0.72
0.74,-0.02,0.71
0.73,-0.02,0.71
0.72,-0.02,0.72
0.7,-0.03,0.73
0.69,-0.03,0.73
0.7,-0.03,0.73
0.71,-0.03,0.72
0.72,-0.02,0.71
0.74,-0.02,0.7
0.75,-0.01,0.7
0.75,-0.02,0.7
0.73,-0.02,0.71
0.71,-0.02,0.72
0.7,-0.02,0.73
0.71,-0.02,0.72
0.72,-0.02,0.71
0.74,-0.02,0.7
0.74,-0.02,0.7
0.73,-0.02,0.7
0.72,-0.02,0.7
0.73,-0.02,0.71
0.73,-0.03,0.72
0.72,-0.02,0.71
0.72,-0.02,0.72
0.72,-0.02,0.72
0.72,-0.02,0.72
0.72,-0.02,0.71
0.73,-0.02,0.71
0.73,-0.02,0.71
0.74,-0.03,0.71
0.74,-0.02,0.71
0.74,-0.02,0.7
0.74,-0.02,0.71
0.73,-0.02,0.72
0.71,-0.02,0.72
0.7,-0.02,0.72
0.71,-0.03,0.73
0.72,-0.02,0.72
0.72,-0.02,0.71
0.73,-0.02,0.71
0.73,-0.02,0.71
0.73,-0.02,0.71
0.71,-0.02,0.71
0.7,-0.02,0.72
0.7,-0.02,0.72
0.71,-0.02,0.72
0.73,-0.02,0.72
0.74,-0.02,0.71
0.75,-0.02,0.7
0.76,-0.02,0.7
0.75,-0.02,0.7
0.73,-0.03,0.72
0.71,-0.03,0.72
0.71,-0.02,0.72
0.74,-0.02,0.72
0.75,-0.03,0.72
0.76,-0.03,0.7
0.77,-0.02,0.7
0.76,-0.03,0.71
0.76,-0.03,0.72
0.76,-0.05,0.72
0.75,-0.05,0.72
0.75,-0.04,0.71
0.76,-0.03,0.71
0.77,-0.03,0.72
0.74,-0.04,0.72
0.7,-0.03,0.74
0.67,-0.03,0.77
0.63,-0.05,0.79
0.6,-0.06,0.81
0.56,-0.06,0.83
0.54,-0.07,0.85
0.53,-0.08,0.86
0.53,-0.09,0.87
0.55,-0.1,0.86
0.59,-0.1,0.84
0.64,-0.11,0.81
0.73,-0.11,0.77
0.77,-0.11,0.74
0.79,-0.11,0.72
0.8,-0.11,0.7
0.79,-0.12,0.69
0.75,-0.1,0.68
0.73,-0.09,0.68
0.72,-0.09,0.69
0.71,-0.1,0.7
0.72,-0.11,0.7
0.75,-0.14,0.71
0.77,-0.15,0.72
0.77,-0.16,0.73
0.76,-0.17,0.73
0.76,-0.17,0.73
0.75,-0.17,0.72
0.73,-0.17,0.71
0.72,-0.19,0.7
0.72,-0.2,0.7
0.72,-0.21,0.71
0.72,-0.22,0.71
0.73,-0.22,0.71
0.74,-0.22,0.7
0.74,-0.22,0.7
0.74,-0.23,0.7
0.74,-0.23,0.69
0.72,-0.24,0.69
0.71,-0.24,0.69
0.71,-0.23,0.68
0.71,-0.23,0.67
0.71,-0.23,0.67
0.71,-0.24,0.67
0.7,-0.25,0.67
0.69,-0.26,0.68
0.69,-0.28,0.67
0.69,-0.3,0.67
0.7,-0.3,0.68
0.71,-0.3,0.69
0.7,-0.3,0.68
0.69,-0.32,0.67
0.7,-0.33,0.66
0.71,-0.34,0.66
0.71,-0.35,0.67
0.71,-0.37,0.68
0.72,-0.38,0.68
0.72,-0.39,0.68
0.72,-0.4,0.69
0.73,-0.41,0.69
0.72,-0.42,0.7
0.71,-0.42,0.69
0.69,-0.42,0.68
0.67,-0.42,0.67
0.66,-0.42,0.66
0.66,-0.43,0.66
0.65,-0.44,0.66
0.65,-0.47,0.67
0.66,-0.5,0.68
0.67,-0.51,0.7
0.68,-0.52,0.7
0.69,-0.52,0.71
0.67,-0.52,0.7
0.65,-0.52,0.68
0.65,-0.52,0.66
0.65,-0.52,0.66
0.64,-0.53,0.66
0.64,-0.53,0.65
0.64,-0.54,0.65
0.63,-0.55,0.66
0.62,-0.55,0.68
0.6,-0.56,0.66
0.57,-0.56,0.66
0.57,-0.57,0.65
0.56,-0.57,0.64
0.58,-0.58,0.64
0.58,-0.59,0.64
0.58,-0.61,0.64
0.58,-0.62,0.65
0.59,-0.62,0.67
0.57,-0.62,0.67
0.56,-0.61,0.66
0.56,-0.61,0.66
0.56,-0.61,0.65
0.55,-0.62,0.64
0.55,-0.63,0.63
0.54,-0.63,0.63
0.54,-0.63,0.63
0.53,-0.63,0.64
0.53,-0.62,0.64
0.52,-0.62,0.65
0.53,-0.62,0.64
0.53,-0.61,0.63
0.53,-0.61,0.62
0.53,-0.6,0.62
0.54,-0.59,0.63
0.55,-0.58,0.63
0.56,-0.56,0.64
0.56,-0.56,0.64
0.55,-0.57,0.64
0.55,-0.58,0.62
0.55,-0.59,0.6
0.55,-0.58,0.61
0.55,-0.57,0.63
0.55,-0.56,0.64
0.56,-0.55,0.65
0.56,-0.56,0.67
0.56,-0.56,0.67
0.56,-0.56,0.66
0.55,-0.55,0.64
0.55,-0.55,0.62
0.54,-0.55,0.62
0.55,-0.55,0.63
0.55,-0.56,0.65
0.54,-0.57,0.65
0.56,-0.55,0.64
0.57,-0.53,0.62
0.56,-0.53,0.61
0.56,-0.51,0.6
0.57,-0.5,0.58
0.56,-0.51,0.59
0.55,-0.53,0.61
0.54,-0.55,0.6
0.55,-0.49,0.61
0.52,-0.55,0.62
0.5,-0.62,0.65
0.52,-0.61,0.67
0.54,-0.61,0.68
0.53,-0.6,0.68
0.51,-0.59,0.66
0.5,-0.58,0.64
0.5,-0.58,0.62
0.52,-0.59,0.59
0.55,-0.6,0.57
0.57,-0.61,0.58
0.57,-0.62,0.62
0.55,-0.63,0.65
0.52,-0.63,0.67
0.5,-0.63,0.68
0.5,-0.63,0.68
0.5,-0.63,0.67
0.51,-0.63,0.65
0.53,-0.62,0.62
0.54,-0.62,0.61
0.56,-0.63,0.6
0.57,-0.64,0.6
0.57,-0.65,0.63
0.57,-0.65,0.67
0.58,-0.66,0.67
0.57,-0.67,0.63
0.59,-0.67,0.61
0.6,-0.67,0.59
0.59,-0.67,0.6
0.58,-0.69,0.64
0.57,-0.7,0.68
0.59,-0.71,0.68
0.63,-0.72,0.67
0.67,-0.73,0.66
0.72,-0.73,0.65
0.74,-0.73,0.64
0.75,-0.73,0.65
0.75,-0.73,0.64
0.73,-0.71,0.67
0.67,-0.71,0.73
0.67,-0.7,0.75
0.71,-0.68,0.75
0.74,-0.66,0.74
0.76,-0.63,0.73
0.76,-0.61,0.72
0.76,-0.58,0.68
0.78,-0.56,0.67
0.76,-0.55,0.7
0.73,-0.53,0.74
0.73,-0.5,0.75
0.74,-0.46,0.75
0.71,-0.43,0.79
0.61,-0.36,0.78
0.58,-0.32,0.76
0.57,-0.3,0.75
0.56,-0.27,0.72
0.54,-0.22,0.71
0.5,-0.18,0.7
0.48,-0.15,0.68
0.54,-0.13,0.65
0.59,-0.11,0.64
0.59,-0.1,0.66
0.57,-0.08,0.7
0.55,-0.06,0.74
0.51,-0.03,0.76
0.5,-0.03,0.77
0.51,0,0.78
0.52,0.03,0.77
0.53,0.07,0.76
0.51,0.09,0.75
0.49,0.11,0.73
0.49,0.13,0.71
0.5,0.15,0.69
0.52,0.18,0.67
0.55,0.2,0.66
0.57,0.22,0.66
0.57,0.25,0.64
0.57,0.27,0.67
0.61,0.28,0.7
0.62,0.28,0.71
0.62,0.3,0.7
0.63,0.31,0.68
0.63,0.32,0.66
0.62,0.33,0.64
0.59,0.34,0.62
0.58,0.34,0.61
0.56,0.34,0.62
0.54,0.35,0.64
0.53,0.37,0.65
0.5,0.38,0.65
0.48,0.38,0.65
0.5,0.37,0.66
0.52,0.36,0.67
0.54,0.36,0.69
0.56,0.35,0.71
0.56,0.35,0.73
0.54,0.35,0.73
0.54,0.36,0.72
0.54,0.34,0.72
0.52,0.34,0.73
0.52,0.34,0.75
0.55,0.34,0.75
0.57,0.32,0.75
0.55,0.29,0.73
0.48,0.29,0.71
0.46,0.29,0.69
0.44,0.3,0.67
0.43,0.27,0.67
0.42,0.26,0.67
0.45,0.29,0.65
0.48,0.27,0.66
0.51,0.26,0.66
0.54,0.25,0.68
0.5,0.23,0.7
0.45,0.23,0.71
0.44,0.24,0.7
0.46,0.24,0.72
0.56,0.25,0.79
0.61,0.27,0.83
0.57,0.29,0.81
0.54,0.31,0.82
0.52,0.33,0.82
0.49,0.35,0.8
0.47,0.37,0.79
0.47,0.39,0.79
0.46,0.42,0.79
0.46,0.43,0.8
0.46,0.44,0.81
0.45,0.45,0.81
0.44,0.45,0.81
0.41,0.5,0.81
0.41,0.54,0.85
0.43,0.51,0.88
0.41,0.44,0.9
0.38,0.42,0.89
0.39,0.46,0.85
0.39,0.48,0.83
0.4,0.48,0.82
0.4,0.47,0.81
0.4,0.45,0.82
0.4,0.45,0.82
0.41,0.45,0.81
0.44,0.45,0.8
0.45,0.45,0.8
0.46,0.46,0.78
0.47,0.46,0.77
0.46,0.46,0.77
0.46,0.46,0.76
0.46,0.45,0.76
0.46,0.45,0.76
0.46,0.44,0.76
0.47,0.44,0.76
