Acc_x,Acc_y,Acc_z
0.17,0.82,0.42
0.17,0.82,0.41
0.16,0.82,0.4
0.16,0.82,0.38
0.17,0.82,0.37
0.17,0.82,0.34
0.16,0.81,0.33
0.17,0.8,0.32
0.17,0.81,0.3
0.19,0.83,0.29
0.2,0.84,0.28
0.21,0.85,0.28
0.23,0.85,0.28
0.25,0.83,0.28
0.26,0.81,0.29
0.26,0.8,0.32
0.29,0.77,0.34
0.34,0.74,0.36
0.38,0.72,0.37
0.41,0.71,0.37
0.43,0.7,0.37
0.46,0.69,0.36
0.48,0.69,0.34
0.49,0.69,0.32
0.51,0.7,0.31
0.54,0.7,0.29
0.58,0.67,0.28
0.62,0.65,0.25
0.65,0.65,0.24
0.68,0.65,0.23
0.71,0.66,0.22
0.74,0.64,0.21
0.78,0.61,0.21
0.8,0.59,0.2
0.84,0.57,0.18
0.91,0.54,0.15
0.99,0.5,0.15
1.08,0.47,0.17
1.16,0.41,0.18
1.24,0.38,0.19
1.3,0.36,0.2
1.31,0.34,0.22
1.27,0.32,0.22
1.22,0.31,0.18
1.19,0.28,0.11
1.2,0.25,0.06
1.23,0.21,0.02
1.32,0.18,-0.01
1.45,0.13,-0.02
1.51,0.07,0
1.44,0.02,0.05
1.33,0,0.19
1.17,0.02,0.18
1.12,0.03,0.14
1.07,0.05,0.1
1.04,0.06,0.06
1.09,0.05,0.02
1.11,0.06,0.03
1.07,0.01,0.05
1.09,-0.05,0.05
1.06,-0.04,0.07
0.99,-0.01,0.11
0.95,-0.01,0.11
0.93,-0.01,0.11
0.92,-0.02,0.12
0.9,-0.03,0.12
0.9,-0.05,0.12
0.92,-0.08,0.1
0.95,-0.11,0.07
0.96,-0.13,0.04
0.95,-0.15,0.02
0.94,-0.15,0.02
0.95,-0.15,0.02
0.93,-0.14,0.03
0.84,-0.13,0.07
0.8,-0.13,0.1
0.84,-0.14,0.09
0.86,-0.13,0.07
0.85,-0.14,0.04
0.9,-0.15,0
0.96,-0.16,-0.02
1.01,-0.2,-0.01
1,-0.2,0.02
0.95,-0.18,0.04
0.93,-0.16,0.05
0.92,-0.14,0.07
0.91,-0.12,0.08
0.91,-0.13,0.07
0.96,-0.16,0.07
1.04,-0.19,0.05
1.1,-0.23,0.03
1.09,-0.25,0.03
1.05,-0.25,0.05
1,-0.25,0.06
0.97,-0.25,0.07
0.93,-0.25,0.1
0.9,-0.26,0.12
0.91,-0.27,0.14
0.92,-0.27,0.16
0.95,-0.29,0.18
1,-0.34,0.18
1.04,-0.38,0.19
1.03,-0.41,0.19
0.98,-0.41,0.18
0.87,-0.4,0.17
0.84,-0.4,0.17
0.86,-0.41,0.18
0.89,-0.41,0.21
0.91,-0.43,0.25
0.93,-0.44,0.28
0.95,-0.45,0.3
0.96,-0.49,0.31
0.96,-0.54,0.27
0.96,-0.59,0.22
0.94,-0.58,0.19
0.92,-0.58,0.17
0.95,-0.62,0.09
0.94,-0.64,0.04
0.88,-0.57,0.12
0.89,-0.55,0.18
0.95,-0.68,0.17
1.01,-0.76,0.15
1,-0.74,0.15
0.93,-0.75,0.15
0.88,-0.79,0.12
0.84,-0.83,0.08
0.82,-0.85,0.05
0.8,-0.87,0.02
0.77,-0.88,0
0.75,-0.89,0
0.71,-0.85,0.02
0.72,-0.7,0.05
0.72,-0.73,0.01
0.73,-0.76,-0.03
0.75,-0.71,-0.05
0.74,-0.65,-0.07
0.72,-0.62,-0.07
0.7,-0.61,-0.08
0.7,-0.6,-0.07
0.69,-0.57,-0.07
0.69,-0.57,-0.08
0.71,-0.57,-0.09
0.74,-0.57,-0.1
0.77,-0.56,-0.12
0.79,-0.56,-0.13
0.8,-0.57,-0.13
0.8,-0.57,-0.14
0.81,-0.59,-0.14
0.82,-0.6,-0.14
0.83,-0.62,-0.14
0.84,-0.64,-0.13
0.85,-0.66,-0.12
0.85,-0.69,-0.12
0.85,-0.72,-0.12
0.83,-0.78,-0.13
0.84,-0.8,-0.14
0.84,-0.88,-0.16
0.75,-0.93,-0.14
0.8,-0.94,-0.1
0.84,-0.92,-0.05
0.81,-0.91,0
0.74,-0.94,0.03
0.68,-0.94,0.04
0.64,-0.96,0.06
0.61,-0.93,0.07
0.6,-0.9,0.06
0.58,-0.89,0.06
0.55,-0.88,0.05
0.52,-0.88,0.03
0.49,-0.89,0
0.47,-0.88,-0.03
0.48,-0.87,-0.09
0.49,-0.86,-0.13
0.51,-0.86,-0.16
0.53,-0.85,-0.16
0.52,-0.85,-0.15
0.5,-0.85,-0.13
0.48,-0.84,-0.12
0.48,-0.82,-0.1
0.48,-0.82,-0.09
0.47,-0.83,-0.08
0.46,-0.84,-0.07
0.45,-0.84,-0.06
0.49,-0.84,-0.05
0.52,-0.84,-0.05
0.54,-0.85,-0.05
0.53,-0.86,-0.03
0.52,-0.87,-0.01
0.52,-0.88,0.01
0.5,-0.88,0.04
0.48,-0.88,0.07
0.49,-0.89,0.1
0.53,-0.92,0.11
0.57,-0.96,0.11
0.6,-0.99,0.12
0.61,-1.02,0.12
0.6,-1.05,0.12
0.59,-1.09,0.14
0.63,-1.17,0.14
0.71,-1.26,0.14
0.76,-1.34,0.21
0.83,-1.35,0.31
0.91,-1.3,0.35
0.93,-1.25,0.36
0.91,-1.19,0.39
0.98,-1.14,0.42
1.06,-1.15,0.46
1.1,-1.18,0.5
1.16,-1.18,0.57
1.35,-1.08,0.57
1.42,-1.05,0.55
1.53,-1.06,0.52
1.62,-1.11,0.54
1.69,-1.16,0.59
1.8,-1.2,0.58
1.92,-1.22,0.5
2.01,-1.24,0.44
2.04,-1.27,0.4
2.01,-1.3,0.35
1.97,-1.31,0.27
1.95,-1.34,0.21
1.96,-1.41,0.18
1.93,-1.47,0.21
1.85,-1.51,0.2
1.82,-1.51,0.11
1.81,-1.52,-0.01
1.76,-1.58,-0.09
1.7,-1.61,-0.12
1.65,-1.62,-0.14
1.61,-1.63,-0.13
1.54,-1.59,-0.1
1.43,-1.5,-0.04
1.34,-1.41,0.03
1.27,-1.37,0.07
1.2,-1.32,0.11
1.06,-1.21,0.08
1.02,-1.17,0.05
0.97,-1.09,0.05
0.91,-0.97,0.05
0.83,-0.86,0.05
0.76,-0.8,0.07
0.68,-0.84,0.05
0.57,-0.84,0.01
0.5,-0.8,0.02
0.44,-0.74,-0.04
0.45,-0.58,-0.09
0.41,-0.5,-0.06
0.33,-0.41,-0.05
0.24,-0.4,-0.1
0.17,-0.45,-0.1
0.09,-0.51,-0.08
-0.11,-0.36,-0.09
-0.27,0.13,0
-0.19,0.29,-0.04
-0.17,-0.08,-0.12
-0.22,0.07,-0.09
-0.08,0.62,-0.13
-0.19,0.15,-0.11
-0.47,-0.2,0.01
-0.51,0.16,0.06
-0.54,0.33,0
-0.55,0.38,-0.01
-0.56,0.38,-0.03
-0.58,0.44,-0.02
-0.59,0.49,-0.01
-0.6,0.56,-0.01
-0.63,0.63,-0.01
-0.64,0.71,0.02
-0.63,0.77,0.04
-0.61,0.8,0.06
-0.58,0.81,0.05
-0.56,0.81,0.06
-0.54,0.83,0.09
-0.53,0.88,0.12
-0.5,0.91,0.14
-0.46,0.94,0.15
-0.41,0.96,0.15
-0.37,0.95,0.15
-0.32,0.94,0.16
-0.27,0.94,0.17
-0.21,0.94,0.19
-0.15,0.94,0.21
-0.11,0.94,0.22
-0.09,0.93,0.23
-0.05,0.93,0.23
-0.02,0.93,0.23
0.02,0.94,0.24
0.08,0.94,0.23
0.11,0.94,0.24
0.12,0.95,0.24
0.14,0.93,0.24
0.15,0.91,0.24
0.18,0.91,0.24
0.18,0.89,0.23
0.19,0.85,0.22
0.18,0.84,0.21
0.15,0.81,0.2
0.12,0.84,0.2
0.1,0.88,0.21
0.09,0.93,0.22
0.08,0.98,0.24
0.06,1.01,0.24
0.04,1.04,0.24
0.03,1.07,0.25
0.02,1.09,0.28
0,1.11,0.3
-0.02,1.13,0.33
-0.03,1.13,0.36
-0.04,1.12,0.37
-0.03,1.11,0.36
-0.03,1.1,0.35
-0.03,1.07,0.34
-0.03,1.04,0.33
-0.02,0.97,0.32
0.02,0.94,0.32
0.03,0.91,0.32
0.03,0.88,0.3
0.04,0.86,0.29
0.04,0.84,0.28
0.04,0.83,0.27
0.03,0.83,0.25
0.02,0.84,0.23
0.01,0.85,0.21
-0.01,0.86,0.21
-0.03,0.88,0.22
-0.06,0.89,0.23
-0.08,0.9,0.23
-0.1,0.92,0.24
-0.12,0.93,0.25
-0.13,0.96,0.25
-0.15,0.96,0.25
-0.16,0.96,0.25
-0.15,0.97,0.23
-0.14,0.96,0.22
-0.14,0.96,0.23
-0.15,0.95,0.23
-0.16,0.96,0.24
-0.17,0.97,0.25
-0.17,0.97,0.25
-0.16,0.97,0.27
-0.12,0.97,0.28
-0.07,0.96,0.29
-0.05,0.94,0.28
-0.04,0.9,0.27
-0.04,0.85,0.25
-0.04,0.79,0.23
-0.05,0.74,0.22
-0.04,0.7,0.22
-0.03,0.68,0.22
-0.01,0.67,0.23
-0.01,0.66,0.22
-0.02,0.65,0.22
-0.04,0.64,0.2
-0.05,0.64,0.19
-0.07,0.64,0.17
-0.08,0.63,0.15
-0.09,0.63,0.14
-0.09,0.63,0.14
-0.1,0.63,0.13
-0.1,0.61,0.12
-0.08,0.61,0.12
-0.07,0.62,0.12
-0.08,0.58,0.09
-0.05,0.54,0.1
-0.01,0.47,0.11
-0.03,0.47,0.11
-0.02,0.47,0.09
0.02,0.48,0.09
0.06,0.44,0.11
0.08,0.38,0.11
0.1,0.31,0.11
0.16,0.27,0.13
0.23,0.25,0.13
0.26,0.2,0.11
0.27,0.16,0.1
0.32,0.17,0.11
0.37,0.18,0.14
0.41,0.13,0.12
0.44,0.07,0.11
0.49,-0.01,0.13
0.56,-0.07,0.19
0.66,-0.11,0.19
0.68,-0.1,0.2
0.71,-0.09,0.18
0.75,-0.14,0.13
0.77,-0.17,0.14
0.85,-0.22,0.19
0.91,-0.27,0.28
0.97,-0.31,0.39
1.03,-0.33,0.44
1,-0.34,0.43
0.96,-0.39,0.31
0.99,-0.38,0.27
1.01,-0.41,0.24
1.07,-0.75,0.38
1.17,-0.82,0.65
1.21,-0.61,0.8
1.3,-0.56,0.8
1.25,-0.68,0.73
1.11,-0.74,0.69
1.13,-0.95,0.6
1.09,-1.16,0.49
0.99,-1.14,0.43
1.05,-1.11,0.3
1.08,-1.1,0.41
1.14,-1.24,0.63
1.31,-1.37,0.72
1.44,-1.39,0.78
1.43,-1.44,0.74
1.35,-1.48,0.66
1.25,-1.47,0.55
1.22,-1.53,0.38
1.27,-1.68,0.33
1.13,-1.65,0.43
0.95,-1.53,0.5
0.87,-1.52,0.57
0.89,-1.64,0.62
0.89,-1.68,0.61
0.76,-1.48,0.57
0.81,-1.54,0.5
0.79,-1.55,0.48
0.74,-1.47,0.5
0.72,-1.45,0.46
0.69,-1.42,0.44
0.69,-1.32,0.47
0.73,-1.25,0.45
0.73,-1.25,0.44
0.71,-1.27,0.43
0.72,-1.24,0.43
0.7,-1.17,0.43
0.71,-1.13,0.42
0.73,-1.09,0.42
0.74,-1.05,0.41
0.75,-1.02,0.41
0.73,-1,0.42
0.72,-0.99,0.43
0.73,-0.97,0.44
0.74,-0.94,0.45
0.72,-0.94,0.46
0.7,-0.95,0.46
0.7,-0.93,0.46
0.66,-0.94,0.46
0.63,-0.96,0.45
0.62,-0.97,0.4
0.57,-0.96,0.4
0.55,-0.95,0.4
0.55,-0.96,0.38
0.53,-0.97,0.36
0.52,-0.97,0.35
0.51,-0.99,0.33
0.52,-1.01,0.31
0.53,-1.03,0.31
0.55,-1.06,0.35
0.56,-1.11,0.39
0.58,-1.17,0.39
0.59,-1.23,0.36
0.59,-1.29,0.35
0.6,-1.32,0.34
0.65,-1.33,0.34
0.69,-1.36,0.41
0.72,-1.41,0.51
0.76,-1.45,0.57
0.75,-1.51,0.57
0.73,-1.55,0.57
0.72,-1.56,0.58
0.74,-1.56,0.63
0.77,-1.56,0.72
0.81,-1.6,0.81
0.84,-1.65,0.84
0.83,-1.68,0.81
0.82,-1.7,0.76
0.84,-1.69,0.72
0.86,-1.67,0.73
0.9,-1.65,0.77
0.95,-1.64,0.8
0.98,-1.65,0.78
0.99,-1.63,0.73
0.98,-1.6,0.69
0.99,-1.57,0.66
1.01,-1.54,0.65
1.03,-1.51,0.65
1.03,-1.48,0.65
1.02,-1.44,0.62
1,-1.37,0.58
0.99,-1.29,0.6
0.98,-1.22,0.62
0.99,-1.17,0.63
0.99,-1.14,0.62
0.99,-1.09,0.58
0.97,-1.05,0.55
0.97,-1,0.58
0.99,-0.93,0.6
0.99,-0.87,0.57
0.95,-0.83,0.52
0.92,-0.78,0.49
0.89,-0.75,0.44
0.83,-0.64,0.46
0.82,-0.57,0.46
0.82,-0.45,0.45
0.84,-0.42,0.43
0.8,-0.45,0.41
0.78,-0.39,0.38
0.77,-0.41,0.35
0.76,-0.4,0.38
0.74,-0.38,0.36
0.61,-0.38,0.32
0.5,-0.28,0.28
0.46,-0.15,0.19
0.46,-0.02,0.08
0.43,-0.16,0.01
0.32,-0.38,0.02
0.26,-0.37,0.03
0.3,-0.13,0.02
0.24,0.1,0.02
0.19,0.03,-0.2
0.06,0.05,-0.19
-0.05,0.5,0.15
-0.07,0.56,-0.01
-0.25,0.14,-0.28
-0.24,0.39,-0.19
-0.26,0.53,-0.13
-0.46,0.33,-0.17
-0.54,0.55,-0.18
-0.65,0.61,-0.15
-0.66,0.66,-0.16
-0.67,0.69,-0.17
-0.7,0.72,-0.15
-0.68,0.73,-0.13
-0.67,0.76,-0.13
-0.63,0.8,-0.13
-0.58,0.8,-0.14
-0.58,0.77,-0.13
-0.56,0.77,-0.1
-0.52,0.79,-0.09
-0.48,0.83,-0.07
-0.45,0.84,-0.07
-0.44,0.82,-0.09
-0.41,0.86,-0.05
-0.41,0.86,-0.05
-0.4,0.87,-0.03
-0.38,0.86,0
-0.35,0.85,0.01
-0.31,0.89,0.04
-0.28,0.91,0.05
-0.25,0.92,0.06
-0.23,0.94,0.07
-0.2,0.95,0.07
-0.17,0.95,0.08
-0.16,0.93,0.11
-0.13,0.94,0.13
-0.12,0.93,0.15
-0.1,0.93,0.17
-0.09,0.93,0.18
-0.09,0.92,0.19
-0.08,0.92,0.19
-0.07,0.91,0.19
-0.06,0.92,0.18
-0.05,0.93,0.18
-0.05,0.93,0.18
-0.04,0.94,0.19
-0.04,0.94,0.21
-0.04,0.93,0.21
-0.04,0.94,0.21
-0.05,0.96,0.2
-0.06,0.95,0.2
-0.07,0.95,0.21
-0.07,0.95,0.2
-0.07,0.95,0.2
-0.07,0.95,0.2
-0.07,0.95,0.2
-0.07,0.95,0.19
-0.06,0.95,0.19
-0.06,0.95,0.18
-0.07,0.95,0.17
-0.07,0.93,0.17
-0.09,0.93,0.17
-0.09,0.92,0.17
-0.09,0.92,0.18
-0.09,0.92,0.18
-0.1,0.92,0.18
-0.1,0.93,0.18
-0.08,0.92,0.17
-0.08,0.92,0.16
-0.08,0.93,0.16
-0.08,0.94,0.17
-0.07,0.95,0.18
-0.08,0.96,0.19
-0.07,0.96,0.19
-0.06,0.97,0.19
-0.04,0.97,0.19
-0.03,0.97,0.2
-0.02,0.97,0.21
-0.01,0.96,0.22
-0.01,0.96,0.22
0,0.96,0.22
0,0.97,0.22
0.01,0.97,0.21
0.01,0.96,0.21
0.01,0.95,0.21
0.01,0.95,0.22
0.02,0.95,0.21
0.01,0.96,0.2
0.01,0.95,0.2
0,0.95,0.19
0,0.94,0.18
-0.02,0.92,0.17
-0.03,0.92,0.16
-0.04,0.91,0.16
-0.04,0.9,0.16
-0.05,0.89,0.16
-0.07,0.88,0.15
-0.08,0.86,0.15
-0.11,0.85,0.14
-0.13,0.82,0.13
-0.16,0.79,0.12
-0.19,0.76,0.12
-0.21,0.72,0.11
-0.22,0.68,0.09
-0.22,0.64,0.09
-0.23,0.62,0.1
-0.24,0.6,0.1
-0.26,0.59,0.1
-0.27,0.59,0.1
-0.28,0.55,0.09
-0.29,0.53,0.08
-0.27,0.54,0.07
-0.26,0.51,0.06
-0.17,0.49,0.06
-0.15,0.45,0.07
-0.14,0.41,0.07
-0.13,0.37,0.07
-0.12,0.33,0.05
-0.11,0.28,0.03
-0.09,0.22,0
-0.07,0.25,0
-0.01,0.32,0.04
0.09,0.31,0.1
0.11,0.27,0.11
0.11,0.22,0.1
0.14,0.19,0.1
0.11,0.14,0.1
0.12,0.02,0.09
0.18,-0.03,0.09
0.24,-0.01,0.1
0.34,0.04,0.18
0.44,0,0.22
0.52,-0.11,0.21
0.61,-0.17,0.2
0.65,-0.25,0.18
0.68,-0.36,0.16
0.71,-0.41,0.14
0.75,-0.41,0.12
0.84,-0.43,0.07
1.04,-0.58,0.08
1.14,-0.63,0.1
1.2,-0.72,0.13
1.25,-0.8,0.17
1.26,-0.91,0.24
1.29,-1.01,0.36
1.31,-1.04,0.42
1.3,-1.1,0.38
1.2,-1.24,0.32
1.19,-1.35,0.3
1.35,-1.37,0.27
1.44,-1.45,0.26
1.43,-1.63,0.37
1.48,-1.74,0.6
1.55,-1.61,0.76
1.54,-1.43,0.7
1.44,-1.35,0.61
1.3,-1.68,0.57
1.27,-2.15,0.52
1.41,-2.26,0.43
1.54,-2.21,0.35
1.56,-2.06,0.29
1.52,-1.92,0.24
1.45,-1.83,0.19
1.39,-1.75,0.16
1.33,-1.68,0.14
1.24,-1.53,0.14
1.2,-1.48,0.15
1.17,-1.42,0.14
1.15,-1.35,0.11
1.12,-1.3,0.09
1.09,-1.25,0.08
1.06,-1.23,0.07
1.04,-1.18,0.08
1.01,-1.14,0.11
0.98,-1.1,0.15
0.96,-1.04,0.19
0.95,-1.01,0.23
0.93,-0.97,0.26
0.9,-0.93,0.26
0.88,-0.93,0.26
0.86,-0.92,0.27
0.84,-0.91,0.27
0.84,-0.89,0.28
0.8,-0.89,0.28
0.75,-0.88,0.27
0.73,-0.87,0.26
0.75,-0.88,0.26
0.75,-0.89,0.25
0.75,-0.9,0.25
0.75,-0.9,0.25
0.74,-0.9,0.24
0.74,-0.95,0.22
0.72,-0.98,0.23
0.72,-1.02,0.23
0.72,-1.07,0.22
0.73,-1.11,0.22
0.75,-1.15,0.22
0.76,-1.21,0.21
0.76,-1.26,0.21
0.77,-1.31,0.21
0.79,-1.34,0.2
0.82,-1.36,0.24
0.87,-1.38,0.31
0.95,-1.41,0.37
1.03,-1.47,0.41
1.07,-1.54,0.45
1.07,-1.62,0.48
1.07,-1.68,0.48
1.08,-1.71,0.49
1.09,-1.75,0.53
1.14,-1.8,0.55
1.17,-1.84,0.54
1.19,-1.89,0.55
1.24,-1.92,0.56
1.31,-1.92,0.53
1.37,-1.95,0.5
1.4,-2,0.46
1.4,-2,0.29
1.36,-1.95,0.24
1.4,-1.91,0.24
1.43,-1.89,0.22
1.46,-1.87,0.25
1.46,-1.83,0.3
1.42,-1.78,0.32
1.38,-1.73,0.33
1.36,-1.67,0.31
1.33,-1.61,0.26
1.27,-1.58,0.23
1.22,-1.53,0.21
1.16,-1.48,0.19
1.1,-1.41,0.18
1.04,-1.33,0.16
0.97,-1.26,0.16
0.92,-1.18,0.18
0.89,-1.11,0.16
0.86,-1.03,0.13
0.77,-0.92,0.09
0.73,-0.81,0.04
0.72,-0.74,0.02
0.67,-0.67,0.01
0.63,-0.6,0.03
0.59,-0.55,0.03
0.56,-0.48,-0.02
0.53,-0.37,-0.07
0.42,-0.25,-0.03
0.33,-0.3,-0.01
0.32,-0.26,-0.04
0.28,-0.3,-0.1
0.18,-0.22,-0.12
0.17,0.04,-0.11
0.09,0.08,-0.08
0,0.31,0.04
0.02,0.2,0.08
-0.1,0.23,0.11
-0.04,0.81,0.08
-0.11,0.45,0.01
-0.32,0.1,0
-0.18,0.43,-0.12
-0.21,0.45,-0.12
-0.32,0.38,-0.08
-0.4,0.42,-0.09
-0.43,0.47,-0.08
-0.44,0.51,-0.08
-0.46,0.56,-0.06
-0.48,0.62,-0.04
-0.49,0.67,-0.05
-0.48,0.69,-0.05
-0.47,0.71,-0.04
-0.46,0.74,-0.05
-0.43,0.84,-0.06
-0.45,0.87,-0.05
-0.44,0.9,-0.06
-0.41,0.94,-0.05
-0.37,0.97,-0.03
-0.33,0.96,-0.02
-0.31,0.94,-0.02
-0.28,0.96,0
-0.23,0.97,0.01
-0.2,0.99,0.02
-0.15,0.99,0.03
-0.11,1,0.06
-0.07,1,0.09
-0.05,0.98,0.1
-0.05,0.96,0.12
-0.01,0.96,0.12
0.02,0.97,0.14
0.02,0.95,0.15
0.02,0.95,0.16
0.01,0.91,0.15
0.01,0.9,0.15
0.01,0.91,0.17
-0.01,0.92,0.17
-0.02,0.93,0.18
-0.02,0.95,0.18
-0.02,0.94,0.17
-0.03,0.94,0.17
-0.05,0.93,0.18
-0.05,0.93,0.19
-0.07,0.93,0.18
-0.08,0.94,0.17
-0.09,0.95,0.17
-0.08,0.95,0.17
-0.08,0.95,0.18
-0.07,0.95,0.17
-0.06,0.93,0.16
-0.07,0.93,0.15
-0.07,0.94,0.16
-0.07,0.94,0.15
-0.07,0.94,0.14
-0.07,0.96,0.15
-0.06,0.96,0.15
-0.06,0.96,0.16
-0.06,0.95,0.16
-0.06,0.95,0.16
-0.06,0.94,0.17
-0.07,0.95,0.16
-0.06,0.97,0.16
-0.05,0.97,0.16
-0.05,0.96,0.16
-0.07,0.95,0.16
-0.08,0.94,0.16
-0.08,0.94,0.16
-0.08,0.94,0.16
-0.08,0.93,0.15
-0.08,0.93,0.15
-0.08,0.93,0.16
-0.08,0.93,0.16
-0.08,0.93,0.16
-0.09,0.93,0.15
-0.09,0.93,0.15
-0.09,0.94,0.15
-0.08,0.95,0.16
-0.08,0.95,0.16
-0.08,0.94,0.16
-0.07,0.93,0.16
-0.07,0.93,0.16
-0.06,0.93,0.17
-0.06,0.93,0.17
-0.07,0.92,0.17
-0.08,0.91,0.15
-0.1,0.89,0.14
-0.11,0.87,0.13
-0.12,0.86,0.12
-0.13,0.84,0.1
-0.15,0.82,0.08
-0.17,0.8,0.07
-0.19,0.79,0.07
-0.2,0.77,0.04
-0.23,0.72,0.03
-0.25,0.69,0.02
-0.26,0.66,0.01
-0.27,0.64,0.01
-0.28,0.63,0.02
-0.27,0.61,0.01
-0.23,0.62,0.02
-0.2,0.62,0.02
-0.17,0.61,0.02
-0.16,0.58,0.02
-0.15,0.52,0.02
-0.13,0.48,0.03
-0.1,0.45,0.05
-0.07,0.42,0.07
-0.04,0.4,0.07
0.02,0.24,0.06
0.06,0.26,0.09
0.06,0.36,0.1
0.09,0.26,0.1
0.13,0.23,0.14
0.15,0.18,0.16
0.11,0.07,0.13
0.18,0.07,0.08
0.3,0.1,0.06
0.25,-0.02,0.07
0.31,-0.07,0.11
0.54,-0.17,0.2
0.52,-0.28,0.16
0.47,-0.35,0.1
0.58,-0.29,0.08
0.67,-0.3,0.04
0.81,-0.27,0.11
0.88,-0.38,0.16
0.89,-0.5,0.17
0.94,-0.48,0.2
0.92,-0.54,0.16
0.87,-0.69,0.1
0.85,-0.75,0.13
0.82,-0.88,0.13
0.91,-0.88,0.18
1.03,-0.84,0.24
1.15,-0.97,0.28
1.22,-1.02,0.29
1.17,-1.12,0.27
1.19,-1.24,0.23
1.21,-1.3,0.15
1.14,-1.37,0.07
1.19,-1.4,0.01
1.26,-1.42,0.09
1.29,-1.42,0.15
1.32,-1.44,0.19
1.36,-1.55,0.28
1.33,-1.68,0.27
1.32,-1.54,0.25
1.28,-1.51,0.19
1.09,-1.7,0.17
0.98,-1.93,0.11
0.97,-2.07,0.04
1,-2.16,0.06
0.99,-2.09,0.09
0.96,-1.97,0.13
0.96,-1.94,0.14
0.95,-1.96,0.12
0.95,-1.96,0.08
0.99,-1.95,0.07
0.97,-1.94,0.08
0.94,-1.9,0.08
0.95,-1.86,0.04
0.96,-1.76,0.04
0.99,-1.67,0.05
0.99,-1.65,0.07
0.96,-1.61,0.1
0.94,-1.53,0.13
0.92,-1.44,0.16
0.92,-1.36,0.17
0.97,-1.32,0.16
1,-1.25,0.15
0.95,-1.16,0.18
0.89,-1.09,0.23
0.89,-1.03,0.26
0.88,-0.98,0.29
0.88,-0.96,0.3
0.89,-0.92,0.3
0.89,-0.88,0.28
0.89,-0.85,0.27
0.91,-0.83,0.25
0.89,-0.83,0.25
0.85,-0.84,0.26
0.84,-0.83,0.26
0.84,-0.85,0.24
0.82,-0.88,0.23
0.8,-0.9,0.25
0.77,-0.94,0.25
0.76,-0.98,0.23
0.76,-1.03,0.2
0.76,-1.08,0.19
0.78,-1.13,0.2
0.79,-1.19,0.2
0.79,-1.25,0.21
0.79,-1.31,0.25
0.79,-1.37,0.28
0.8,-1.43,0.3
0.81,-1.5,0.28
0.84,-1.55,0.28
0.88,-1.65,0.4
0.95,-1.71,0.4
0.96,-1.8,0.38
0.94,-1.89,0.41
0.96,-1.97,0.45
1.01,-2,0.45
1.05,-2,0.44
1.07,-2.02,0.49
1.11,-2.07,0.55
1.16,-2.11,0.53
1.19,-2.14,0.47
1.24,-2.19,0.44
1.26,-2.22,0.42
1.24,-2.25,0.37
1.19,-2.23,0.3
1.14,-2.15,0.25
1.14,-2.06,0.23
1.16,-2,0.24
1.16,-1.95,0.27
1.13,-1.88,0.32
1.09,-1.81,0.34
1.05,-1.78,0.3
0.99,-1.73,0.29
0.93,-1.65,0.31
0.91,-1.56,0.32
0.91,-1.48,0.31
0.88,-1.32,0.35
0.81,-1.25,0.37
0.77,-1.17,0.36
0.74,-1.07,0.33
0.7,-0.96,0.31
0.65,-0.86,0.28
0.62,-0.79,0.27
0.64,-0.68,0.32
0.62,-0.65,0.33
0.6,-0.57,0.3
0.61,-0.46,0.31
0.59,-0.42,0.28
0.58,-0.34,0.28
0.52,-0.35,0.32
0.46,-0.34,0.32
0.43,-0.22,0.31
0.42,-0.17,0.28
0.39,-0.12,0.21
0.41,0.07,0.14
0.39,0.04,0.14
0.23,-0.18,0.21
0.29,0.05,0.17
0.31,0.2,0.07
0.19,0.14,0.13
0.13,0.22,0.15
0.08,0.2,0.04
0.08,0.27,0.14
-0.01,0.49,0.2
-0.05,0.35,0.2
-0.16,0.11,0.07
-0.1,0.34,-0.05
-0.19,0.3,-0.12
-0.32,0.34,-0.08
-0.36,0.43,-0.07
-0.35,0.45,-0.08
-0.37,0.51,-0.08
-0.4,0.6,-0.11
-0.45,0.64,-0.09
-0.5,0.63,-0.08
-0.54,0.62,-0.08
-0.56,0.63,-0.1
-0.57,0.68,-0.11
-0.56,0.74,-0.08
-0.55,0.81,-0.06
-0.56,0.87,-0.05
-0.55,0.9,-0.04
-0.53,0.92,-0.03
-0.51,0.92,-0.03
-0.48,0.92,-0.01
-0.45,0.93,0.01
-0.41,0.95,0.02
-0.35,0.95,0.03
-0.31,0.95,0.09
-0.19,0.96,0.11
-0.13,0.96,0.12
-0.1,0.95,0.13
-0.07,0.95,0.15
-0.04,0.95,0.18
0,0.96,0.2
0.03,0.97,0.21
0.04,0.97,0.22
0.07,0.98,0.23
0.08,0.98,0.23
0.07,0.98,0.23
0.07,0.98,0.23
0.09,0.99,0.23
0.11,0.99,0.24
0.11,1.01,0.26
0.12,1.01,0.25
0.11,0.98,0.26
0.1,0.98,0.27
0.1,0.97,0.27
0.1,0.96,0.27
0.1,0.95,0.26
0.09,0.95,0.24
0.09,0.94,0.22
0.08,0.92,0.21
0.07,0.93,0.22
0.07,0.94,0.22
0.05,0.93,0.22
0.03,0.93,0.21
0.02,0.94,0.2
0.01,0.94,0.21
0,0.93,0.22
-0.02,0.93,0.23
-0.03,0.94,0.24
-0.03,0.94,0.25
-0.03,0.94,0.26
-0.04,0.94,0.27
-0.04,0.95,0.27
-0.05,0.94,0.26
-0.06,0.94,0.25
-0.06,0.94,0.24
-0.05,0.94,0.24
-0.05,0.95,0.25
-0.05,0.95,0.25
-0.04,0.95,0.26
-0.04,0.95,0.27
-0.04,0.94,0.27
-0.04,0.93,0.26
-0.03,0.93,0.26
-0.03,0.93,0.25
-0.02,0.93,0.24
-0.02,0.94,0.24
-0.03,0.94,0.22
-0.04,0.95,0.23
-0.04,0.95,0.23
-0.04,0.95,0.23
-0.04,0.95,0.22
-0.04,0.95,0.22
-0.05,0.95,0.22
-0.05,0.95,0.21
-0.06,0.96,0.2
-0.06,0.96,0.19
-0.06,0.96,0.19
-0.06,0.96,0.17
-0.07,0.96,0.17
-0.06,0.95,0.17
-0.07,0.94,0.16
-0.07,0.94,0.17
-0.06,0.93,0.18
-0.06,0.93,0.18
-0.06,0.93,0.18
-0.06,0.94,0.17
-0.05,0.94,0.17
-0.05,0.94,0.17
-0.05,0.93,0.17
-0.05,0.93,0.17
-0.05,0.92,0.18
-0.05,0.93,0.2
-0.05,0.93,0.2
-0.06,0.91,0.21
-0.06,0.88,0.21
-0.07,0.85,0.21
-0.09,0.82,0.21
-0.11,0.79,0.21
-0.13,0.77,0.19
-0.15,0.75,0.16
-0.17,0.72,0.13
-0.2,0.69,0.12
-0.21,0.65,0.11
-0.23,0.62,0.1
-0.21,0.62,0.09
-0.17,0.64,0.09
-0.14,0.64,0.1
-0.15,0.63,0.11
-0.16,0.59,0.11
-0.17,0.56,0.1
-0.18,0.52,0.07
-0.18,0.48,0.05
-0.17,0.47,0.04
-0.15,0.51,0.03
-0.11,0.54,0.04
-0.08,0.52,0.03
-0.08,0.49,0.04
-0.08,0.45,0.06
-0.09,0.39,0.06
-0.1,0.3,0.05
-0.1,0.29,0.04
-0.06,0.3,0.04
-0.01,0.32,0.05
0.05,0.31,0.08
0.07,0.26,0.09
0.06,0.18,0.07
0.05,0.15,0.01
0.07,0.08,-0.07
0.15,0.02,-0.1
0.3,0.02,-0.06
0.48,0.01,0.03
0.59,0.01,0.16
0.65,-0.06,0.22
0.72,-0.11,0.2
0.74,-0.19,0.16
0.72,-0.28,0.11
0.74,-0.32,0.12
0.81,-0.46,0.14
0.91,-0.59,0.16
1.03,-0.6,0.23
1.13,-0.62,0.3
1.21,-0.66,0.35
1.28,-0.79,0.4
1.3,-0.83,0.4
1.25,-0.81,0.32
1.2,-1.07,0.22
1.24,-1.11,0.21
1.23,-1.12,0.27
1.19,-1.22,0.3
1.14,-1.46,0.32
1.16,-1.62,0.35
1.23,-1.67,0.34
1.25,-1.73,0.36
1.25,-1.75,0.35
1.22,-1.78,0.28
1.19,-1.72,0.18
1.06,-1.8,0.1
0.92,-2.14,0.09
0.92,-2.34,0.12
1.07,-2.33,0.14
1.15,-2.27,0.14
1.04,-2.24,0.13
0.99,-2.2,0.11
0.92,-2.17,0.08
0.9,-2.17,0.04
0.96,-2.11,0.04
0.98,-2.08,0.05
0.95,-2.04,0.07
1.01,-1.93,0.07
1.05,-1.84,0.05
1.03,-1.78,0.06
1.02,-1.69,0.04
0.99,-1.53,0.04
0.97,-1.45,0.06
0.97,-1.37,0.09
0.96,-1.3,0.11
0.96,-1.24,0.16
0.97,-1.18,0.19
0.94,-1.14,0.21
0.92,-1.08,0.24
0.96,-1.02,0.26
0.94,-0.99,0.26
0.89,-0.97,0.26
0.87,-0.92,0.27
0.86,-0.89,0.28
0.88,-0.88,0.28
0.9,-0.83,0.28
0.87,-0.79,0.28
0.85,-0.82,0.26
0.85,-0.85,0.23
0.83,-0.88,0.22
0.82,-0.9,0.21
0.84,-0.92,0.2
0.85,-0.95,0.21
0.85,-1,0.22
0.84,-1.07,0.21
0.84,-1.13,0.2
0.85,-1.19,0.19
0.87,-1.29,0.2
0.89,-1.36,0.22
0.88,-1.45,0.21
0.88,-1.52,0.23
0.9,-1.56,0.29
0.95,-1.61,0.34
1.01,-1.7,0.4
1.04,-1.79,0.45
1.03,-1.86,0.46
0.99,-1.94,0.47
1.03,-1.99,0.51
1.13,-2.03,0.55
1.18,-2.15,0.6
1.22,-2.25,0.63
1.26,-2.3,0.64
1.29,-2.37,0.62
1.33,-2.42,0.61
1.36,-2.44,0.59
1.36,-2.46,0.55
1.35,-2.48,0.5
1.32,-2.5,0.47
1.26,-2.49,0.45
1.17,-2.44,0.39
1.09,-2.36,0.31
1.02,-2.23,0.26
1.03,-2.08,0.34
1.1,-1.87,0.4
1.04,-1.83,0.39
0.95,-1.78,0.29
0.86,-1.7,0.18
0.75,-1.61,0.12
0.64,-1.48,0.17
0.61,-1.38,0.26
0.59,-1.3,0.29
0.54,-1.2,0.33
0.51,-1.07,0.35
0.51,-0.99,0.32
0.49,-0.94,0.26
0.51,-0.85,0.25
0.6,-0.75,0.26
0.62,-0.65,0.26
0.61,-0.57,0.23
0.54,-0.65,0.14
0.47,-0.61,0.1
0.45,-0.42,0.14
0.42,-0.25,0.16
0.38,-0.45,0.16
0.33,-0.47,0.16
0.31,-0.29,0.13
0.27,-0.11,0.13
0.29,0.1,0.02
0.28,-0.32,-0.05
0.26,-0.04,-0.07
-0.03,-0.18,0.08
0.02,-0.01,0.18
0.01,-0.02,0.18
-0.03,0.11,0.17
-0.09,0.26,0.08
-0.16,0.29,0.02
-0.23,0.3,0
-0.25,0.37,-0.05
-0.27,0.43,-0.04
-0.29,0.49,-0.06
-0.34,0.53,-0.06
-0.4,0.55,-0.02
-0.42,0.58,-0.05
-0.47,0.62,-0.05
-0.51,0.67,-0.06
-0.53,0.69,-0.1
-0.55,0.71,-0.1
-0.55,0.76,-0.09
-0.55,0.81,-0.09
-0.55,0.82,-0.1
-0.54,0.82,-0.1
-0.56,0.81,-0.1
-0.58,0.79,-0.12
-0.56,0.81,-0.13
-0.56,0.85,-0.07
-0.55,0.86,-0.08
-0.54,0.89,-0.07
-0.53,0.89,-0.06
-0.52,0.89,-0.07
-0.49,0.89,-0.09
-0.46,0.91,-0.09
-0.45,0.91,-0.09
-0.43,0.92,-0.09
-0.4,0.94,-0.07
-0.38,0.95,-0.05
-0.36,0.95,-0.02
-0.32,0.97,0
-0.27,1.01,0.03
-0.24,0.99,0.06
-0.22,0.97,0.1
-0.19,0.96,0.14
-0.17,0.94,0.16
-0.14,0.93,0.17
-0.12,0.93,0.18
-0.09,0.93,0.2
-0.08,0.93,0.23
-0.06,0.91,0.24
-0.04,0.9,0.25
-0.03,0.92,0.28
-0.05,0.91,0.29
-0.06,0.91,0.29
-0.06,0.9,0.27
-0.07,0.92,0.26
-0.06,0.93,0.25
-0.06,0.93,0.25
-0.09,0.91,0.26
-0.11,0.91,0.26
-0.13,0.92,0.25
-0.14,0.93,0.24
-0.13,0.94,0.23
-0.14,0.95,0.23
-0.15,0.95,0.23
-0.16,0.95,0.22
-0.16,0.95,0.21
-0.16,0.96,0.2
-0.15,0.97,0.19
-0.15,0.98,0.2
-0.15,0.98,0.2
-0.15,0.97,0.2
-0.15,0.95,0.19
-0.16,0.94,0.18
-0.16,0.94,0.18
-0.14,0.94,0.17
-0.13,0.95,0.17
-0.12,0.96,0.18
-0.12,0.96,0.17
-0.13,0.95,0.17
-0.13,0.93,0.18
-0.12,0.93,0.17
-0.12,0.92,0.17
-0.12,0.93,0.17
-0.13,0.94,0.17
-0.13,0.95,0.17
-0.12,0.95,0.18
-0.12,0.95,0.19
-0.12,0.94,0.19
-0.12,0.93,0.18
-0.13,0.92,0.18
-0.13,0.92,0.18
-0.13,0.93,0.19
-0.13,0.94,0.19
-0.13,0.94,0.19
-0.13,0.95,0.19
-0.13,0.94,0.19
-0.13,0.93,0.19
-0.13,0.92,0.18
-0.14,0.9,0.18
-0.16,0.89,0.16
-0.17,0.88,0.15
-0.18,0.87,0.13
-0.19,0.86,0.11
-0.21,0.84,0.09
-0.23,0.83,0.08
-0.26,0.79,0.05
-0.33,0.77,0.03
-0.36,0.75,0.01
-0.37,0.74,-0.02
-0.38,0.73,-0.05
-0.38,0.71,-0.06
-0.36,0.72,-0.06
-0.33,0.71,-0.05
-0.31,0.68,-0.04
-0.31,0.64,-0.03
-0.32,0.58,-0.02
-0.32,0.52,-0.01
-0.31,0.48,-0.01
-0.3,0.44,-0.01
-0.27,0.41,0.01
-0.23,0.41,0.03
-0.19,0.41,0.04
-0.17,0.36,0.04
-0.16,0.31,0.03
-0.15,0.28,0.03
-0.14,0.22,0.03
-0.12,0.2,0.03
-0.06,0.2,0.05
0.01,0.19,0.05
0.03,0.16,0.05
0.07,0.09,0.05
0.14,0.01,0.04
0.14,-0.31,0.04
0.25,-0.28,0.05
0.33,-0.21,-0.04
0.35,-0.43,-0.11
0.32,-0.52,-0.08
0.6,-0.29,-0.03
0.9,-0.23,0.03
0.88,-0.39,0.08
0.87,-0.48,0.14
0.91,-0.65,0.18
0.95,-0.72,0.25
0.9,-0.83,0.29
0.93,-0.88,0.3
1.03,-0.83,0.31
1.1,-0.85,0.32
1.19,-0.91,0.35
1.26,-0.98,0.37
1.25,-1.1,0.37
1.27,-1.3,0.4
1.32,-1.35,0.54
1.39,-1.4,0.7
1.37,-1.44,0.7
1.27,-1.35,0.6
1.24,-1.37,0.5
1.22,-1.46,0.42
1.14,-1.6,0.42
1.26,-1.66,0.31
1.18,-1.59,0.27
1.18,-1.7,0.28
1.28,-1.65,0.31
1.29,-1.6,0.34
1.27,-1.75,0.33
1.17,-1.87,0.28
1.13,-1.88,0.2
1.17,-1.99,0.17
1.17,-2.06,0.16
1.17,-1.99,0.13
1.15,-1.92,0.13
1.15,-1.88,0.15
1.11,-1.87,0.15
1.1,-1.91,0.14
1.09,-1.88,0.16
1.06,-1.79,0.15
1.04,-1.75,0.14
1,-1.71,0.16
1,-1.66,0.16
1.01,-1.57,0.16
1.02,-1.49,0.16
0.98,-1.44,0.16
0.94,-1.38,0.17
0.95,-1.31,0.16
0.94,-1.24,0.13
0.94,-1.11,0.14
0.87,-1.06,0.19
0.86,-1,0.21
0.89,-0.95,0.2
0.89,-0.92,0.22
0.84,-0.89,0.23
0.83,-0.86,0.24
0.85,-0.83,0.24
0.85,-0.8,0.25
0.81,-0.78,0.25
0.79,-0.79,0.26
0.78,-0.8,0.26
0.76,-0.81,0.25
0.73,-0.83,0.23
0.73,-0.86,0.21
0.72,-0.88,0.2
0.73,-0.91,0.18
0.74,-0.94,0.17
0.73,-0.99,0.18
0.72,-1.03,0.2
0.74,-1.08,0.18
0.75,-1.14,0.17
0.76,-1.21,0.18
0.78,-1.28,0.18
0.79,-1.38,0.19
0.79,-1.46,0.22
0.8,-1.52,0.27
0.85,-1.56,0.31
0.94,-1.59,0.33
1.04,-1.64,0.35
1.12,-1.74,0.38
1.2,-1.86,0.41
1.32,-1.97,0.42
1.42,-2.02,0.43
1.47,-2.06,0.42
1.52,-2.11,0.41
1.56,-2.17,0.37
1.6,-2.25,0.33
1.62,-2.28,0.31
1.62,-2.29,0.28
1.6,-2.28,0.23
1.55,-2.25,0.18
1.53,-2.21,0.16
1.52,-2.12,0.19
1.49,-2.02,0.2
1.46,-1.96,0.18
1.43,-1.91,0.17
1.41,-1.85,0.15
1.36,-1.79,0.11
1.31,-1.73,0.07
1.28,-1.67,0.04
1.26,-1.61,0.05
1.28,-1.45,0.06
1.29,-1.38,0.06
1.28,-1.28,0.05
1.25,-1.16,0.01
1.21,-1.07,-0.05
1.13,-1.02,-0.11
1.05,-0.96,-0.12
0.97,-0.89,-0.14
0.87,-0.84,-0.16
0.75,-0.78,-0.16
0.64,-0.71,-0.12
0.58,-0.7,-0.11
0.49,-0.74,-0.08
0.42,-0.73,-0.09
0.43,-0.51,-0.09
0.43,-0.3,-0.1
0.39,-0.38,-0.11
0.32,-0.51,-0.15
0.26,-0.36,-0.16
0.18,-0.21,-0.13
0.18,-0.03,-0.17
0.09,-0.15,-0.1
-0.19,-0.42,-0.01
-0.3,-0.15,-0.11
-0.44,-0.56,-0.11
-0.34,-0.6,0.06
-0.2,0,-0.1
-0.29,0.12,-0.04
-0.34,0.28,-0.03
-0.37,0.41,-0.09
-0.43,0.43,-0.08
-0.47,0.47,-0.07
-0.5,0.51,-0.04
-0.52,0.54,-0.02
-0.53,0.6,0
-0.55,0.64,0.02
-0.58,0.64,0.03
-0.59,0.65,0
-0.6,0.69,-0.03
-0.58,0.72,-0.04
-0.57,0.78,-0.03
-0.56,0.81,-0.01
-0.56,0.84,0.02
-0.55,0.87,0.02
-0.55,0.86,0.01
-0.55,0.87,0.01
-0.52,0.88,0.01
-0.51,0.89,0.01
-0.49,0.89,0.03
-0.46,0.91,0.02
-0.43,0.91,0.02
-0.39,0.89,0.04
-0.38,0.91,0.09
-0.33,0.91,0.1
-0.3,0.9,0.1
-0.28,0.9,0.1
-0.24,0.91,0.12
-0.22,0.9,0.13
-0.23,0.89,0.14
-0.22,0.92,0.15
-0.2,0.93,0.15
-0.18,0.94,0.16
-0.17,0.94,0.17
-0.17,0.94,0.19
-0.15,0.95,0.21
-0.14,0.95,0.22
-0.13,0.97,0.23
-0.12,0.99,0.22
-0.11,0.99,0.21
-0.1,0.98,0.21
-0.1,0.97,0.22
-0.09,0.96,0.21
-0.08,0.94,0.2
-0.07,0.93,0.21
-0.06,0.94,0.21
-0.06,0.95,0.2
-0.05,0.94,0.2
-0.05,0.94,0.18
-0.05,0.95,0.17
-0.05,0.94,0.16
-0.05,0.93,0.17
-0.04,0.92,0.17
-0.05,0.92,0.17
-0.06,0.92,0.17
-0.07,0.93,0.16
-0.07,0.96,0.15
-0.06,0.97,0.14
-0.06,0.97,0.12
-0.06,0.98,0.13
-0.06,0.98,0.14
-0.06,0.98,0.15
-0.07,0.98,0.15
-0.07,0.98,0.15
-0.05,0.98,0.16
-0.05,0.98,0.17
-0.05,0.98,0.18
-0.05,0.98,0.18
-0.04,0.97,0.18
-0.03,0.96,0.18
-0.03,0.95,0.18
-0.03,0.94,0.19
-0.03,0.94,0.19
-0.03,0.93,0.19
-0.04,0.93,0.18
-0.05,0.92,0.17
-0.06,0.92,0.17
-0.07,0.91,0.16
-0.09,0.9,0.15
-0.11,0.88,0.14
-0.13,0.86,0.14
-0.15,0.85,0.12
-0.16,0.83,0.1
-0.18,0.82,0.09
-0.18,0.81,0.08
-0.19,0.8,0.07
-0.2,0.77,0.06
-0.21,0.75,0.06
-0.22,0.71,0.06
-0.24,0.69,0.07
-0.24,0.68,0.08
-0.24,0.67,0.09
-0.23,0.65,0.09
-0.22,0.62,0.07
-0.21,0.59,0.06
-0.2,0.57,0.04
-0.18,0.56,0.03
-0.17,0.53,0.03
-0.19,0.51,0.04
-0.17,0.53,0.05
-0.13,0.54,0.07
-0.09,0.53,0.1
-0.08,0.43,0.09
-0.08,0.39,0.07
-0.09,0.34,0.06
-0.09,0.3,0.06
-0.02,0.37,0.09
0.07,0.42,0.13
0.11,0.32,0.15
0.12,0.26,0.17
0.12,0.22,0.17
0.11,0.15,0.13
0.1,0.08,0.06
0.11,0,0.01
0.17,-0.04,-0.08
0.25,-0.09,-0.08
0.32,-0.18,0.11
0.5,-0.18,0.2
0.57,-0.21,0.15
0.53,-0.32,0.08
0.56,-0.39,0.06
0.53,-0.49,-0.01
0.53,-0.58,-0.13
0.6,-0.64,-0.17
0.77,-0.67,-0.11
0.87,-0.73,-0.02
0.9,-0.86,0.12
0.99,-0.99,0.18
1.06,-1.17,0.17
1.05,-1.36,0.17
1.12,-1.37,0.21
1.14,-1.45,0.22
1.09,-1.6,0.18
1.11,-1.7,0.16
1.26,-1.82,0.19
1.34,-1.96,0.25
1.3,-2.02,0.25
1.27,-2.07,0.34
1.31,-2.14,0.41
1.45,-2.01,0.33
1.37,-1.72,0.35
0.93,-1.85,0.33
1,-2.35,0.3
1.31,-2.67,0.33
1.25,-2.61,0.32
1.28,-2.35,0.32
1.27,-2.24,0.32
1.14,-2.24,0.31
1.05,-2.22,0.26
1.04,-2.19,0.2
1.02,-2.14,0.17
0.99,-2.1,0.15
0.98,-2.02,0.14
1,-1.85,0.16
0.98,-1.77,0.13
1.02,-1.69,0.12
1.04,-1.61,0.11
1.01,-1.54,0.12
0.97,-1.48,0.14
1,-1.38,0.13
1.03,-1.3,0.15
1.03,-1.23,0.17
1.03,-1.15,0.18
1.01,-1.1,0.22
0.99,-1.08,0.25
0.96,-1.04,0.23
0.99,-0.96,0.24
0.98,-0.92,0.27
0.94,-0.92,0.27
0.95,-0.89,0.28
0.92,-0.88,0.27
0.9,-0.87,0.25
0.92,-0.84,0.25
0.9,-0.85,0.24
0.88,-0.86,0.23
0.85,-0.88,0.22
0.83,-0.91,0.2
0.81,-0.93,0.19
0.79,-0.95,0.19
0.77,-0.99,0.18
0.76,-1.07,0.16
0.77,-1.12,0.17
0.79,-1.19,0.19
0.81,-1.26,0.2
0.83,-1.34,0.18
0.82,-1.4,0.19
0.83,-1.43,0.24
0.88,-1.47,0.27
0.92,-1.55,0.29
0.95,-1.63,0.32
1,-1.73,0.35
1.07,-1.83,0.39
1.09,-1.93,0.44
1.09,-2.01,0.45
1.12,-2.07,0.49
1.17,-2.11,0.54
1.2,-2.15,0.57
1.23,-2.19,0.57
1.3,-2.26,0.55
1.39,-2.34,0.53
1.45,-2.4,0.53
1.45,-2.42,0.5
1.42,-2.44,0.47
1.37,-2.45,0.43
1.3,-2.45,0.38
1.24,-2.43,0.38
1.19,-2.29,0.33
1.14,-2.2,0.33
1.11,-2.12,0.33
1.06,-2.04,0.29
1.02,-1.96,0.25
1.01,-1.86,0.24
1,-1.74,0.26
0.96,-1.62,0.26
0.91,-1.53,0.24
0.86,-1.45,0.22
0.8,-1.36,0.21
0.77,-1.27,0.17
0.76,-1.16,0.14
0.7,-1.06,0.15
0.7,-0.95,0.19
0.74,-0.83,0.19
0.73,-0.74,0.16
0.68,-0.65,0.17
0.62,-0.57,0.17
0.61,-0.5,0.12
0.59,-0.49,0.12
0.53,-0.51,0.12
0.46,-0.47,0.1
0.43,-0.38,0.12
0.44,-0.16,0.11
0.39,-0.04,0.08
0.29,-0.44,0
0.28,-0.3,0.05
0.15,-0.07,0.05
0.04,0.26,0.11
0.03,0.25,0.17
0.14,0.62,0.08
0.15,0.76,-0.01
0.06,-0.14,-0.05
-0.04,-0.1,0.02
-0.05,0.27,-0.03
-0.06,0.23,-0.1
-0.17,0.25,-0.04
-0.25,0.3,-0.08
-0.26,0.36,-0.1
-0.27,0.43,-0.08
-0.3,0.46,-0.05
-0.39,0.51,-0.06
-0.44,0.59,-0.06
-0.44,0.61,-0.05
-0.43,0.71,-0.02
-0.45,0.76,-0.06
-0.52,0.7,-0.12
-0.57,0.72,-0.1
-0.58,0.77,-0.1
-0.6,0.76,-0.14
-0.64,0.78,-0.14
-0.62,0.81,-0.14
-0.62,0.85,-0.12
-0.6,0.86,-0.1
-0.58,0.86,-0.09
-0.55,0.87,-0.09
-0.51,0.89,-0.09
-0.49,0.89,-0.09
-0.49,0.87,-0.08
-0.47,0.85,-0.05
-0.43,0.87,0
-0.38,0.88,0.04
-0.35,0.86,0.06
-0.33,0.86,0.07
-0.31,0.88,0.07
-0.28,0.91,0.07
-0.27,0.93,0.07
-0.23,0.95,0.07
-0.19,0.95,0.05
-0.17,0.94,0.05
-0.14,0.96,0.08
-0.11,0.97,0.1
-0.08,0.99,0.12
-0.07,1.01,0.14
-0.06,1.03,0.15
-0.04,1.02,0.15
-0.02,1.01,0.14
-0.01,1,0.15
0,0.98,0.14
0.02,0.98,0.14
0.02,0.97,0.13
0.03,0.97,0.11
0.03,0.96,0.11
0.04,0.96,0.13
0.04,0.96,0.15
0.04,0.96,0.16
0.05,0.96,0.16
0.05,0.97,0.16
0.05,0.97,0.16
0.04,0.97,0.15
0.05,1.01,0.15
0.04,1,0.16
0.03,0.97,0.16
0.04,0.99,0.17
0.05,0.99,0.18
0.04,0.98,0.19
0.03,0.98,0.19
0.02,0.98,0.19
0.01,0.98,0.19
0.01,0.99,0.18
0.01,1,0.18
0.01,0.99,0.17
0.01,0.98,0.18
0.01,0.98,0.18
-0.02,0.96,0.17
-0.02,0.96,0.16
-0.03,0.95,0.15
-0.04,0.96,0.14
-0.04,0.97,0.14
-0.04,0.98,0.13
-0.06,0.98,0.13
-0.07,0.97,0.13
-0.07,0.97,0.11
-0.08,0.95,0.09
-0.1,0.94,0.07
-0.11,0.96,0.07
-0.1,0.95,0.07
-0.11,0.96,0.08
-0.12,0.96,0.09
-0.12,0.96,0.1
-0.13,0.95,0.09
-0.14,0.94,0.08
-0.15,0.92,0.06
-0.16,0.9,0.04
-0.19,0.89,0.04
-0.22,0.87,0.03
-0.25,0.85,0.01
-0.26,0.84,-0.01
-0.27,0.83,-0.01
-0.29,0.82,-0.01
-0.34,0.78,0
-0.35,0.77,0
-0.34,0.77,0
-0.34,0.76,-0.01
-0.36,0.74,-0.01
-0.35,0.74,0.01
-0.32,0.73,0.04
-0.28,0.72,0.07
-0.24,0.7,0.1
-0.21,0.68,0.11
-0.2,0.64,0.12
-0.19,0.61,0.13
-0.17,0.58,0.13
-0.12,0.57,0.13
-0.08,0.56,0.14
-0.06,0.54,0.15
-0.02,0.5,0.16
0,0.46,0.16
0,0.42,0.15
-0.01,0.37,0.13
0,0.34,0.12
0.03,0.35,0.1
0.08,0.38,0.09
0.16,0.39,0.1
0.24,0.36,0.08
0.26,0.31,0.06
0.15,0.19,0.07
0.11,0.14,0.09
0.16,0.11,0.13
0.2,0.11,0.16
0.21,0.07,0.15
0.3,0.01,0.13
0.35,-0.08,0.11
0.37,-0.18,0.1
0.47,-0.18,0.1
0.56,-0.18,0.05
0.58,-0.29,0.06
0.61,-0.42,0.13
0.67,-0.41,0.19
0.75,-0.3,0.26
0.81,-0.33,0.27
0.85,-0.52,0.24
0.91,-0.66,0.22
0.94,-0.77,0.16
0.95,-0.87,0.12
1.06,-0.85,0.18
1.17,-0.87,0.29
1.2,-0.89,0.33
1.23,-0.9,0.34
1.23,-0.96,0.39
1.19,-1.03,0.39
1.14,-1.21,0.33
1.15,-1.45,0.26
1.13,-1.55,0.26
1.16,-1.56,0.35
1.18,-1.65,0.34
1.05,-2.05,0.26
1.08,-1.99,0.39
1.25,-1.78,0.43
1.22,-1.84,0.32
1.16,-1.81,0.24
1.01,-1.86,0.19
0.93,-2.02,0.08
1.03,-2.4,-0.23
1.17,-2.41,-0.15
1.14,-2.23,0.12
1.06,-2.24,0.13
1.02,-2.26,0.15
1.01,-2.27,0.14
1.01,-2.24,0.15
1,-2.25,0.15
1.01,-2.21,0.16
1.03,-2.14,0.17
1.03,-2.1,0.17
1.03,-2.02,0.21
1.04,-1.91,0.24
1.08,-1.79,0.28
1.07,-1.68,0.31
1.03,-1.46,0.31
1.07,-1.35,0.33
1.07,-1.26,0.35
1.06,-1.19,0.37
1.04,-1.12,0.42
0.99,-1.07,0.46
0.96,-1.03,0.44
1.04,-0.98,0.42
1.1,-0.87,0.4
1.05,-0.8,0.38
1.01,-0.78,0.38
0.99,-0.76,0.37
0.96,-0.76,0.36
0.94,-0.78,0.34
0.93,-0.79,0.31
0.91,-0.81,0.28
0.89,-0.84,0.28
0.86,-0.88,0.29
0.83,-0.94,0.27
0.81,-0.99,0.22
0.82,-1.05,0.19
0.84,-1.12,0.18
0.85,-1.18,0.17
0.86,-1.26,0.16
0.89,-1.33,0.14
0.93,-1.42,0.16
0.97,-1.6,0.28
0.99,-1.68,0.29
1.04,-1.74,0.29
1.1,-1.82,0.33
1.14,-1.92,0.39
1.21,-2.01,0.43
1.28,-2.11,0.42
1.3,-2.2,0.4
1.33,-2.26,0.44
1.38,-2.33,0.49
1.39,-2.39,0.51
1.39,-2.45,0.49
1.4,-2.53,0.47
1.41,-2.6,0.48
1.43,-2.61,0.51
1.44,-2.6,0.5
1.42,-2.6,0.47
1.39,-2.59,0.43
1.38,-2.53,0.39
1.36,-2.45,0.4
1.37,-2.38,0.46
1.36,-2.33,0.5
1.29,-2.28,0.47
1.18,-2.21,0.41
1.1,-2.1,0.37
1.04,-1.96,0.34
0.99,-1.76,0.31
0.88,-1.68,0.3
0.8,-1.59,0.25
0.72,-1.48,0.24
0.72,-1.33,0.26
0.71,-1.18,0.23
0.67,-1.05,0.19
0.63,-1,0.18
0.6,-0.95,0.15
0.6,-0.87,0.11
0.55,-0.89,0.09
0.47,-0.89,0.05
0.45,-0.66,0.03
0.43,-0.46,0.04
0.31,-0.74,-0.01
0.29,-0.84,0
0.29,-0.54,0
0.16,-0.35,0.01
0.31,0.27,0.2
0.18,-0.3,-0.03
0.05,-0.82,-0.15
0.19,-0.24,0
0.07,-0.28,-0.1
0.03,-0.27,-0.1
0,-0.08,-0.12
-0.05,0.07,-0.15
-0.06,0.19,-0.03
-0.17,0.27,-0.02
-0.22,0.32,-0.04
-0.29,0.36,-0.04
-0.38,0.39,-0.07
-0.36,0.49,-0.1
-0.3,0.57,-0.07
-0.32,0.61,-0.06
-0.35,0.61,-0.05
-0.41,0.59,-0.06
-0.48,0.64,-0.09
-0.51,0.69,-0.1
-0.53,0.71,-0.1
-0.59,0.67,-0.09
-0.59,0.81,-0.03
-0.62,0.81,-0.03
-0.67,0.69,-0.1
-0.67,0.78,-0.12
-0.67,0.76,-0.16
-0.67,0.76,-0.18
-0.66,0.81,-0.18
-0.65,0.81,-0.17
-0.64,0.83,-0.14
-0.64,0.84,-0.12
-0.65,0.83,-0.09
-0.64,0.85,-0.08
-0.61,0.87,-0.09
-0.55,0.9,-0.09
-0.51,0.91,-0.09
-0.47,0.93,-0.1
-0.42,0.94,-0.09
-0.38,0.94,-0.08
-0.34,0.95,-0.05
-0.3,0.95,-0.03
-0.26,0.96,-0.03
-0.22,0.98,-0.01
-0.17,1,0.02
-0.13,1,0.04
-0.11,1,0.06
-0.09,1,0.06
-0.07,0.99,0.06
-0.05,0.98,0.05
-0.03,0.98,0.04
-0.01,0.98,0.06
0.01,0.98,0.08
0.03,0.98,0.1
0.03,0.98,0.11
0.04,0.98,0.12
0.04,0.98,0.12
0.04,0.98,0.12
0.05,0.98,0.11
0.05,0.98,0.1
0.05,0.97,0.1
0.05,0.98,0.12
0.06,0.97,0.14
0.05,0.97,0.14
0.03,0.95,0.13
0,0.94,0.11
-0.03,0.93,0.09
-0.05,0.92,0.06
-0.08,0.92,0.04
-0.09,0.92,0.02
-0.09,0.92,0.02
-0.1,0.92,0.02
-0.14,0.9,0.02
-0.16,0.89,0.01
-0.19,0.87,0
-0.22,0.84,-0.01
-0.25,0.82,-0.03
-0.27,0.81,-0.04
-0.29,0.8,-0.04
-0.3,0.77,-0.03
-0.3,0.74,-0.03
-0.31,0.71,-0.02
-0.32,0.7,0
-0.3,0.7,0.01
-0.28,0.7,0.01
-0.27,0.67,0.01
-0.29,0.62,-0.01
-0.29,0.55,0
-0.27,0.52,0.02
-0.23,0.49,0.06
-0.23,0.48,0.1
-0.2,0.43,0.09
-0.15,0.39,0.06
-0.14,0.35,0.05
-0.15,0.28,0.02
-0.1,0.24,0
-0.07,0.24,0.01
-0.03,0.22,0.01
0.03,0.2,-0.01
0.05,0.2,0.01
0.07,0.16,0.01
0.13,0.11,-0.02
0.15,0.07,-0.02
0.16,-0.02,0
0.2,-0.06,0.04
0.24,-0.08,0.08
0.32,-0.07,0.1
0.38,-0.08,0.09
0.42,-0.14,0.1
0.46,-0.22,0.13
0.5,-0.35,0.14
0.58,-0.48,0.18
0.66,-0.57,0.22
0.85,-0.64,0.19
0.94,-0.59,0.22
0.98,-0.64,0.23
1.01,-0.76,0.21
1.02,-0.89,0.24
1.01,-1.05,0.34
1.08,-1.14,0.47
1.18,-1.19,0.54
1.18,-1.23,0.54
1.17,-1.22,0.49
1.22,-1.25,0.47
1.26,-1.3,0.44
1.19,-1.38,0.42
1.15,-1.41,0.44
1.15,-1.6,0.4
1.14,-1.87,0.32
1.24,-1.82,0.28
1.3,-1.8,0.32
1.31,-1.88,0.37
1.3,-1.99,0.31
1.28,-1.96,0.28
1.2,-2.01,0.3
1.11,-2.18,0.26
1.12,-2.12,0.27
1.02,-1.97,0.27
0.96,-2,0.05
1.09,-2.52,0.15
1.09,-2.17,0.18
1.02,-2.09,0.16
0.96,-2.06,0.19
0.92,-2.07,0.22
0.92,-2.05,0.22
0.93,-1.97,0.2
0.92,-1.9,0.17
0.93,-1.79,0.19
0.97,-1.71,0.21
0.98,-1.66,0.23
0.94,-1.58,0.26
0.96,-1.47,0.3
0.95,-1.39,0.32
0.91,-1.34,0.34
0.93,-1.26,0.36
0.92,-1.21,0.36
0.93,-1.15,0.38
0.94,-1.08,0.37
0.93,-1.02,0.38
0.91,-0.98,0.41
0.92,-0.94,0.43
0.96,-0.87,0.44
0.97,-0.83,0.44
0.95,-0.83,0.43
0.95,-0.82,0.43
0.96,-0.82,0.4
0.97,-0.85,0.38
0.95,-0.88,0.35
0.92,-0.92,0.32
0.91,-0.96,0.28
0.91,-1,0.26
0.91,-1.05,0.25
0.92,-1.12,0.25
0.95,-1.19,0.26
0.96,-1.27,0.3
0.97,-1.35,0.34
0.96,-1.41,0.34
0.96,-1.48,0.32
0.99,-1.54,0.32
1.06,-1.62,0.35
1.13,-1.73,0.4
1.16,-1.84,0.47
1.16,-1.95,0.52
1.16,-2.04,0.55
1.16,-2.14,0.58
1.2,-2.25,0.61
1.24,-2.32,0.64
1.27,-2.39,0.66
1.27,-2.47,0.66
1.27,-2.53,0.65
1.27,-2.58,0.64
1.24,-2.59,0.63
1.21,-2.58,0.62
1.18,-2.58,0.58
1.15,-2.54,0.54
1.13,-2.46,0.5
1.13,-2.34,0.49
1.15,-2.22,0.53
1.16,-2.13,0.51
1.15,-2.08,0.46
1.13,-2.02,0.42
1.09,-1.94,0.4
1.05,-1.86,0.39
1,-1.76,0.37
0.95,-1.65,0.34
0.89,-1.55,0.29
0.83,-1.45,0.25
0.78,-1.37,0.23
0.74,-1.31,0.2
0.73,-1.23,0.19
0.71,-1.09,0.2
0.68,-0.94,0.2
0.65,-0.86,0.19
0.58,-0.79,0.18
0.5,-0.76,0.11
0.49,-0.76,0.08
0.5,-0.72,0.1
0.47,-0.68,-0.03
0.41,-0.46,-0.1
0.23,-0.75,-0.03
0.18,-0.53,0.02
0.19,-0.37,-0.13
0.21,-0.16,-0.07
0.06,-0.34,-0.08
-0.09,-0.44,-0.14
-0.01,-0.1,-0.05
-0.06,0,-0.08
-0.11,0.02,-0.08
-0.18,0.11,-0.06
-0.28,0.21,-0.08
-0.35,0.27,-0.1
-0.4,0.34,-0.06
-0.42,0.4,-0.04
-0.46,0.41,-0.04
-0.52,0.43,-0.04
-0.52,0.47,-0.05
-0.51,0.5,-0.07
-0.53,0.58,-0.07
-0.55,0.61,-0.07
-0.57,0.62,-0.09
-0.57,0.7,-0.09
-0.58,0.75,-0.07
-0.56,0.78,-0.09
-0.53,0.84,-0.09
-0.51,0.88,-0.1
-0.5,0.9,-0.11
-0.48,0.91,-0.13
-0.48,0.9,-0.14
-0.46,0.91,-0.12
-0.42,0.94,-0.11
-0.4,0.94,-0.1
-0.36,0.96,-0.09
-0.33,0.97,-0.11
-0.31,0.92,-0.12
-0.28,0.9,-0.11
-0.26,0.91,-0.08
-0.23,0.9,-0.05
-0.21,0.92,-0.02
-0.18,0.93,0
-0.16,0.93,0
-0.13,0.96,0.01
-0.1,0.97,0.03
-0.09,0.95,0.05
-0.07,0.95,0.07
-0.06,0.95,0.09
-0.05,0.95,0.11
-0.03,0.97,0.12
-0.02,0.98,0.13
-0.01,0.98,0.14
0,0.98,0.14
0.04,0.99,0.14
0.05,0.99,0.15
0.06,0.97,0.14
0.06,0.96,0.14
0.06,0.97,0.14
0.07,0.97,0.16
0.08,0.96,0.16
0.08,0.95,0.15
0.07,0.95,0.15
0.06,0.94,0.13
0.05,0.93,0.12
0.04,0.93,0.11
0.02,0.95,0.11
0.01,0.95,0.11
-0.02,0.96,0.11
-0.05,0.97,0.1
-0.07,0.97,0.09
-0.08,0.97,0.08
-0.08,0.97,0.07
-0.07,0.96,0.06
-0.08,0.95,0.07
-0.07,0.96,0.09
-0.07,0.96,0.1
-0.09,0.95,0.11
-0.1,0.93,0.11
-0.12,0.93,0.09
-0.12,0.91,0.07
-0.13,0.9,0.05
-0.14,0.89,0.04
-0.13,0.89,0.04
-0.13,0.88,0.04
-0.15,0.86,0.03
-0.17,0.84,0.02
-0.2,0.82,0.01
-0.22,0.79,-0.01
-0.25,0.75,-0.02
-0.28,0.72,-0.02
-0.3,0.68,-0.01
-0.32,0.65,0
-0.32,0.63,0
-0.31,0.62,0
-0.29,0.61,0.01
-0.28,0.59,0.03
-0.28,0.55,0.03
-0.29,0.51,0.03
-0.31,0.49,0.02
-0.31,0.46,0.01
-0.28,0.44,0
-0.21,0.41,0
-0.18,0.38,0.02
-0.14,0.33,0.03
-0.08,0.27,0.04
-0.02,0.21,0.03
0.04,0.24,0.01
0.09,0.26,0.02
0.17,0.24,0.05
0.25,0.18,0.05
0.3,0.12,0.06
0.34,0.05,0.09
0.36,-0.02,0.11
0.37,-0.07,0.12
0.43,-0.07,0.13
0.52,-0.08,0.15
0.6,-0.1,0.2
0.69,-0.17,0.24
0.75,-0.24,0.27
0.8,-0.29,0.28
0.81,-0.39,0.25
0.8,-0.47,0.23
0.8,-0.49,0.22
0.79,-0.53,0.23
0.81,-0.59,0.28
0.86,-0.61,0.36
0.93,-0.6,0.4
0.96,-0.64,0.43
0.97,-0.7,0.47
1,-0.79,0.47
0.96,-0.94,0.4
0.9,-1.15,0.38
0.83,-1.25,0.4
0.82,-1.33,0.42
0.82,-1.43,0.43
0.84,-1.53,0.53
0.8,-1.63,0.59
0.85,-1.7,0.55
0.86,-1.65,0.55
0.85,-1.56,0.51
0.88,-1.7,0.52
0.79,-1.87,0.53
0.62,-1.77,0.54
0.56,-1.9,0.6
0.65,-2.19,0.53
0.72,-2.33,0.44
0.69,-2.46,0.48
0.62,-2.72,0.51
0.65,-2.82,0.48
0.69,-2.66,0.49
0.65,-2.54,0.5
0.6,-2.55,0.53
0.57,-2.57,0.53
0.6,-2.51,0.51
0.66,-2.4,0.49
0.7,-2.3,0.43
0.75,-2.17,0.39
0.83,-1.88,0.4
0.93,-1.79,0.37
0.94,-1.72,0.38
0.96,-1.64,0.39
0.99,-1.52,0.39
1,-1.42,0.4
0.98,-1.34,0.42
0.97,-1.25,0.42
1,-1.16,0.42
0.99,-1.08,0.43
0.96,-1.01,0.46
0.94,-0.95,0.47
0.93,-0.9,0.46
0.93,-0.85,0.45
0.93,-0.8,0.44
0.92,-0.77,0.43
0.91,-0.75,0.42
0.9,-0.73,0.39
0.88,-0.73,0.37
0.86,-0.74,0.33
0.84,-0.77,0.31
0.82,-0.8,0.29
0.82,-0.83,0.26
0.81,-0.88,0.24
0.81,-0.95,0.22
0.81,-1.03,0.19
0.83,-1.12,0.19
0.87,-1.32,0.19
0.83,-1.4,0.19
0.78,-1.47,0.17
0.76,-1.54,0.15
0.77,-1.61,0.17
0.82,-1.69,0.24
0.89,-1.78,0.33
0.98,-1.87,0.4
1.04,-1.96,0.41
1.06,-2.04,0.42
1.07,-2.1,0.5
1.09,-2.18,0.6
1.18,-2.28,0.66
1.27,-2.37,0.68
1.29,-2.45,0.72
1.31,-2.56,0.76
1.36,-2.65,0.79
1.41,-2.71,0.76
1.41,-2.77,0.69
1.38,-2.82,0.62
1.38,-2.84,0.6
1.41,-2.83,0.59
1.42,-2.78,0.55
1.41,-2.71,0.53
1.37,-2.65,0.51
1.33,-2.56,0.36
1.27,-2.27,0.28
1.24,-2.12,0.23
1.2,-1.99,0.23
1.16,-1.88,0.22
1.11,-1.78,0.18
1.05,-1.67,0.15
0.96,-1.54,0.14
0.87,-1.41,0.16
0.82,-1.3,0.17
0.76,-1.19,0.17
0.7,-1.07,0.15
0.66,-0.95,0.12
0.63,-0.88,0.11
0.6,-0.81,0.09
0.55,-0.77,0.07
0.56,-0.71,0.12
0.4,-0.79,0.07
0.29,-0.71,-0.01
0.35,-0.48,-0.03
0.07,-0.83,-0.14
0.24,-0.69,-0.11
0.43,-0.52,-0.14
0.12,-0.08,-0.06
0.07,-0.02,0.12
0.15,-0.34,0.15
0.07,-0.12,-0.17
-0.05,-0.22,-0.06
-0.17,-0.1,-0.08
-0.22,-0.03,-0.05
-0.19,0.12,-0.05
-0.26,0.19,-0.12
-0.34,0.26,-0.12
-0.38,0.31,-0.12
-0.4,0.35,-0.12
-0.44,0.4,-0.11
-0.48,0.46,-0.1
-0.51,0.5,-0.09
-0.53,0.53,-0.1
-0.52,0.62,-0.08
-0.52,0.69,-0.05
-0.53,0.72,-0.05
-0.54,0.76,-0.06
-0.56,0.8,-0.07
-0.55,0.82,-0.09
-0.52,0.86,-0.07
-0.5,0.86,-0.06
-0.48,0.86,-0.05
-0.44,0.88,-0.02
-0.41,0.88,-0.01
-0.38,0.88,0.01
-0.33,0.91,0.02
-0.31,0.9,0.02
-0.25,0.92,0.03
-0.2,0.91,0.02
-0.15,0.93,0.01
-0.12,0.93,0.04
-0.1,0.93,0.08
-0.08,0.93,0.09
-0.06,0.94,0.09
-0.05,0.96,0.09
-0.03,1,0.1
-0.01,1.02,0.1
0,1.02,0.09
0.01,1.02,0.08
0.04,1.04,0.07
0.06,1.03,0.04
0.08,1.01,0.03
0.11,1,0.03
0.12,1,0.03
0.11,1,0.04
0.11,1.01,0.05
0.12,0.99,0.04
0.12,0.99,0.04
0.13,1,0.05
0.13,0.98,0.04
0.14,0.99,0.05
0.15,1,0.06
0.15,0.97,0.08
0.12,0.95,0.11
0.12,0.94,0.13
0.12,0.94,0.15
0.13,0.94,0.16
0.15,0.95,0.17
0.15,0.95,0.17
0.14,0.95,0.18
0.12,0.96,0.18
0.13,0.98,0.17
0.11,0.99,0.16
0.08,0.97,0.17
0.07,0.97,0.19
0.05,0.96,0.19
0.04,0.96,0.18
0.04,0.96,0.18
0.04,0.96,0.17
0.03,0.97,0.15
0.03,0.98,0.13
0,0.96,0.12
-0.03,0.93,0.11
-0.04,0.93,0.1
-0.04,0.92,0.09
-0.05,0.92,0.09
-0.06,0.92,0.1
-0.07,0.92,0.1
-0.09,0.91,0.08
-0.11,0.88,0.07
-0.15,0.86,0.04
-0.18,0.84,0.02
-0.19,0.85,0.01
-0.18,0.85,0.02
-0.19,0.84,0.03
-0.21,0.83,0.03
-0.22,0.81,0.03
-0.23,0.78,0.02
-0.24,0.75,0.01
-0.24,0.72,0
-0.24,0.7,-0.01
-0.25,0.67,-0.02
-0.25,0.63,-0.04
-0.25,0.59,-0.04
-0.28,0.55,-0.05
-0.3,0.52,-0.04
-0.27,0.5,-0.02
-0.23,0.46,-0.01
-0.22,0.44,0.02
-0.21,0.41,0.03
-0.21,0.36,0.04
-0.21,0.3,0.03
-0.19,0.24,0.02
-0.18,0.18,0
-0.16,0.14,0
-0.1,0.08,0.04
-0.02,0.05,0.06
0.01,0.01,0.06
0.04,-0.06,0.04
0.07,-0.15,0.01
0.07,-0.22,-0.02
0.11,-0.27,-0.02
0.2,-0.28,-0.02
0.3,-0.27,-0.01
0.37,-0.32,0
0.43,-0.38,-0.03
0.49,-0.44,-0.06
0.51,-0.55,-0.09
0.52,-0.68,-0.1
0.56,-0.8,-0.09
0.64,-0.89,-0.05
0.75,-0.96,0.04
0.92,-1.03,0.12
1.1,-1.08,0.15
1.08,-1.21,0.13
0.98,-1.39,0.12
0.92,-1.51,0.13
0.91,-1.76,0.14
0.91,-1.97,0.15
1.02,-1.98,0.17
1.03,-2.18,0.32
1.02,-2.33,0.32
1.29,-2.11,0.33
1.29,-2.37,0.41
1.24,-2.7,0.41
1.45,-2.76,0.34
1.33,-2.84,0.34
1.2,-2.84,0.41
1.15,-2.92,0.46
0.93,-3.01,0.46
0.91,-3.01,0.45
0.94,-2.95,0.45
0.9,-2.91,0.43
0.85,-2.9,0.38
0.88,-2.8,0.32
0.91,-2.66,0.31
0.97,-2.57,0.31
1.03,-2.47,0.29
1.04,-2.39,0.26
1.08,-2.29,0.24
1.13,-2.14,0.24
1.14,-2,0.25
1.12,-1.9,0.27
1.12,-1.79,0.25
1.14,-1.66,0.25
1.14,-1.53,0.28
1.13,-1.42,0.3
1.1,-1.22,0.38
1.1,-1.14,0.39
1.11,-1.08,0.4
1.12,-1.01,0.4
1.13,-0.95,0.37
1.14,-0.87,0.36
1.12,-0.81,0.36
1.1,-0.77,0.36
1.08,-0.73,0.35
1.07,-0.7,0.32
1.05,-0.69,0.29
1.01,-0.7,0.26
0.98,-0.72,0.23
0.95,-0.74,0.2
0.92,-0.78,0.18
0.89,-0.83,0.15
0.86,-0.89,0.14
0.84,-0.96,0.13
0.83,-1.05,0.1
0.83,-1.14,0.08
0.82,-1.23,0.07
0.83,-1.33,0.06
0.83,-1.43,0.06
0.82,-1.54,0.06
0.83,-1.64,0.07
0.85,-1.75,0.09
0.89,-1.86,0.16
1.04,-2.07,0.21
1.12,-2.16,0.26
1.19,-2.26,0.32
1.26,-2.35,0.37
1.31,-2.41,0.41
1.38,-2.46,0.48
1.46,-2.54,0.53
1.54,-2.63,0.58
1.61,-2.71,0.6
1.64,-2.81,0.58
1.63,-2.88,0.51
1.58,-2.88,0.43
1.54,-2.84,0.37
1.49,-2.78,0.37
1.44,-2.69,0.41
1.41,-2.59,0.44
1.38,-2.53,0.43
1.39,-2.45,0.4
1.4,-2.34,0.36
1.41,-2.23,0.32
1.4,-2.15,0.28
1.34,-2.09,0.21
1.25,-2.01,0.13
1.17,-1.9,0.08
1.09,-1.8,0.08
0.98,-1.7,0.13
0.75,-1.45,0.15
0.68,-1.31,0.13
0.64,-1.2,0.11
0.65,-1.12,0.1
0.66,-1.03,0.09
0.66,-0.95,0.06
0.6,-0.88,0.06
0.5,-0.81,0.05
0.46,-0.76,0.03
0.45,-0.69,0.02
0.43,-0.61,0.02
0.33,-0.67,0.01
0.17,-0.83,-0.03
0.18,-0.66,-0.04
0.22,-0.43,0.02
0.16,-0.36,0.07
0.09,-0.29,-0.01
0.22,0.5,0.16
0.18,0.41,0.23
0.04,-0.07,-0.08
0,-0.03,-0.2
-0.16,-0.31,-0.11
-0.28,-0.1,-0.05
-0.32,0.08,-0.05
-0.31,0.14,-0.07
-0.37,0.19,-0.15
-0.45,0.34,-0.15
-0.48,0.41,-0.16
-0.51,0.46,-0.15
-0.52,0.49,-0.15
-0.54,0.52,-0.16
-0.56,0.58,-0.16
-0.57,0.64,-0.16
-0.59,0.69,-0.16
-0.63,0.72,-0.15
-0.64,0.75,-0.13
-0.64,0.77,-0.13
-0.63,0.81,-0.13
-0.63,0.87,-0.11
-0.64,0.9,-0.11
-0.64,0.94,-0.11
-0.62,0.97,-0.12
-0.61,0.97,-0.11
-0.6,0.96,-0.11
-0.57,0.96,-0.1
-0.52,0.96,-0.09
-0.48,0.97,-0.08
-0.43,0.97,-0.07
-0.39,0.98,-0.06
-0.35,0.98,-0.06
-0.31,0.98,-0.04
-0.28,0.98,-0.01
-0.22,0.95,0.01
-0.19,0.95,0.03
-0.17,0.96,0.05
-0.16,0.96,0.05
-0.14,0.95,0.05
-0.12,0.92,0.06
-0.1,0.9,0.08
-0.08,0.91,0.1
-0.04,0.91,0.12
-0.03,0.9,0.13
-0.02,0.89,0.13
-0.02,0.88,0.11
-0.04,0.87,0.1
-0.05,0.88,0.09
-0.04,0.89,0.09
-0.05,0.89,0.11
-0.06,0.89,0.13
-0.06,0.89,0.14
-0.05,0.89,0.13
-0.03,0.89,0.14
-0.01,0.89,0.15
0,0.88,0.14
0,0.87,0.13
0.01,0.87,0.14
0.02,0.88,0.15
0.03,0.88,0.16
0.03,0.87,0.18
0.04,0.87,0.18
0.04,0.85,0.17
0.03,0.83,0.16
0.05,0.81,0.18
0.07,0.8,0.21
0.08,0.79,0.22
0.09,0.76,0.22
0.1,0.73,0.22
0.09,0.68,0.22
0.06,0.64,0.21
0.04,0.6,0.2
0.02,0.56,0.18
0.02,0.52,0.18
0.02,0.49,0.19
0.02,0.45,0.2
0.04,0.43,0.19
0.06,0.47,0.17
0.04,0.43,0.15
0.05,0.36,0.14
0.11,0.31,0.14
0.12,0.31,0.16
0.08,0.31,0.16
0.11,0.25,0.14
0.13,0.25,0.12
0.13,0.26,0.1
0.16,0.26,0.09
0.2,0.2,0.1
0.23,0.15,0.13
0.25,0.1,0.13
0.25,0.05,0.1
0.27,0.02,0.07
0.31,0.01,0.05
0.36,-0.02,0.05
0.41,-0.07,0.07
0.48,-0.11,0.12
0.54,-0.17,0.16
0.58,-0.23,0.19
0.59,-0.27,0.21
0.63,-0.31,0.15
0.63,-0.35,0.09
0.63,-0.39,0.08
0.71,-0.44,0.1
0.8,-0.51,0.11
0.89,-0.58,0.13
0.94,-0.64,0.19
0.97,-0.88,0.31
1.09,-1.02,0.4
1.23,-0.91,0.39
1.25,-0.95,0.33
1.23,-1.06,0.27
1.25,-1.13,0.18
1.26,-1.37,0.08
1.41,-1.54,0.23
1.43,-1.61,0.39
1.48,-1.49,0.46
1.44,-1.54,0.54
1.44,-1.73,0.53
1.45,-1.75,0.51
1.37,-1.63,0.33
1.2,-1.78,0.19
1.07,-2.15,0.15
1.22,-2.23,0.17
1.36,-2.22,0.29
1.35,-2.21,0.28
1.35,-2.06,0.3
1.28,-2.02,0.29
1.21,-2.01,0.21
1.16,-2.01,0.13
1.12,-2.02,0.15
1.1,-1.99,0.2
1.12,-1.96,0.21
1.14,-1.93,0.19
1.16,-1.91,0.16
1.17,-1.77,0.16
1.17,-1.62,0.12
1.19,-1.49,0.13
1.15,-1.26,0.21
1.04,-1.13,0.2
0.96,-0.97,0.23
0.94,-0.93,0.25
0.95,-0.93,0.24
0.93,-0.95,0.22
0.92,-0.96,0.24
0.91,-0.96,0.27
0.89,-0.99,0.28
0.88,-1.01,0.26
0.85,-1.02,0.25
0.8,-1.01,0.26
0.75,-0.99,0.25
0.72,-0.98,0.24
0.68,-0.97,0.22
0.66,-0.95,0.18
0.64,-0.92,0.14
0.62,-0.91,0.1
0.61,-0.89,0.06
0.61,-0.87,0.03
0.61,-0.87,0
0.61,-0.88,-0.02
0.61,-0.89,-0.05
0.6,-0.92,-0.1
0.56,-0.95,-0.15
0.52,-1.01,-0.19
0.48,-1.08,-0.23
0.47,-1.15,-0.29
0.38,-1.3,-0.35
0.35,-1.35,-0.39
0.32,-1.37,-0.4
0.26,-1.38,-0.4
0.23,-1.39,-0.4
0.22,-1.39,-0.4
0.19,-1.38,-0.4
0.14,-1.36,-0.39
0.14,-1.33,-0.37
0.14,-1.35,-0.36
0.11,-1.36,-0.37
0.1,-1.37,-0.39
0.09,-1.35,-0.39
0.08,-1.31,-0.36
0.08,-1.26,-0.33
0.09,-1.2,-0.29
0.13,-1.16,-0.28
0.14,-1.15,-0.27
0.1,-1.15,-0.26
0.06,-1.13,-0.25
0.04,-1.08,-0.24
0.06,-1.03,-0.22
0.11,-1.02,-0.2
0.12,-1.04,-0.19
0.13,-1.04,-0.2
0.13,-1.05,-0.16
0.13,-1.16,-0.19
0.12,-1.17,-0.22
0.11,-1.16,-0.22
0.11,-1.12,-0.22
0.12,-1.07,-0.19
0.14,-1.01,-0.15
0.18,-0.93,-0.11
0.21,-0.86,-0.07
0.24,-0.82,-0.04
0.27,-0.81,-0.01
0.28,-0.8,0.02
0.28,-0.82,0.02
0.27,-0.85,0.03
0.27,-0.9,0.02
0.27,-0.98,0.01
0.28,-1.05,0.02
0.32,-1.12,0
0.34,-1.2,0.01
0.34,-1.25,0.04
0.33,-1.24,0.07
0.32,-1.17,0.12
0.31,-1.17,0.16
0.27,-1.16,0.22
0.24,-1.06,0.27
0.26,-1,0.28
0.24,-0.93,0.32
0.27,-0.86,0.24
0.25,-0.91,0.32
0.34,-0.97,0.64
0.59,-0.85,1.24
0.76,-0.54,1.62
0.77,-0.48,1.58
0.6,-0.76,1.23
0.47,-0.87,0.66
0.43,-0.73,0.3
0.43,-0.57,0.1
0.54,-0.55,0.01
0.69,-0.62,-0.02
0.77,-0.68,0.01
0.72,-0.69,0.08
0.6,-0.7,0.13
0.55,-0.74,0.14
0.53,-0.75,0.14
0.48,-0.73,0.18
0.43,-0.71,0.2
0.41,-0.72,0.2
0.42,-0.72,0.23
0.41,-0.71,0.3
0.36,-0.69,0.35
0.34,-0.68,0.38
0.37,-0.68,0.38
0.4,-0.7,0.36
0.55,-0.78,0.34
0.67,-0.89,0.36
0.75,-1,0.37
0.73,-1.04,0.42
0.68,-1.02,0.43
0.59,-1.03,0.43
0.57,-1.04,0.47
0.64,-1.02,0.51
0.63,-1.01,0.53
0.53,-0.98,0.58
0.49,-0.97,0.6
0.48,-0.93,0.54
0.5,-0.85,0.49
0.5,-0.83,0.47
0.49,-0.85,0.48
0.53,-0.76,0.5
0.5,-0.7,0.54
0.43,-0.69,0.58
0.41,-0.7,0.59
0.47,-0.68,0.56
0.56,-0.63,0.51
0.58,-0.66,0.48
0.54,-0.69,0.49
0.52,-0.65,0.51
0.58,-0.61,0.52
0.59,-0.6,0.5
0.56,-0.52,0.45
0.54,-0.5,0.48
0.61,-0.48,0.53
0.63,-0.49,0.57
0.63,-0.48,0.59
0.63,-0.45,0.6
0.63,-0.41,0.61
0.59,-0.37,0.61
0.58,-0.32,0.6
0.6,-0.28,0.59
0.61,-0.27,0.62
0.63,-0.25,0.67
0.63,-0.26,0.73
0.62,-0.26,0.76
0.6,-0.24,0.78
0.59,-0.22,0.78
0.6,-0.22,0.77
0.59,-0.21,0.78
0.55,-0.21,0.77
0.53,-0.21,0.76
0.52,-0.17,0.77
0.47,-0.15,0.79
