Acc_x,Acc_y,Acc_z
-0.11,0.43,0.89
-0.11,0.43,0.89
-0.11,0.43,0.89
-0.11,0.43,0.89
-0.11,0.43,0.89
-0.11,0.43,0.89
-0.11,0.43,0.89
-0.11,0.43,0.89
-0.11,0.43,0.89
-0.11,0.43,0.89
-0.11,0.43,0.89
-0.11,0.43,0.89
-0.11,0.43,0.89
-0.11,0.43,0.89
-0.11,0.43,0.89
-0.11,0.43,0.89
-0.11,0.43,0.89
-0.11,0.43,0.89
-0.11,0.43,0.89
-0.11,0.43,0.89
-0.11,0.43,0.89
-0.11,0.43,0.89
-0.11,0.43,0.89
-0.11,0.43,0.89
-0.11,0.43,0.89
-0.11,0.43,0.89
-0.11,0.43,0.89
-0.11,0.43,0.89
-0.11,0.43,0.89
-0.11,0.43,0.89
-0.11,0.43,0.89
-0.11,0.43,0.89
-0.11,0.43,0.89
-0.11,0.43,0.89
-0.11,0.43,0.89
-0.11,0.43,0.89
-0.11,0.43,0.89
-0.11,0.43,0.89
-0.11,0.43,0.89
-0.11,0.43,0.89
-0.11,0.43,0.89
-0.11,0.43,0.88
-0.11,0.43,0.89
-0.11,0.43,0.89
-0.11,0.43,0.89
-0.12,0.43,0.89
-0.12,0.43,0.89
-0.11,0.43,0.89
-0.11,0.43,0.89
-0.11,0.43,0.89
-0.11,0.43,0.89
-0.11,0.43,0.89
-0.11,0.43,0.89
-0.11,0.43,0.89
-0.11,0.43,0.89
-0.11,0.43,0.89
-0.11,0.43,0.89
-0.12,0.43,0.89
-0.12,0.43,0.89
-0.12,0.43,0.89
-0.11,0.43,0.89
-0.11,0.43,0.89
-0.11,0.43,0.89
-0.11,0.43,0.89
-0.11,0.43,0.89
-0.11,0.43,0.89
-0.11,0.43,0.89
-0.11,0.43,0.89
-0.12,0.43,0.89
-0.11,0.43,0.89
-0.11,0.43,0.89
-0.12,0.43,0.89
-0.12,0.43,0.89
-0.12,0.43,0.89
-0.12,0.43,0.89
-0.11,0.43,0.89
-0.11,0.43,0.89
-0.11,0.43,0.89
-0.11,0.43,0.89
-0.11,0.43,0.89
-0.11,0.43,0.88
-0.11,0.43,0.89
-0.11,0.43,0.89
-0.11,0.43,0.89
-0.11,0.43,0.89
-0.11,0.43,0.89
-0.11,0.43,0.89
-0.11,0.43,0.89
-0.11,0.43,0.89
-0.11,0.43,0.88
-0.12,0.42,0.89
-0.11,0.43,0.89
-0.11,0.43,0.89
-0.11,0.43,0.9
-0.11,0.43,0.9
-0.11,0.42,0.9
-0.12,0.42,0.9
-0.1,0.41,0.92
-0.07,0.41,0.9
-0.07,0.41,0.89
-0.1,0.39,0.9
-0.1,0.38,0.91
-0.09,0.37,0.91
-0.08,0.36,0.89
-0.09,0.33,0.9
-0.08,0.29,0.91
-0.07,0.25,0.91
-0.07,0.21,0.89
-0.05,0.18,0.88
-0.02,0.15,0.85
0,0.12,0.81
0.05,0.14,0.78
0.11,0.24,0.76
0.18,0.37,0.77
0.15,0.39,0.83
0.06,0.34,0.89
0.04,0.32,0.95
0.08,0.36,0.98
0.11,0.35,0.99
0.16,0.35,0.98
0.21,0.41,0.99
0.27,0.43,0.99
0.23,0.43,1
0.16,0.42,1.03
0.18,0.42,1.02
0.18,0.42,1.01
0.2,0.44,1.02
0.21,0.47,1.04
0.2,0.47,1.04
0.24,0.49,1.05
0.28,0.52,1.1
0.31,0.54,1.15
0.3,0.56,1.18
0.27,0.61,1.26
0.3,0.66,1.36
0.35,0.7,1.43
0.38,0.73,1.48
0.39,0.78,1.53
0.38,0.84,1.58
0.44,0.85,1.6
0.53,0.84,1.61
0.56,0.82,1.66
0.62,0.78,1.72
0.74,0.72,1.66
0.85,0.66,1.62
0.89,0.62,1.64
0.94,0.57,1.63
1.1,0.52,1.51
1.17,0.47,1.41
1.17,0.46,1.31
1.31,0.46,1.22
1.33,0.46,1.11
1.32,0.5,1.01
1.34,0.5,0.88
1.37,0.44,0.78
1.42,0.42,0.7
1.46,0.38,0.6
1.52,0.39,0.48
1.5,0.37,0.4
1.39,0.32,0.33
1.27,0.25,0.2
1.19,0.16,0.04
1.1,0.19,0
1,0.17,0.02
0.93,0.09,-0.03
0.85,0.09,-0.1
0.73,0.01,-0.1
0.69,-0.04,-0.09
0.73,-0.18,-0.11
0.65,-0.13,-0.13
0.54,0,-0.13
0.43,-0.03,-0.11
0.37,-0.01,-0.09
0.34,0,-0.07
0.2,0.1,0.02
0.13,-0.08,0.05
0.16,0.43,0.46
0.28,0.4,0.68
0.22,0.39,0.32
-0.12,0.17,0.11
-0.24,0.28,-0.03
-0.32,0.2,-0.14
-0.4,0.24,-0.01
-0.5,0.34,0.01
-0.58,0.39,0.03
-0.61,0.48,0.07
-0.61,0.54,0.06
-0.6,0.56,0.03
-0.58,0.59,0.03
-0.59,0.62,0.02
-0.63,0.67,0.02
-0.66,0.71,0.05
-0.66,0.76,0.07
-0.66,0.81,0.07
-0.63,0.83,0.06
-0.58,0.85,0.05
-0.51,0.89,0.04
-0.45,0.93,0.02
-0.39,0.94,0.01
-0.36,0.97,0
-0.33,0.99,0.01
-0.32,0.99,0.04
-0.25,1.01,0.06
-0.2,1,0.06
-0.15,1.01,0.06
-0.12,1.02,0.05
-0.08,1.03,0.04
-0.04,1.02,0.03
-0.02,1.01,0.04
0,0.99,0.06
0.01,0.99,0.08
0.02,0.99,0.1
0.03,1,0.1
0.06,1,0.09
0.08,1,0.08
0.09,1.01,0.07
0.1,1,0.06
0.12,1,0.06
0.13,1.01,0.07
0.12,1.02,0.09
0.11,1.02,0.1
0.11,1.03,0.1
0.1,1.04,0.11
0.1,1.05,0.12
0.11,1.05,0.12
0.11,1.06,0.13
0.12,1.05,0.13
0.12,1.04,0.15
0.14,1.04,0.15
0.13,1,0.15
0.12,0.98,0.16
0.13,0.99,0.17
0.13,0.98,0.18
0.14,0.98,0.19
0.14,0.98,0.19
0.14,1,0.2
0.14,0.99,0.19
0.12,0.95,0.19
0.12,0.96,0.19
0.12,0.93,0.18
0.1,0.91,0.17
0.1,0.92,0.18
0.1,0.91,0.18
0.1,0.89,0.18
0.1,0.87,0.19
0.09,0.86,0.18
0.08,0.84,0.19
0.08,0.84,0.19
0.08,0.84,0.18
0.07,0.83,0.18
0.06,0.82,0.18
0.04,0.82,0.18
0.03,0.82,0.19
0.03,0.81,0.2
0.05,0.81,0.2
0.06,0.81,0.2
0.05,0.81,0.2
0.06,0.81,0.2
0.06,0.81,0.21
0.06,0.8,0.22
0.06,0.81,0.23
0.07,0.82,0.24
0.07,0.82,0.26
0.07,0.84,0.28
0.07,0.89,0.3
0.07,0.9,0.3
0.08,0.92,0.31
0.1,0.95,0.32
0.12,0.97,0.33
0.14,1,0.35
0.15,1.03,0.37
0.16,1.05,0.4
0.18,1.07,0.42
0.19,1.08,0.43
0.2,1.08,0.43
0.22,1.07,0.43
0.23,1.05,0.43
0.24,1.03,0.42
0.24,1.02,0.4
0.25,1.01,0.37
0.23,0.97,0.36
0.22,0.96,0.35
0.22,0.96,0.33
0.21,0.96,0.32
0.2,0.96,0.3
0.19,0.96,0.29
0.18,0.97,0.28
0.17,0.97,0.28
0.16,0.96,0.28
0.15,0.95,0.27
0.15,0.95,0.27
0.15,0.95,0.28
0.16,0.95,0.28
0.17,0.94,0.28
0.17,0.94,0.28
0.17,0.94,0.29
0.17,0.93,0.29
0.17,0.91,0.3
0.16,0.91,0.3
0.17,0.9,0.3
0.17,0.9,0.29
0.18,0.9,0.29
0.17,0.9,0.28
0.17,0.89,0.28
0.17,0.88,0.28
0.16,0.88,0.28
0.15,0.87,0.27
0.14,0.86,0.26
0.13,0.86,0.26
0.11,0.86,0.25
0.1,0.86,0.25
0.08,0.85,0.26
0.08,0.84,0.26
0.07,0.84,0.25
0.06,0.85,0.25
0.05,0.85,0.25
0.04,0.85,0.26
0.03,0.85,0.27
0.01,0.84,0.27
0,0.83,0.27
-0.01,0.82,0.28
-0.01,0.82,0.29
-0.02,0.82,0.29
-0.03,0.82,0.29
-0.02,0.82,0.29
-0.03,0.81,0.29
-0.03,0.8,0.3
-0.04,0.78,0.3
-0.04,0.75,0.3
-0.04,0.72,0.3
-0.04,0.7,0.3
-0.04,0.69,0.3
-0.04,0.69,0.3
-0.01,0.69,0.31
0,0.67,0.31
0,0.64,0.31
0,0.61,0.32
0,0.6,0.33
0.01,0.62,0.33
0.04,0.64,0.34
0.07,0.64,0.35
0.1,0.63,0.36
0.11,0.58,0.36
0.1,0.54,0.35
0.08,0.51,0.35
0.07,0.5,0.33
0.12,0.54,0.34
0.17,0.57,0.36
0.2,0.57,0.36
0.21,0.55,0.34
0.21,0.52,0.3
0.19,0.5,0.26
0.2,0.5,0.23
0.24,0.51,0.2
0.3,0.52,0.19
0.34,0.57,0.19
0.37,0.58,0.21
0.39,0.55,0.21
0.41,0.48,0.21
0.42,0.45,0.18
0.45,0.42,0.13
0.48,0.45,0.1
0.52,0.48,0.1
0.61,0.46,0.1
0.7,0.42,0.11
0.77,0.38,0.14
0.83,0.32,0.18
0.86,0.27,0.16
0.9,0.26,0.13
0.96,0.28,0.12
1.02,0.33,0.1
1.06,0.38,0.07
1.09,0.38,0.08
1.09,0.35,0.12
1.07,0.29,0.13
1.09,0.27,0.13
1.14,0.28,0.11
1.18,0.23,0.08
1.23,0.28,0.08
1.26,0.35,0.07
1.29,0.33,0.07
1.31,0.29,0.07
1.32,0.24,0.06
1.32,0.21,-0.01
1.32,0.18,-0.05
1.35,0.15,-0.03
1.36,0.1,-0.02
1.39,0.12,0
1.4,0.1,-0.01
1.37,0.01,-0.05
1.34,-0.02,-0.09
1.33,0.02,-0.12
1.32,0.01,-0.13
1.31,-0.08,-0.15
1.31,-0.13,-0.15
1.3,-0.15,-0.16
1.3,-0.22,-0.13
1.3,-0.27,-0.08
1.33,-0.29,-0.03
1.35,-0.3,-0.01
1.33,-0.3,-0.01
1.29,-0.31,-0.03
1.24,-0.36,-0.08
1.2,-0.36,-0.12
1.16,-0.38,-0.15
1.13,-0.49,-0.15
1.14,-0.52,-0.08
1.17,-0.5,-0.03
1.16,-0.53,0.02
1.14,-0.53,0.05
1.15,-0.53,-0.01
1.07,-0.54,-0.07
1.11,-0.59,-0.09
1.17,-0.6,-0.07
1.22,-0.63,-0.06
1.24,-0.66,-0.07
1.22,-0.67,-0.03
1.23,-0.7,0.01
1.22,-0.74,0.07
1.14,-0.75,0.14
1.04,-0.74,0.1
0.96,-0.74,0.02
0.95,-0.73,-0.02
0.92,-0.72,-0.1
0.87,-0.69,-0.11
0.83,-0.71,-0.09
0.81,-0.75,-0.11
0.79,-0.75,-0.08
0.77,-0.74,-0.07
0.76,-0.74,-0.06
0.75,-0.75,-0.05
0.75,-0.75,-0.04
0.74,-0.75,-0.04
0.74,-0.75,-0.06
0.74,-0.75,-0.07
0.73,-0.75,-0.09
0.74,-0.75,-0.09
0.67,-0.76,-0.1
0.68,-0.76,-0.1
0.68,-0.77,-0.09
0.68,-0.77,-0.07
0.68,-0.77,-0.06
0.68,-0.77,-0.05
0.69,-0.78,-0.04
0.69,-0.78,-0.03
0.69,-0.78,-0.03
0.69,-0.79,-0.02
0.69,-0.8,-0.02
0.68,-0.8,-0.02
0.68,-0.81,-0.01
0.67,-0.81,0
0.66,-0.82,0.02
0.65,-0.82,0.04
0.64,-0.82,0.06
0.64,-0.83,0.07
0.64,-0.83,0.08
0.63,-0.84,0.09
0.61,-0.85,0.09
0.6,-0.85,0.09
0.6,-0.86,0.09
0.59,-0.87,0.1
0.59,-0.88,0.11
0.61,-0.89,0.16
0.61,-0.91,0.17
0.62,-0.93,0.19
0.66,-1.01,0.24
0.7,-0.99,0.27
0.76,-0.93,0.24
0.79,-0.96,0.27
0.83,-1,0.33
0.89,-1,0.33
0.97,-0.98,0.33
1.06,-0.97,0.35
1.15,-0.93,0.33
1.23,-0.87,0.33
1.28,-0.84,0.34
1.34,-0.81,0.36
1.42,-0.77,0.38
1.46,-0.77,0.4
1.45,-0.8,0.4
1.47,-0.87,0.37
1.53,-0.89,0.32
1.59,-0.79,0.22
1.63,-0.8,0.15
1.69,-0.89,0.15
1.71,-0.91,0.17
1.64,-0.91,0.18
1.58,-0.89,0.19
1.61,-0.85,0.12
1.61,-0.84,0.04
1.59,-0.82,-0.03
1.62,-0.79,-0.08
1.64,-0.76,-0.1
1.64,-0.74,-0.13
1.66,-0.75,-0.14
1.65,-0.79,-0.19
1.62,-0.82,-0.27
1.63,-0.85,-0.29
1.64,-0.86,-0.27
1.62,-0.86,-0.26
1.56,-0.87,-0.28
1.48,-0.85,-0.31
1.42,-0.83,-0.31
1.36,-0.82,-0.32
1.29,-0.81,-0.32
1.22,-0.8,-0.32
1.13,-0.77,-0.31
1.04,-0.73,-0.29
0.96,-0.7,-0.27
0.88,-0.65,-0.29
0.8,-0.59,-0.32
0.71,-0.51,-0.32
0.66,-0.42,-0.3
0.62,-0.38,-0.26
0.56,-0.36,-0.24
0.43,-0.28,-0.25
0.35,-0.19,-0.26
0.29,-0.12,-0.26
0.25,-0.05,-0.2
0.22,0.03,-0.15
0.13,0.01,-0.14
-0.08,-0.09,-0.07
-0.11,0.01,-0.02
-0.06,0.15,-0.02
-0.13,0.13,-0.01
-0.16,0.17,-0.04
-0.23,0.22,-0.05
-0.32,0.28,-0.03
-0.34,0.34,-0.01
-0.35,0.38,0
-0.37,0.42,0.03
-0.41,0.46,0.06
-0.49,0.51,0.07
-0.53,0.59,0.09
-0.55,0.61,0.1
-0.56,0.62,0.09
-0.58,0.65,0.11
-0.58,0.7,0.12
-0.59,0.75,0.13
-0.6,0.79,0.16
-0.58,0.8,0.17
-0.51,0.82,0.16
-0.48,0.83,0.17
-0.44,0.86,0.19
-0.4,0.87,0.2
-0.34,0.89,0.22
-0.3,0.9,0.23
-0.26,0.9,0.24
-0.24,0.9,0.25
-0.23,0.91,0.25
-0.19,0.92,0.25
-0.15,0.93,0.25
-0.13,0.94,0.26
-0.1,0.95,0.27
-0.07,0.95,0.28
-0.05,0.95,0.29
-0.03,0.95,0.29
0,0.96,0.28
0.02,0.98,0.28
0.04,0.98,0.28
0.06,0.98,0.27
0.07,0.97,0.28
0.08,0.97,0.3
0.1,0.95,0.3
0.11,0.95,0.3
0.12,0.96,0.28
0.14,0.96,0.27
0.15,0.95,0.27
0.15,0.96,0.27
0.15,0.95,0.27
0.15,0.95,0.27
0.16,0.95,0.26
0.16,0.95,0.25
0.15,0.95,0.26
0.14,0.94,0.26
0.14,0.95,0.25
0.14,0.96,0.24
0.14,0.95,0.23
0.14,0.95,0.24
0.14,0.93,0.24
0.14,0.92,0.24
0.14,0.92,0.24
0.13,0.93,0.23
0.12,0.93,0.23
0.12,0.93,0.23
0.12,0.92,0.23
0.11,0.92,0.23
0.1,0.92,0.23
0.1,0.93,0.23
0.1,0.93,0.23
0.09,0.93,0.22
0.08,0.93,0.21
0.07,0.93,0.2
0.07,0.94,0.22
0.06,0.94,0.23
0.06,0.95,0.24
0.07,0.96,0.24
0.07,0.96,0.24
0.08,0.95,0.23
0.08,0.95,0.24
0.08,0.95,0.25
0.08,0.95,0.25
0.09,0.96,0.26
0.09,0.97,0.25
0.09,0.97,0.25
0.09,0.97,0.25
0.09,0.96,0.26
0.09,0.95,0.26
0.1,0.95,0.26
0.09,0.95,0.26
0.09,0.96,0.26
0.09,0.96,0.26
0.09,0.96,0.25
0.09,0.96,0.24
0.09,0.96,0.24
0.09,0.95,0.24
0.1,0.95,0.25
0.1,0.95,0.25
0.1,0.96,0.25
0.11,0.96,0.26
0.1,0.94,0.26
0.1,0.93,0.26
0.1,0.93,0.26
0.1,0.94,0.26
0.1,0.95,0.26
0.1,0.95,0.26
0.1,0.95,0.26
0.11,0.94,0.25
0.11,0.93,0.25
0.11,0.93,0.26
0.11,0.94,0.27
0.12,0.95,0.27
0.12,0.95,0.27
0.12,0.95,0.27
0.12,0.95,0.27
0.11,0.94,0.27
0.11,0.93,0.27
0.11,0.93,0.26
0.11,0.93,0.26
0.11,0.94,0.27
0.1,0.94,0.27
0.1,0.93,0.26
0.09,0.93,0.26
0.1,0.91,0.26
0.1,0.9,0.26
0.09,0.89,0.26
0.08,0.88,0.27
0.07,0.89,0.27
0.07,0.88,0.26
0.06,0.87,0.26
0.05,0.86,0.26
0.05,0.84,0.26
0.04,0.83,0.26
0.03,0.83,0.27
0.03,0.83,0.26
0.02,0.82,0.26
0.02,0.81,0.26
0.01,0.8,0.26
0,0.78,0.26
-0.01,0.75,0.26
-0.02,0.72,0.26
-0.03,0.69,0.25
-0.04,0.67,0.24
-0.05,0.65,0.23
-0.05,0.64,0.21
-0.06,0.61,0.2
-0.07,0.58,0.19
-0.06,0.57,0.19
-0.07,0.55,0.2
-0.07,0.52,0.2
-0.04,0.5,0.17
-0.03,0.5,0.11
0,0.48,0.09
0.02,0.46,0.08
0.05,0.45,0.09
0.11,0.46,0.1
0.16,0.48,0.12
0.22,0.5,0.13
0.27,0.49,0.14
0.3,0.47,0.13
0.32,0.45,0.12
0.37,0.44,0.1
0.39,0.45,0.09
0.43,0.49,0.09
0.51,0.52,0.11
0.58,0.51,0.13
0.65,0.5,0.15
0.68,0.47,0.17
0.67,0.44,0.15
0.67,0.45,0.11
0.7,0.5,0.08
0.76,0.52,0.08
0.83,0.5,0.07
0.89,0.47,0.07
0.91,0.46,0.07
0.91,0.45,0.07
0.9,0.44,0.06
0.9,0.47,0.05
0.99,0.51,0.06
1.03,0.49,0.05
1.06,0.47,0.01
1.06,0.43,-0.03
1.06,0.4,-0.06
1.05,0.36,-0.1
1.04,0.32,-0.11
1.05,0.28,-0.09
1.08,0.23,-0.08
1.11,0.18,-0.07
1.15,0.13,-0.08
1.15,0.04,-0.14
1.15,-0.02,-0.21
1.17,-0.09,-0.25
1.22,-0.17,-0.25
1.28,-0.23,-0.22
1.36,-0.29,-0.17
1.43,-0.37,-0.12
1.46,-0.4,-0.09
1.43,-0.38,-0.09
1.4,-0.43,-0.13
1.37,-0.46,-0.17
1.32,-0.47,-0.21
1.35,-0.5,-0.18
1.39,-0.53,-0.13
1.41,-0.52,-0.04
1.36,-0.54,0.09
1.25,-0.53,0.14
1.16,-0.53,0.16
1.12,-0.57,0.09
1.08,-0.73,-0.01
1.09,-0.66,0.01
1.11,-0.56,0.03
1.11,-0.67,0
1.15,-0.72,0.01
1.2,-0.89,-0.02
1.18,-0.82,0.02
1.12,-0.64,0.06
1.11,-0.75,0.05
1.05,-0.76,0.12
0.99,-0.72,0.14
0.96,-0.79,0.07
0.96,-0.82,0.06
1.01,-0.75,0.1
0.99,-0.72,0.13
1.02,-0.74,0.12
1.04,-0.76,0.15
0.97,-0.75,0.19
0.91,-0.7,0.18
0.89,-0.71,0.15
0.89,-0.75,0.11
0.85,-0.72,0.12
0.81,-0.78,0.15
0.85,-0.74,0.18
0.8,-0.72,0.19
0.78,-0.72,0.17
0.79,-0.73,0.15
0.8,-0.74,0.13
0.81,-0.75,0.11
0.8,-0.75,0.11
0.8,-0.76,0.12
0.81,-0.77,0.12
0.81,-0.78,0.14
0.82,-0.78,0.16
0.83,-0.78,0.18
0.82,-0.78,0.18
0.82,-0.8,0.18
0.85,-0.82,0.2
0.9,-0.82,0.25
1,-0.81,0.32
1.1,-0.79,0.37
1.18,-0.77,0.38
1.26,-0.77,0.35
1.36,-0.81,0.35
1.49,-0.85,0.43
1.62,-0.86,0.5
1.74,-0.79,0.52
1.86,-0.75,0.45
1.95,-0.78,0.39
2.07,-0.73,0.33
2.22,-0.76,0.27
2.32,-0.85,0.25
2.34,-0.92,0.22
2.29,-0.98,0.16
2.23,-1.02,0.06
2.19,-1.03,-0.02
2.16,-1,-0.08
2.15,-0.94,-0.12
2.15,-0.91,-0.15
2.12,-0.92,-0.19
2.01,-0.92,-0.25
1.89,-0.92,-0.29
1.77,-0.91,-0.31
1.67,-0.89,-0.28
1.61,-0.88,-0.26
1.53,-0.89,-0.25
1.44,-0.89,-0.22
1.4,-0.88,-0.18
1.34,-0.85,-0.19
1.25,-0.8,-0.2
1.2,-0.78,-0.21
1.12,-0.78,-0.23
1.01,-0.76,-0.25
0.92,-0.72,-0.25
0.87,-0.67,-0.2
0.7,-0.64,-0.21
0.6,-0.54,-0.18
0.56,-0.46,-0.16
0.5,-0.44,-0.18
0.41,-0.44,-0.15
0.33,-0.39,-0.09
0.26,-0.34,-0.1
0.14,-0.22,-0.06
0.06,-0.11,0.04
0.01,-0.12,0.07
0.01,-0.11,0.02
-0.03,-0.08,-0.01
-0.21,-0.24,0.08
-0.33,-0.24,0.23
-0.18,0.53,0.32
-0.38,0.68,-0.01
-0.6,0.26,-0.1
-0.6,0.23,0.16
-0.73,0.27,0.17
-0.78,0.39,0.14
-0.87,0.27,0.11
-0.85,0.23,0.13
-0.8,0.39,0.14
-0.77,0.51,0.14
-0.74,0.62,0.15
-0.71,0.7,0.17
-0.66,0.73,0.16
-0.63,0.77,0.16
-0.59,0.79,0.15
-0.54,0.82,0.13
-0.48,0.85,0.11
-0.43,0.85,0.11
-0.39,0.87,0.12
-0.33,0.88,0.12
-0.28,0.91,0.12
-0.24,0.94,0.11
-0.21,0.95,0.1
-0.19,0.96,0.1
-0.17,0.94,0.1
-0.17,0.92,0.11
-0.15,0.93,0.12
-0.13,0.93,0.12
-0.1,0.94,0.13
-0.07,0.96,0.15
-0.05,0.98,0.16
-0.03,1.01,0.16
-0.02,1.02,0.16
0,1,0.16
0.02,0.97,0.16
0.03,0.95,0.18
0.03,0.94,0.19
0.04,0.94,0.19
0.06,0.94,0.2
0.06,0.93,0.22
0.06,0.94,0.22
0.05,0.94,0.22
0.05,0.95,0.22
0.06,0.97,0.23
0.07,0.98,0.22
0.07,0.99,0.21
0.06,0.98,0.22
0.07,0.97,0.23
0.06,0.96,0.23
0.05,0.96,0.23
0.04,0.97,0.23
0.04,0.98,0.21
0.06,0.98,0.2
0.07,0.97,0.21
0.06,0.96,0.21
0.05,0.96,0.2
0.05,0.95,0.2
0.06,0.95,0.2
0.06,0.96,0.2
0.06,0.97,0.2
0.06,0.97,0.2
0.06,0.98,0.2
0.06,0.97,0.2
0.06,0.96,0.21
0.07,0.96,0.2
0.07,0.96,0.19
0.07,0.96,0.19
0.08,0.96,0.2
0.07,0.97,0.21
0.06,0.97,0.22
0.06,0.96,0.22
0.07,0.95,0.21
0.07,0.95,0.21
0.06,0.96,0.21
0.07,0.97,0.21
0.08,0.98,0.21
0.08,0.98,0.21
0.06,0.96,0.21
0.05,0.95,0.21
0.06,0.93,0.2
0.06,0.93,0.19
0.06,0.93,0.19
0.06,0.94,0.19
0.06,0.95,0.19
0.06,0.96,0.19
0.06,0.95,0.19
0.05,0.95,0.19
0.06,0.95,0.19
0.06,0.96,0.2
0.07,0.97,0.2
0.08,0.98,0.2
0.08,0.98,0.19
0.08,0.97,0.19
0.08,0.97,0.19
0.09,0.97,0.21
0.1,0.97,0.21
0.11,0.97,0.21
0.12,0.96,0.21
0.12,0.96,0.2
0.12,0.96,0.21
0.12,0.96,0.22
0.13,0.96,0.22
0.12,0.96,0.22
0.13,0.96,0.22
0.13,0.95,0.21
0.13,0.94,0.22
0.13,0.94,0.22
0.12,0.94,0.22
0.12,0.95,0.22
0.13,0.95,0.23
0.12,0.95,0.24
0.12,0.95,0.24
0.11,0.95,0.25
0.1,0.95,0.24
0.11,0.94,0.24
0.11,0.94,0.24
0.09,0.94,0.22
0.09,0.93,0.22
0.08,0.93,0.24
0.08,0.93,0.24
0.08,0.93,0.23
0.07,0.94,0.22
0.07,0.94,0.23
0.06,0.94,0.23
0.05,0.93,0.22
0.05,0.94,0.21
0.04,0.93,0.21
0.04,0.93,0.22
0.04,0.93,0.22
0.04,0.92,0.22
0.04,0.92,0.21
0.04,0.92,0.21
0.04,0.91,0.21
0.04,0.9,0.21
0.04,0.89,0.21
0.04,0.88,0.21
0.03,0.88,0.21
0.03,0.87,0.21
0.02,0.86,0.21
0.02,0.85,0.21
0.01,0.84,0.22
-0.01,0.83,0.21
-0.02,0.82,0.2
-0.02,0.8,0.21
-0.03,0.77,0.22
-0.04,0.74,0.22
-0.05,0.72,0.21
-0.05,0.72,0.21
-0.05,0.71,0.21
-0.05,0.69,0.2
-0.05,0.68,0.19
-0.05,0.66,0.19
-0.04,0.63,0.19
-0.03,0.61,0.18
-0.02,0.61,0.18
-0.01,0.62,0.18
0,0.66,0.19
0.01,0.68,0.2
0.02,0.68,0.2
0.03,0.66,0.2
0.04,0.62,0.2
0.06,0.6,0.19
0.08,0.6,0.19
0.12,0.6,0.18
0.16,0.6,0.19
0.2,0.6,0.2
0.23,0.62,0.2
0.26,0.62,0.19
0.28,0.57,0.16
0.34,0.55,0.14
0.37,0.53,0.13
0.4,0.53,0.14
0.43,0.54,0.14
0.46,0.54,0.14
0.51,0.55,0.14
0.55,0.55,0.15
0.59,0.54,0.14
0.62,0.53,0.13
0.65,0.52,0.1
0.67,0.51,0.06
0.71,0.5,0.03
0.73,0.48,0.01
0.76,0.45,0.02
0.82,0.43,0.04
0.88,0.42,0.06
0.92,0.44,0.06
0.92,0.46,0.03
0.92,0.46,0
0.92,0.43,-0.03
0.95,0.4,-0.05
0.99,0.36,-0.03
1.04,0.33,-0.01
1.07,0.31,0
1.09,0.31,-0.02
1.11,0.31,-0.07
1.16,0.3,-0.1
1.17,0.27,-0.11
1.19,0.26,-0.11
1.2,0.23,-0.1
1.2,0.18,-0.09
1.23,0.14,-0.08
1.26,0.09,-0.08
1.26,0.06,-0.1
1.26,0.04,-0.13
1.29,0.01,-0.16
1.33,-0.02,-0.16
1.36,-0.09,-0.11
1.39,-0.11,-0.04
1.38,-0.12,0.01
1.33,-0.15,0.01
1.28,-0.15,0.01
1.23,-0.16,-0.03
1.19,-0.22,-0.07
1.2,-0.28,-0.08
1.25,-0.33,-0.06
1.26,-0.37,-0.02
1.3,-0.36,0.08
1.31,-0.37,0.13
1.26,-0.41,0.1
1.2,-0.42,0.08
1.13,-0.42,0.02
1.07,-0.49,-0.05
1.03,-0.52,-0.07
1.03,-0.57,-0.03
1.05,-0.62,0
1.11,-0.5,0.02
1.08,-0.51,0.08
1.02,-0.65,0.15
0.98,-0.71,0.13
0.93,-0.73,0.1
0.92,-0.7,0.07
0.87,-0.72,0.04
0.85,-0.8,0.04
0.85,-0.9,0.06
0.86,-0.9,0.12
0.88,-0.85,0.14
0.86,-0.84,0.15
0.84,-0.88,0.17
0.8,-0.88,0.2
0.77,-0.84,0.2
0.76,-0.84,0.17
0.74,-0.85,0.17
0.74,-0.83,0.2
0.73,-0.82,0.24
0.73,-0.86,0.22
0.71,-0.85,0.22
0.67,-0.83,0.21
0.64,-0.86,0.2
0.65,-0.84,0.19
0.66,-0.84,0.18
0.67,-0.86,0.19
0.67,-0.86,0.19
0.67,-0.86,0.2
0.66,-0.87,0.22
0.65,-0.88,0.22
0.64,-0.88,0.21
0.64,-0.88,0.22
0.62,-0.88,0.21
0.63,-1.01,0.2
0.6,-0.94,0.24
0.55,-0.82,0.26
0.59,-0.91,0.23
0.6,-0.91,0.24
0.58,-0.87,0.24
0.58,-0.87,0.24
0.58,-0.88,0.26
0.57,-0.88,0.26
0.58,-0.88,0.25
0.58,-0.88,0.25
0.57,-0.88,0.25
0.57,-0.87,0.25
0.56,-0.88,0.26
0.55,-0.88,0.25
0.54,-0.89,0.24
0.52,-0.89,0.24
0.51,-0.89,0.24
0.51,-0.9,0.23
0.51,-0.9,0.23
0.5,-0.9,0.22
0.49,-0.9,0.22
0.49,-0.9,0.22
0.48,-0.91,0.21
0.46,-0.91,0.2
0.46,-0.91,0.2
0.45,-0.92,0.19
0.44,-0.92,0.19
0.44,-0.91,0.19
0.44,-0.91,0.19
0.44,-0.91,0.18
0.44,-0.91,0.18
0.43,-0.91,0.17
0.43,-0.91,0.17
0.43,-0.9,0.18
0.43,-0.9,0.19
0.43,-0.9,0.19
0.44,-0.9,0.19
0.44,-0.9,0.2
0.45,-0.9,0.22
0.46,-0.91,0.25
0.48,-0.91,0.28
0.49,-0.92,0.3
0.51,-0.94,0.32
0.54,-0.94,0.36
0.59,-0.95,0.41
0.63,-0.95,0.42
0.67,-0.96,0.41
0.71,-0.96,0.41
0.77,-0.95,0.42
0.86,-0.92,0.5
0.97,-0.92,0.62
1.04,-0.93,0.68
1.04,-0.94,0.67
1.03,-0.95,0.62
1.07,-0.96,0.57
1.12,-0.96,0.56
1.17,-0.97,0.57
1.22,-0.99,0.61
1.25,-0.99,0.66
1.3,-0.97,0.67
1.32,-0.99,0.65
1.3,-1.02,0.65
1.29,-1.03,0.64
1.3,-1.03,0.61
1.33,-1.04,0.58
1.36,-1.04,0.56
1.42,-1.03,0.5
1.46,-1.03,0.52
1.5,-1.03,0.52
1.5,-1.03,0.48
1.49,-1.02,0.45
1.48,-1.03,0.41
1.45,-1.03,0.35
1.42,-1.02,0.27
1.4,-1.01,0.2
1.39,-1,0.18
1.41,-0.99,0.2
1.41,-0.98,0.21
1.38,-0.97,0.17
1.33,-0.95,0.15
1.29,-0.91,0.11
1.22,-0.85,0.04
1.15,-0.8,-0.02
1.1,-0.78,-0.02
1.05,-0.77,-0.03
1.01,-0.7,-0.05
0.96,-0.61,-0.05
0.9,-0.58,-0.07
0.86,-0.56,-0.09
0.79,-0.52,-0.11
0.71,-0.47,-0.11
0.68,-0.41,-0.12
0.67,-0.19,-0.07
0.6,-0.17,-0.05
0.56,-0.07,-0.01
0.52,-0.07,-0.07
0.4,-0.19,-0.09
0.33,-0.1,0.02
0.34,-0.09,0.05
0.31,-0.06,0.09
0.3,0.15,0.1
0.3,0.22,0.03
0.26,0.22,0.03
0.24,0.12,0.02
0.23,0.14,-0.02
0.19,0.22,-0.02
0.11,0.38,0
0.06,0.16,-0.1
0.01,0.09,-0.06
-0.03,0.41,0.08
-0.03,0.46,0.04
-0.07,0.49,0.04
-0.12,0.53,0.04
-0.15,0.55,0.03
-0.2,0.56,-0.01
-0.25,0.6,-0.02
-0.3,0.65,0.01
-0.34,0.68,0.02
-0.36,0.78,0.08
-0.4,0.74,0.09
-0.39,0.72,0.08
-0.4,0.72,0.09
-0.42,0.73,0.09
-0.44,0.77,0.09
-0.46,0.85,0.1
-0.47,0.85,0.11
-0.47,0.82,0.12
-0.45,0.82,0.15
-0.45,0.79,0.16
-0.46,0.78,0.17
-0.47,0.82,0.17
-0.47,0.87,0.18
-0.46,0.9,0.2
-0.44,0.9,0.21
-0.41,0.88,0.23
-0.4,0.85,0.22
-0.39,0.84,0.22
-0.37,0.86,0.23
-0.36,0.89,0.25
-0.35,0.9,0.27
-0.33,0.91,0.28
-0.32,0.91,0.29
-0.29,0.91,0.29
-0.28,0.92,0.3
-0.26,0.94,0.27
-0.2,0.95,0.28
-0.17,0.95,0.3
-0.16,0.95,0.31
-0.16,0.96,0.3
-0.15,0.96,0.28
-0.13,0.94,0.28
-0.1,0.92,0.3
-0.09,0.91,0.31
-0.09,0.91,0.3
-0.08,0.91,0.28
-0.07,0.91,0.27
-0.07,0.92,0.27
-0.08,0.93,0.28
-0.07,0.93,0.29
-0.06,0.92,0.29
-0.05,0.92,0.28
-0.03,0.93,0.29
-0.02,0.93,0.28
-0.02,0.92,0.27
-0.02,0.92,0.27
-0.03,0.92,0.27
-0.03,0.93,0.27
-0.02,0.94,0.25
-0.01,0.95,0.25
0,0.95,0.26
0,0.95,0.29
0.01,0.95,0.29
0.01,0.96,0.28
0.01,0.96,0.28
0.01,0.96,0.27
0.01,0.96,0.26
0.02,0.96,0.25
0.02,0.96,0.26
0.03,0.95,0.26
0.03,0.95,0.25
0.03,0.95,0.24
0.03,0.96,0.24
0.03,0.96,0.24
0.02,0.95,0.24
0.02,0.94,0.24
0.02,0.94,0.24
0.02,0.94,0.24
0.02,0.94,0.24
0.01,0.93,0.22
0.01,0.93,0.22
0.01,0.91,0.23
0,0.9,0.23
-0.01,0.91,0.23
-0.01,0.92,0.22
-0.01,0.92,0.22
0,0.91,0.23
0,0.9,0.23
-0.02,0.87,0.23
-0.02,0.86,0.23
-0.02,0.87,0.22
-0.02,0.88,0.21
-0.02,0.89,0.21
-0.02,0.88,0.22
-0.02,0.86,0.23
-0.03,0.84,0.23
-0.03,0.82,0.23
-0.04,0.81,0.22
-0.04,0.8,0.22
-0.04,0.78,0.21
-0.04,0.76,0.21
-0.05,0.73,0.21
-0.06,0.71,0.21
-0.07,0.7,0.2
-0.07,0.71,0.2
-0.06,0.72,0.19
-0.05,0.72,0.19
-0.05,0.71,0.2
-0.04,0.68,0.2
-0.04,0.64,0.19
-0.04,0.62,0.18
-0.03,0.6,0.17
-0.01,0.59,0.16
0.01,0.6,0.15
0.05,0.61,0.15
0.07,0.6,0.16
0.09,0.59,0.16
0.11,0.57,0.16
0.13,0.54,0.16
0.14,0.53,0.14
0.17,0.54,0.12
0.2,0.56,0.1
0.24,0.6,0.1
0.28,0.62,0.11
0.32,0.62,0.13
0.36,0.58,0.15
0.4,0.53,0.16
0.43,0.51,0.14
0.45,0.51,0.11
0.5,0.51,0.08
0.55,0.49,0.06
0.62,0.47,0.07
0.68,0.46,0.1
0.73,0.45,0.11
0.78,0.45,0.11
0.84,0.44,0.12
0.9,0.42,0.1
0.93,0.4,0.07
0.94,0.38,0.05
0.96,0.36,0.04
1.05,0.3,0.05
1.09,0.27,0.07
1.12,0.24,0.07
1.13,0.21,0.06
1.14,0.21,0.04
1.15,0.21,0.03
1.16,0.21,0.03
1.16,0.19,0.02
1.18,0.15,0.01
1.21,0.1,0
1.24,0.06,0.01
1.26,0.04,0.01
1.28,0.04,-0.01
1.28,0.04,-0.01
1.29,0.04,0
1.32,0.02,0.02
1.32,0,0.03
1.31,-0.03,0.02
1.28,-0.07,-0.01
1.26,-0.11,-0.04
1.26,-0.14,-0.06
1.28,-0.17,-0.06
1.3,-0.21,-0.07
1.3,-0.24,-0.06
1.29,-0.28,-0.05
1.27,-0.32,0.05
1.27,-0.36,0.07
1.27,-0.36,0.1
1.24,-0.4,0.1
1.2,-0.41,0.07
1.14,-0.4,0.01
1.1,-0.43,-0.05
1.11,-0.49,-0.07
1.13,-0.52,-0.06
1.17,-0.52,-0.01
1.18,-0.55,0.05
1.19,-0.56,0.12
1.18,-0.54,0.16
1.13,-0.52,0.17
1.06,-0.56,0.16
1.02,-0.63,0.12
0.97,-0.61,0.1
0.91,-0.59,0.1
0.91,-0.61,0.1
0.93,-0.64,0.11
0.94,-0.7,0.12
0.94,-0.73,0.13
0.96,-0.7,0.16
0.94,-0.69,0.19
0.89,-0.71,0.2
0.87,-0.74,0.21
0.86,-0.76,0.25
0.87,-0.73,0.28
0.88,-0.78,0.28
0.87,-0.79,0.31
0.88,-0.82,0.31
0.9,-0.86,0.27
0.89,-0.9,0.24
0.87,-0.95,0.2
0.78,-0.91,0.23
0.69,-0.84,0.27
0.66,-0.86,0.27
0.65,-0.88,0.26
0.62,-0.85,0.28
0.63,-0.83,0.29
0.63,-0.84,0.29
0.63,-0.83,0.28
0.62,-0.83,0.27
0.61,-0.83,0.26
0.6,-0.84,0.25
0.58,-0.84,0.24
0.57,-0.84,0.24
0.58,-0.84,0.24
0.59,-0.84,0.25
0.6,-0.84,0.25
0.6,-0.84,0.26
0.6,-0.84,0.26
0.6,-0.85,0.25
0.59,-0.85,0.25
0.58,-0.86,0.24
0.57,-0.86,0.24
0.57,-0.86,0.23
0.56,-0.86,0.23
0.56,-0.85,0.23
0.57,-0.84,0.24
0.57,-0.84,0.25
0.57,-0.84,0.25
0.57,-0.85,0.24
0.56,-0.86,0.24
0.56,-0.86,0.25
0.56,-0.85,0.25
0.55,-0.86,0.24
0.55,-0.86,0.24
0.55,-0.85,0.24
0.54,-0.85,0.24
0.53,-0.84,0.24
0.54,-0.85,0.23
0.54,-0.84,0.22
0.53,-0.84,0.22
0.52,-0.85,0.21
0.51,-0.85,0.22
0.5,-0.85,0.22
0.51,-0.85,0.22
0.51,-0.85,0.22
0.5,-0.85,0.23
0.5,-0.85,0.24
0.5,-0.85,0.24
0.51,-0.85,0.25
0.51,-0.85,0.25
0.51,-0.85,0.25
0.51,-0.85,0.25
0.51,-0.85,0.25
0.5,-0.85,0.24
0.5,-0.84,0.25
0.51,-0.84,0.26
0.51,-0.85,0.26
0.51,-0.84,0.25
0.51,-0.84,0.25
0.52,-0.83,0.25
0.52,-0.84,0.25
0.51,-0.84,0.25
0.52,-0.84,0.26
0.52,-0.84,0.26
0.52,-0.84,0.25
0.53,-0.84,0.25
0.53,-0.85,0.26
0.54,-0.85,0.27
0.55,-0.85,0.28
0.55,-0.84,0.3
0.55,-0.84,0.31
0.56,-0.84,0.35
0.58,-0.84,0.36
0.6,-0.84,0.37
0.62,-0.85,0.38
0.66,-0.85,0.39
0.7,-0.84,0.39
0.74,-0.84,0.37
0.78,-0.85,0.37
0.82,-0.85,0.39
0.85,-0.86,0.43
0.87,-0.88,0.47
0.87,-0.9,0.5
0.88,-0.9,0.5
0.9,-0.86,0.45
0.92,-0.83,0.42
1.01,-0.84,0.44
1.12,-0.85,0.5
1.19,-0.86,0.55
1.21,-0.9,0.57
1.24,-0.92,0.55
1.3,-0.92,0.55
1.35,-0.9,0.58
1.37,-0.9,0.61
1.37,-0.89,0.59
1.36,-0.88,0.54
1.37,-0.87,0.51
1.41,-0.87,0.5
1.47,-0.86,0.47
1.48,-0.87,0.47
1.49,-0.88,0.47
1.51,-0.88,0.46
1.51,-0.87,0.43
1.52,-0.88,0.41
1.51,-0.89,0.37
1.47,-0.9,0.29
1.45,-0.9,0.23
1.44,-0.89,0.18
1.45,-0.88,0.15
1.45,-0.88,0.15
1.43,-0.88,0.16
1.38,-0.87,0.16
1.34,-0.85,0.13
1.3,-0.83,0.1
1.26,-0.81,0.07
1.22,-0.77,0.03
1.17,-0.73,-0.01
1.13,-0.71,-0.02
1.1,-0.69,0.01
1.06,-0.68,0.02
0.99,-0.65,-0.01
0.93,-0.6,-0.05
0.88,-0.52,-0.08
0.82,-0.43,-0.14
0.74,-0.31,-0.15
0.73,-0.17,-0.14
0.68,-0.12,-0.17
0.63,-0.15,-0.19
0.56,-0.12,-0.19
0.49,-0.16,-0.21
0.42,-0.03,-0.18
0.34,0.13,-0.14
0.3,0.17,-0.13
0.27,0.21,-0.09
0.21,0.21,-0.08
0.15,0.24,-0.08
0.1,0.35,-0.04
0.05,0.41,-0.03
-0.05,0.07,-0.08
-0.1,-0.03,-0.04
-0.1,0.35,-0.01
-0.16,0.6,0.03
-0.15,0.84,-0.02
-0.19,0.53,-0.13
-0.3,0.37,-0.05
-0.27,0.68,0.03
-0.27,0.56,0.03
-0.42,0.62,0.08
-0.5,0.58,0.07
-0.53,0.54,0.04
-0.61,0.49,0
-0.65,0.66,0.08
-0.62,0.75,0.11
-0.62,0.73,0.12
-0.64,0.75,0.13
-0.62,0.79,0.15
-0.6,0.75,0.16
-0.58,0.76,0.16
-0.55,0.8,0.17
-0.51,0.83,0.18
-0.48,0.84,0.19
-0.44,0.86,0.21
-0.4,0.86,0.22
-0.36,0.87,0.23
-0.33,0.89,0.23
-0.3,0.9,0.23
-0.27,0.9,0.24
-0.25,0.9,0.25
-0.22,0.9,0.26
-0.19,0.9,0.25
-0.15,0.9,0.24
-0.11,0.91,0.23
-0.08,0.93,0.22
-0.05,0.95,0.23
-0.03,0.95,0.24
-0.03,0.95,0.25
0,0.96,0.26
0.01,0.96,0.27
0.03,0.96,0.27
0.04,0.96,0.26
0.05,0.96,0.26
0.06,0.95,0.25
0.07,0.95,0.23
0.09,0.95,0.22
0.1,0.95,0.22
0.1,0.95,0.23
0.09,0.96,0.23
0.1,0.96,0.23
0.12,0.96,0.23
0.13,0.92,0.23
0.13,0.92,0.23
0.13,0.95,0.24
0.13,0.93,0.24
0.13,0.94,0.22
0.13,0.94,0.21
0.12,0.93,0.2
0.12,0.93,0.19
0.12,0.94,0.2
0.12,0.95,0.2
0.11,0.95,0.2
0.1,0.95,0.2
0.09,0.95,0.19
0.09,0.94,0.19
0.08,0.94,0.2
0.07,0.93,0.21
0.07,0.93,0.2
0.08,0.93,0.19
0.08,0.94,0.19
0.08,0.94,0.2
0.08,0.94,0.22
0.09,0.95,0.22
0.1,0.95,0.21
0.11,0.95,0.21
0.12,0.95,0.23
0.13,0.96,0.24
0.15,0.97,0.25
0.16,0.98,0.24
0.17,0.98,0.24
0.18,0.98,0.24
0.18,0.97,0.24
0.19,0.98,0.23
0.19,0.98,0.23
0.2,0.98,0.23
0.2,0.98,0.23
0.2,0.98,0.23
0.2,0.98,0.22
0.2,0.97,0.22
0.2,0.97,0.21
0.2,0.95,0.22
0.19,0.95,0.22
0.17,0.96,0.22
0.16,0.96,0.21
0.16,0.96,0.2
0.15,0.96,0.21
0.14,0.96,0.21
0.13,0.96,0.21
0.13,0.95,0.2
0.12,0.94,0.2
0.12,0.94,0.2
0.12,0.94,0.21
0.11,0.94,0.22
0.1,0.95,0.22
0.09,0.94,0.23
0.09,0.93,0.23
0.09,0.93,0.23
0.08,0.92,0.23
0.08,0.92,0.22
0.09,0.92,0.22
0.09,0.93,0.23
0.09,0.93,0.23
0.09,0.93,0.23
0.09,0.93,0.23
0.08,0.93,0.23
0.09,0.94,0.23
0.09,0.93,0.23
0.09,0.92,0.24
0.09,0.92,0.24
0.09,0.92,0.24
0.1,0.93,0.23
0.1,0.93,0.23
0.1,0.93,0.23
0.1,0.92,0.23
0.11,0.92,0.23
0.11,0.92,0.24
0.11,0.92,0.24
0.11,0.92,0.23
0.11,0.92,0.23
0.11,0.91,0.23
0.11,0.91,0.23
0.11,0.91,0.23
0.11,0.92,0.22
0.11,0.91,0.22
0.11,0.91,0.22
0.1,0.89,0.22
0.1,0.88,0.21
0.1,0.86,0.21
0.09,0.85,0.21
0.09,0.85,0.21
0.09,0.85,0.2
0.09,0.84,0.2
0.09,0.83,0.21
0.07,0.81,0.21
0.06,0.81,0.21
0.06,0.81,0.2
0.07,0.81,0.19
0.07,0.8,0.2
0.07,0.79,0.2
0.07,0.77,0.2
0.07,0.76,0.2
0.08,0.74,0.2
0.09,0.73,0.19
0.1,0.73,0.19
0.12,0.74,0.19
0.12,0.74,0.19
0.12,0.73,0.19
0.13,0.71,0.19
0.13,0.69,0.19
0.14,0.67,0.18
0.16,0.65,0.19
0.19,0.64,0.19
0.22,0.64,0.19
0.23,0.65,0.19
0.23,0.64,0.18
0.24,0.62,0.17
0.25,0.59,0.17
0.27,0.57,0.18
0.3,0.57,0.18
0.37,0.58,0.17
0.39,0.58,0.16
0.41,0.57,0.15
0.43,0.55,0.14
0.46,0.52,0.14
0.48,0.5,0.14
0.5,0.49,0.13
0.53,0.48,0.13
0.58,0.48,0.12
0.63,0.48,0.13
0.68,0.47,0.13
0.72,0.43,0.14
0.74,0.38,0.14
0.75,0.36,0.11
0.76,0.39,0.1
0.79,0.41,0.11
0.84,0.37,0.11
0.87,0.37,0.09
0.89,0.37,0.08
0.91,0.35,0.09
0.95,0.32,0.09
0.97,0.28,0.05
0.97,0.26,0.02
1,0.24,0.01
1.04,0.27,0.02
1.07,0.29,0.04
1.09,0.23,0.05
1.07,0.21,0.05
1.06,0.15,0.01
1.06,0.06,-0.02
1.06,0,-0.04
1.07,0,-0.06
1.1,0.01,-0.05
1.14,0.02,-0.05
1.17,0.01,-0.05
1.2,-0.03,-0.07
1.22,-0.08,-0.07
1.21,-0.13,-0.04
1.2,-0.2,0
1.25,-0.26,0.05
1.3,-0.24,0.1
1.3,-0.25,0.12
1.25,-0.31,0.07
1.17,-0.38,-0.01
1.14,-0.38,-0.07
1.15,-0.4,-0.11
1.16,-0.5,-0.09
1.23,-0.55,0.02
1.27,-0.54,0.16
1.33,-0.52,0.29
1.33,-0.54,0.37
1.22,-0.53,0.39
1.02,-0.65,0.36
0.9,-0.71,0.28
0.85,-0.74,0.21
0.86,-0.75,0.21
0.92,-0.82,0.23
0.9,-0.85,0.27
0.89,-0.93,0.38
0.92,-0.96,0.46
0.85,-0.88,0.46
0.76,-0.83,0.47
0.69,-0.9,0.48
0.66,-1.03,0.44
0.67,-1.04,0.45
0.73,-1.04,0.44
0.74,-0.97,0.47
0.65,-0.89,0.52
0.64,-0.95,0.54
0.66,-1.02,0.54
0.63,-1,0.51
0.62,-0.98,0.48
0.59,-1,0.46
0.51,-0.97,0.45
0.48,-0.97,0.42
0.49,-0.97,0.39
0.47,-0.96,0.37
0.42,-0.94,0.38
0.47,-0.94,0.37
0.51,-0.98,0.41
0.5,-0.95,0.44
0.42,-0.87,0.44
0.39,-0.88,0.44
0.44,-0.92,0.42
0.47,-0.92,0.4
0.45,-0.9,0.41
0.44,-0.9,0.41
0.43,-0.91,0.39
0.42,-0.91,0.37
0.42,-0.91,0.36
0.42,-0.91,0.36
0.42,-0.9,0.35
0.42,-0.91,0.35
0.42,-0.91,0.35
0.42,-0.91,0.36
0.42,-0.92,0.36
0.42,-0.92,0.35
0.42,-0.92,0.35
0.42,-0.92,0.34
0.42,-0.92,0.34
0.42,-0.92,0.33
0.43,-0.92,0.32
0.43,-0.93,0.31
0.43,-0.93,0.31
0.43,-0.93,0.3
0.43,-0.93,0.3
0.42,-0.93,0.29
0.42,-0.92,0.28
0.41,-0.92,0.28
0.4,-0.93,0.27
0.39,-0.93,0.27
0.39,-0.93,0.27
0.38,-0.92,0.28
0.38,-0.92,0.27
0.38,-0.92,0.27
0.38,-0.92,0.27
0.37,-0.92,0.26
0.37,-0.91,0.25
0.37,-0.91,0.26
0.37,-0.91,0.26
0.38,-0.91,0.27
0.38,-0.9,0.27
0.37,-0.9,0.27
0.36,-0.89,0.28
0.36,-0.9,0.29
0.37,-0.9,0.3
0.37,-0.9,0.31
0.37,-0.9,0.33
0.36,-0.9,0.34
0.36,-0.91,0.36
0.36,-0.92,0.46
0.37,-0.93,0.48
0.37,-0.94,0.5
0.38,-0.94,0.51
0.42,-0.94,0.52
0.48,-0.95,0.55
0.52,-0.95,0.62
0.58,-0.95,0.68
0.64,-0.97,0.73
0.68,-0.99,0.76
0.72,-0.98,0.75
0.76,-0.96,0.72
0.83,-0.93,0.74
0.88,-0.91,0.82
0.91,-0.92,0.91
0.95,-0.97,0.95
0.97,-1.03,0.94
1,-1.08,0.91
1.06,-1.04,0.91
1.15,-1,0.93
1.22,-1.01,0.91
1.26,-1.06,0.91
1.29,-1.09,0.92
1.29,-1.1,0.91
1.23,-1.11,0.89
1.17,-1.08,0.85
1.16,-1.02,0.79
1.33,-1.02,0.79
1.35,-1.04,0.75
1.33,-1.04,0.71
1.32,-1.02,0.63
1.32,-1,0.59
1.32,-0.98,0.54
1.31,-0.96,0.49
1.29,-0.94,0.48
1.28,-0.94,0.46
1.25,-0.95,0.38
1.21,-0.92,0.28
1.21,-0.87,0.21
1.24,-0.85,0.2
1.25,-0.85,0.18
1.2,-0.86,0.15
1.1,-0.81,0.12
1.06,-0.76,0.04
1.06,-0.75,-0.06
1.04,-0.73,-0.12
1,-0.66,-0.13
0.96,-0.6,-0.12
0.94,-0.59,-0.13
0.89,-0.54,-0.16
0.85,-0.42,-0.16
0.8,-0.3,-0.18
0.75,-0.37,-0.16
0.72,-0.4,-0.18
0.65,-0.3,-0.18
0.62,0.07,-0.17
0.69,0.22,-0.17
0.67,-0.08,-0.16
0.49,-0.19,-0.11
0.32,0.11,-0.03
0.3,0.24,0.01
0.28,-0.15,-0.12
0.22,0.02,-0.08
0.29,0.61,-0.09
0.22,0.49,-0.16
0.09,0.32,-0.07
0.04,0.3,-0.02
-0.01,0.36,0.01
-0.08,0.42,0.04
-0.19,0.32,0.03
-0.23,0.37,0.03
-0.25,0.46,0.06
-0.28,0.47,0.05
-0.31,0.51,0.03
-0.31,0.54,0.01
-0.33,0.53,-0.01
-0.36,0.56,0.01
-0.36,0.64,0.03
-0.39,0.65,0.07
-0.46,0.63,0.1
-0.49,0.66,0.11
-0.5,0.68,0.11
-0.5,0.7,0.11
-0.49,0.72,0.13
-0.48,0.75,0.17
-0.48,0.78,0.2
-0.49,0.8,0.22
-0.5,0.8,0.21
-0.48,0.82,0.2
-0.45,0.85,0.2
-0.42,0.86,0.21
-0.4,0.85,0.22
-0.36,0.87,0.24
-0.33,0.88,0.26
-0.31,0.89,0.3
-0.29,0.9,0.31
-0.27,0.91,0.32
-0.25,0.9,0.33
-0.23,0.9,0.32
-0.23,0.91,0.3
-0.22,0.92,0.29
-0.2,0.94,0.3
-0.17,0.96,0.31
-0.15,0.98,0.31
-0.13,0.99,0.29
-0.1,0.97,0.28
-0.08,0.96,0.28
-0.07,0.96,0.3
-0.05,0.97,0.31
-0.04,0.98,0.31
-0.02,0.98,0.29
-0.01,0.96,0.28
-0.01,0.95,0.27
-0.01,0.94,0.26
0,0.93,0.25
0.01,0.93,0.24
0,0.93,0.24
0,0.94,0.23
0,0.94,0.22
0,0.94,0.22
-0.01,0.94,0.22
-0.02,0.94,0.22
-0.03,0.94,0.22
-0.04,0.94,0.22
-0.03,0.93,0.22
-0.02,0.94,0.22
-0.01,0.94,0.21
-0.01,0.94,0.22
-0.02,0.94,0.22
-0.02,0.94,0.22
-0.02,0.94,0.22
-0.02,0.94,0.22
-0.02,0.95,0.23
-0.02,0.95,0.23
-0.02,0.94,0.24
-0.02,0.94,0.24
-0.01,0.94,0.24
0,0.93,0.25
0,0.94,0.25
0,0.94,0.26
0,0.95,0.26
0,0.95,0.26
0,0.95,0.26
0,0.95,0.27
0,0.95,0.27
0.01,0.95,0.26
0.01,0.95,0.26
0.02,0.96,0.26
0.03,0.96,0.27
0.02,0.97,0.27
0.02,0.98,0.27
0.03,0.98,0.26
0.03,0.97,0.25
0.03,0.97,0.25
0.04,0.96,0.26
0.05,0.95,0.26
0.05,0.95,0.26
0.06,0.96,0.26
0.06,0.95,0.26
0.06,0.94,0.25
0.06,0.94,0.25
0.06,0.93,0.25
0.06,0.93,0.25
0.06,0.93,0.26
0.05,0.93,0.26
0.05,0.93,0.26
0.05,0.93,0.25
0.05,0.93,0.25
0.05,0.94,0.25
0.05,0.94,0.25
0.04,0.95,0.25
0.04,0.96,0.25
0.03,0.96,0.25
0.04,0.96,0.25
0.03,0.95,0.26
0.02,0.95,0.25
0.02,0.95,0.24
0.03,0.95,0.24
0.03,0.95,0.24
0.03,0.95,0.24
0.03,0.95,0.24
0.02,0.95,0.24
0.02,0.94,0.24
0.03,0.94,0.23
0.03,0.94,0.23
0.03,0.94,0.23
0.04,0.94,0.23
0.04,0.94,0.24
0.03,0.93,0.25
0.03,0.93,0.25
0.04,0.93,0.24
0.04,0.94,0.24
0.05,0.95,0.24
0.05,0.95,0.25
0.04,0.95,0.26
0.04,0.94,0.26
0.05,0.94,0.25
0.05,0.94,0.25
0.06,0.94,0.26
0.06,0.94,0.25
0.06,0.94,0.25
0.07,0.94,0.26
0.07,0.95,0.26
0.08,0.95,0.26
0.08,0.94,0.26
0.08,0.94,0.26
0.08,0.94,0.25
0.09,0.94,0.26
0.09,0.93,0.26
0.08,0.92,0.27
0.08,0.93,0.27
0.08,0.93,0.26
0.07,0.93,0.26
0.08,0.92,0.26
0.08,0.92,0.27
0.08,0.93,0.27
0.07,0.93,0.26
0.07,0.92,0.25
0.07,0.92,0.25
0.07,0.91,0.27
0.07,0.9,0.27
0.06,0.91,0.27
0.06,0.91,0.26
0.06,0.9,0.26
0.06,0.89,0.26
0.06,0.88,0.27
0.05,0.86,0.27
0.04,0.86,0.27
0.04,0.87,0.27
0.04,0.87,0.26
0.04,0.87,0.26
0.04,0.86,0.26
0.04,0.85,0.26
0.03,0.83,0.26
0.03,0.8,0.26
0.03,0.76,0.25
0.01,0.76,0.24
0.02,0.77,0.24
0.03,0.78,0.24
0.03,0.78,0.25
0.02,0.77,0.26
0.01,0.74,0.26
0,0.71,0.26
-0.01,0.68,0.25
-0.01,0.66,0.23
0,0.66,0.22
0.01,0.68,0.21
0.03,0.71,0.22
0.04,0.72,0.23
0.06,0.71,0.24
0.07,0.69,0.25
0.08,0.66,0.25
0.08,0.63,0.24
0.08,0.63,0.23
0.09,0.62,0.23
0.11,0.61,0.22
0.13,0.6,0.22
0.13,0.59,0.22
0.12,0.56,0.23
0.13,0.52,0.23
0.15,0.51,0.22
0.18,0.54,0.2
0.26,0.51,0.21
0.28,0.49,0.21
0.29,0.48,0.23
0.31,0.45,0.25
0.33,0.42,0.26
0.36,0.43,0.25
0.4,0.44,0.23
0.44,0.47,0.21
0.5,0.47,0.19
0.57,0.44,0.18
0.61,0.41,0.2
0.63,0.37,0.23
0.65,0.33,0.23
0.66,0.32,0.21
0.68,0.33,0.17
0.72,0.32,0.15
0.8,0.29,0.14
0.9,0.26,0.14
0.96,0.24,0.11
0.98,0.21,0.11
0.98,0.15,0.12
1.03,0.09,0.11
1.06,0.09,0.1
1.05,0.1,0.08
1.1,0.07,0.1
1.17,0.02,0.14
1.29,-0.04,0.13
1.3,-0.11,0.13
1.3,-0.21,0.14
1.33,-0.18,0.14
1.32,-0.24,0.08
1.31,-0.32,0.08
1.37,-0.2,0.09
1.36,-0.26,0.06
1.35,-0.42,0.05
1.38,-0.43,0.06
1.41,-0.43,0.09
1.39,-0.53,0.15
1.36,-0.62,0.27
1.42,-0.52,0.34
1.35,-0.48,0.32
1.24,-0.59,0.28
1.24,-0.56,0.26
1.21,-0.63,0.23
1.16,-0.7,0.21
1.12,-0.61,0.22
1.09,-0.64,0.21
1.11,-0.81,0.2
1.14,-0.77,0.31
1.1,-0.75,0.38
1.12,-0.73,0.41
1.11,-0.65,0.34
0.89,-0.79,0.3
0.81,-0.77,0.25
0.78,-0.81,0.2
0.78,-1.03,0.16
0.72,-1.31,0.29
0.81,-1.15,0.49
1,-0.78,0.63
1.04,-0.88,0.79
1.04,-1.04,0.87
1.07,-1.02,0.84
1.1,-0.98,0.76
1.04,-0.97,0.63
0.89,-0.96,0.46
0.75,-0.96,0.34
0.71,-0.94,0.26
0.6,-0.92,0.2
0.42,-0.9,0.2
0.37,-0.9,0.2
0.35,-0.89,0.2
0.35,-0.86,0.24
0.31,-0.83,0.29
0.32,-0.84,0.32
0.37,-0.86,0.34
0.39,-0.86,0.39
0.39,-0.87,0.43
0.4,-0.88,0.49
0.44,-0.88,0.49
0.46,-0.89,0.47
0.47,-0.89,0.44
0.47,-0.89,0.4
0.47,-0.9,0.36
0.48,-0.9,0.34
0.47,-0.9,0.33
0.46,-0.9,0.34
0.44,-0.9,0.34
0.44,-0.9,0.35
0.43,-0.9,0.35
0.43,-0.9,0.35
0.44,-0.9,0.36
0.44,-0.9,0.36
0.44,-0.91,0.37
0.44,-0.91,0.37
0.43,-0.91,0.37
0.42,-0.91,0.37
0.42,-0.91,0.37
0.41,-0.91,0.37
0.42,-0.9,0.36
0.41,-0.9,0.35
0.41,-0.89,0.35
0.42,-0.9,0.33
0.43,-0.9,0.32
0.43,-0.9,0.32
0.42,-0.9,0.31
0.42,-0.91,0.3
0.41,-0.91,0.3
0.41,-0.91,0.3
0.4,-0.91,0.3
0.39,-0.91,0.31
0.38,-0.91,0.31
0.38,-0.91,0.31
0.37,-0.91,0.31
0.37,-0.91,0.31
0.37,-0.91,0.31
0.36,-0.91,0.31
0.36,-0.9,0.3
0.36,-0.9,0.3
0.36,-0.91,0.31
0.36,-0.9,0.32
0.36,-0.9,0.33
0.36,-0.91,0.34
0.36,-0.9,0.35
0.35,-0.9,0.35
0.35,-0.9,0.35
0.36,-0.91,0.36
0.37,-0.91,0.39
0.38,-0.9,0.41
0.39,-0.9,0.42
0.39,-0.92,0.43
0.43,-0.91,0.48
0.45,-0.91,0.48
0.47,-0.92,0.49
0.51,-0.94,0.51
0.54,-0.96,0.54
0.56,-0.96,0.54
0.59,-0.94,0.55
0.6,-0.94,0.56
0.62,-0.94,0.58
0.67,-0.95,0.6
0.75,-0.95,0.6
0.82,-0.91,0.63
0.87,-0.86,0.68
0.92,-0.86,0.76
1,-0.89,0.82
1.09,-0.93,0.84
1.15,-0.96,0.83
1.2,-0.99,0.81
1.24,-1,0.77
1.28,-0.98,0.77
1.34,-0.98,0.8
1.38,-1.01,0.79
1.38,-1.03,0.72
1.38,-1.02,0.66
1.38,-1,0.66
1.42,-0.98,0.68
1.44,-0.98,0.59
1.41,-0.97,0.54
1.41,-0.97,0.52
1.39,-0.96,0.52
1.36,-0.94,0.47
1.35,-0.95,0.39
1.37,-0.99,0.31
1.39,-1.01,0.21
1.4,-0.97,0.1
1.39,-0.92,0.05
1.4,-0.91,0.04
1.41,-0.93,0.04
1.37,-0.94,0.02
1.3,-0.93,0
1.22,-0.91,-0.02
1.16,-0.88,0
1.1,-0.83,0
1.05,-0.77,-0.02
1,-0.71,-0.04
0.96,-0.62,-0.07
0.93,-0.56,-0.1
0.9,-0.51,-0.14
0.91,-0.36,-0.12
0.89,-0.29,-0.11
0.88,-0.31,-0.1
0.8,-0.3,-0.09
0.71,-0.18,-0.07
0.67,-0.02,-0.08
0.66,0.09,-0.11
0.67,0.17,-0.06
0.65,-0.04,-0.15
0.63,-0.06,-0.15
0.55,0.22,-0.04
0.46,0.23,-0.05
0.43,0.14,-0.04
0.36,0.13,-0.03
0.28,0.12,0
0.21,0.13,0.02
0.15,0.19,0.02
0.11,0.2,0.01
0.02,0.16,-0.03
0.07,0.99,0.12
0.11,1.09,0.04
-0.14,0.07,-0.15
-0.29,-0.04,-0.05
-0.24,0.3,0.01
-0.22,0.52,0.08
-0.28,0.45,0.11
-0.44,0.32,0.08
-0.43,0.52,0.11
-0.39,0.71,0.11
-0.45,0.56,0.06
-0.55,0.57,-0.01
-0.45,0.69,0.01
-0.42,0.71,0.02
-0.43,0.71,0.02
-0.44,0.72,0.01
-0.46,0.75,0.02
-0.45,0.78,0.03
-0.45,0.83,0.06
-0.47,0.87,0.09
-0.47,0.91,0.11
-0.46,0.94,0.11
-0.46,0.94,0.12
-0.44,0.96,0.13
-0.4,0.97,0.13
-0.38,0.98,0.11
-0.36,0.99,0.11
-0.34,0.99,0.11
-0.3,0.99,0.11
-0.25,0.98,0.12
-0.21,0.98,0.13
-0.17,0.97,0.15
-0.13,0.96,0.16
-0.09,0.96,0.17
-0.06,0.97,0.16
-0.03,0.98,0.16
0.01,0.97,0.15
0.04,0.96,0.11
0.08,0.94,0.12
0.09,0.93,0.14
0.09,0.93,0.17
0.1,0.95,0.18
0.13,0.96,0.17
0.15,0.96,0.17
0.15,0.97,0.18
0.15,0.97,0.19
0.16,0.98,0.18
0.17,0.97,0.16
0.17,0.97,0.15
0.17,0.96,0.15
0.15,0.96,0.18
0.13,0.97,0.2
0.13,0.98,0.2
0.13,0.98,0.2
0.12,0.98,0.2
0.12,0.99,0.22
0.1,0.99,0.22
0.08,0.98,0.21
0.07,0.98,0.2
0.07,0.96,0.19
0.06,0.96,0.19
0.05,0.96,0.2
0.04,0.97,0.21
0.03,0.97,0.22
0.02,0.99,0.22
0.02,0.99,0.21
0.04,0.99,0.21
0.06,0.98,0.21
0.06,0.97,0.22
0.06,0.96,0.22
0.07,0.96,0.21
0.08,0.96,0.21
0.08,0.96,0.21
0.09,0.95,0.22
0.09,0.95,0.23
0.1,0.94,0.22
0.11,0.94,0.22
0.12,0.93,0.21
0.12,0.93,0.21
0.12,0.93,0.21
0.12,0.93,0.22
0.11,0.94,0.22
0.1,0.94,0.23
0.09,0.94,0.23
0.09,0.94,0.23
0.09,0.95,0.23
0.09,0.95,0.22
0.09,0.96,0.23
0.09,0.96,0.23
0.09,0.96,0.23
0.08,0.97,0.22
0.08,0.98,0.23
0.08,0.97,0.24
0.08,0.96,0.24
0.09,0.96,0.25
0.09,0.95,0.24
0.09,0.95,0.23
0.08,0.95,0.23
0.08,0.95,0.23
0.09,0.94,0.23
0.09,0.94,0.22
0.09,0.94,0.22
0.09,0.94,0.22
0.09,0.94,0.22
0.08,0.95,0.22
0.09,0.95,0.22
0.08,0.96,0.23
0.09,0.96,0.23
0.1,0.95,0.22
0.1,0.95,0.21
0.09,0.95,0.21
0.1,0.95,0.22
0.09,0.95,0.22
0.09,0.96,0.22
0.1,0.97,0.22
0.1,0.97,0.21
0.1,0.95,0.21
0.1,0.95,0.21
0.1,0.95,0.21
0.09,0.95,0.21
0.09,0.95,0.21
0.09,0.95,0.21
0.1,0.95,0.21
0.1,0.96,0.21
0.1,0.96,0.21
0.09,0.96,0.21
0.09,0.95,0.21
0.09,0.95,0.21
0.09,0.95,0.21
0.09,0.95,0.21
0.09,0.95,0.22
0.09,0.95,0.22
0.1,0.94,0.22
0.1,0.94,0.22
0.1,0.95,0.22
0.1,0.96,0.22
0.09,0.96,0.22
0.09,0.96,0.22
0.09,0.96,0.22
0.1,0.95,0.22
0.1,0.94,0.22
0.1,0.94,0.23
0.1,0.95,0.22
0.1,0.95,0.22
0.1,0.95,0.23
0.09,0.94,0.23
0.09,0.94,0.23
0.1,0.95,0.22
0.1,0.95,0.22
0.1,0.96,0.22
0.11,0.96,0.22
0.11,0.95,0.23
0.11,0.95,0.23
0.11,0.94,0.23
0.11,0.95,0.23
0.11,0.95,0.23
0.11,0.96,0.23
0.11,0.96,0.23
0.1,0.96,0.23
0.11,0.95,0.23
0.11,0.96,0.23
0.11,0.96,0.23
0.11,0.96,0.23
0.12,0.96,0.23
0.11,0.95,0.23
0.11,0.95,0.23
0.11,0.96,0.23
0.12,0.96,0.22
0.12,0.95,0.22
0.12,0.95,0.22
0.12,0.95,0.22
0.12,0.95,0.22
0.12,0.94,0.22
0.12,0.94,0.22
0.11,0.94,0.22
0.11,0.95,0.21
0.11,0.95,0.21
0.12,0.95,0.21
0.11,0.95,0.22
0.11,0.95,0.22
0.11,0.94,0.23
0.11,0.94,0.22
0.11,0.94,0.22
0.11,0.94,0.22
0.11,0.94,0.22
0.11,0.95,0.23
0.11,0.94,0.23
0.11,0.94,0.23
0.1,0.94,0.22
0.1,0.94,0.22
0.1,0.94,0.21
0.1,0.94,0.22
0.1,0.94,0.22
0.1,0.94,0.22
0.09,0.93,0.22
0.1,0.93,0.22
0.09,0.93,0.22
0.09,0.93,0.22
0.09,0.92,0.23
0.09,0.92,0.22
0.08,0.91,0.22
0.07,0.9,0.22
0.06,0.9,0.22
0.06,0.89,0.22
0.05,0.88,0.22
0.05,0.88,0.22
0.04,0.86,0.21
0.03,0.85,0.21
0.02,0.84,0.21
0.01,0.82,0.21
0,0.8,0.21
-0.02,0.78,0.2
-0.03,0.76,0.19
-0.04,0.75,0.18
-0.05,0.74,0.17
-0.05,0.73,0.16
-0.06,0.71,0.16
-0.08,0.69,0.16
-0.1,0.67,0.16
-0.11,0.64,0.16
-0.11,0.6,0.14
-0.11,0.6,0.14
-0.1,0.62,0.14
-0.08,0.64,0.14
-0.06,0.63,0.13
-0.04,0.61,0.13
-0.03,0.57,0.13
-0.02,0.53,0.13
0,0.51,0.13
0.03,0.52,0.13
0.07,0.55,0.13
0.12,0.57,0.13
0.15,0.57,0.13
0.18,0.53,0.13
0.2,0.48,0.13
0.23,0.43,0.14
0.27,0.38,0.14
0.32,0.35,0.13
0.38,0.38,0.13
0.43,0.42,0.13
0.48,0.4,0.11
0.52,0.35,0.07
0.58,0.3,0.07
0.62,0.24,0.1
0.65,0.2,0.15
0.67,0.19,0.16
0.72,0.21,0.08
0.85,0.24,0.05
0.9,0.2,0.04
0.93,0.13,0.05
0.96,0.03,0.07
1,-0.02,0.1
1.03,-0.04,0.09
1.07,-0.06,0.1
1.13,-0.04,0.12
1.18,-0.04,0.12
1.22,-0.08,0.11
1.24,-0.12,0.1
1.27,-0.17,0.12
1.29,-0.22,0.11
1.32,-0.21,0.07
1.33,-0.23,0.05
1.33,-0.24,0.04
1.35,-0.21,0.05
1.35,-0.22,0.04
1.33,-0.26,0.02
1.34,-0.31,0.06
1.31,-0.35,0.1
1.28,-0.39,0.07
1.3,-0.4,0.05
1.32,-0.43,0.05
1.34,-0.44,0.08
1.33,-0.46,0.04
1.33,-0.55,0.11
1.31,-0.64,0.13
1.3,-0.64,0.1
1.25,-0.65,0.13
1.27,-0.66,0.16
1.3,-0.7,0.14
1.27,-0.77,0.14
1.25,-0.74,0.12
1.18,-0.74,0.11
1.19,-0.7,0.21
1.19,-0.71,0.23
1.12,-0.78,0.2
1.12,-0.78,0.25
1.14,-0.79,0.3
1.16,-0.8,0.39
1.16,-0.9,0.5
1.19,-0.99,0.6
1.28,-0.96,0.71
1.33,-0.97,0.67
1.32,-1,0.5
1.3,-0.94,0.33
1.15,-0.88,0.19
0.77,-0.85,0.14
0.6,-0.85,0.16
0.7,-0.91,0.15
0.66,-0.88,0.17
0.46,-0.84,0.17
0.42,-0.82,0.19
0.35,-0.83,0.22
0.37,-0.82,0.22
0.43,-0.81,0.22
0.47,-0.8,0.24
0.48,-0.81,0.26
0.51,-0.82,0.27
0.53,-0.83,0.26
0.54,-0.86,0.24
0.54,-0.88,0.23
0.55,-0.9,0.22
0.56,-0.91,0.22
0.55,-0.91,0.22
0.55,-0.93,0.24
0.53,-0.92,0.28
0.53,-0.92,0.31
0.51,-0.92,0.32
0.5,-0.92,0.32
0.51,-0.93,0.32
0.51,-0.94,0.31
0.51,-0.94,0.3
0.51,-0.94,0.31
0.51,-0.94,0.32
0.52,-0.94,0.34
0.55,-0.93,0.4
0.62,-0.93,0.42
0.63,-0.95,0.44
0.66,-0.96,0.45
0.72,-0.96,0.46
0.82,-0.97,0.51
0.92,-0.99,0.58
1,-0.99,0.66
1.06,-0.98,0.7
1.08,-0.99,0.71
1.1,-1.01,0.67
1.13,-1,0.64
1.15,-0.99,0.67
1.18,-1,0.73
1.21,-1.05,0.76
1.23,-1.11,0.73
1.25,-1.09,0.71
1.28,-1.08,0.68
1.34,-1.13,0.66
1.38,-1.13,0.7
1.36,-1.11,0.7
1.35,-1.11,0.66
1.36,-1.1,0.61
1.39,-1.11,0.56
1.41,-1.1,0.54
1.43,-1.09,0.53
1.45,-1.09,0.54
1.48,-1.08,0.54
1.49,-1.07,0.49
1.49,-1.09,0.42
1.46,-1.11,0.35
1.43,-1.11,0.31
1.41,-1.1,0.26
1.39,-1.08,0.21
1.36,-1.06,0.15
1.33,-1.05,0.12
1.31,-1.05,0.11
1.27,-1.04,0.1
1.22,-1.01,0.07
1.16,-0.97,0.04
1.09,-0.93,0.01
1.01,-0.89,-0.01
0.95,-0.84,-0.04
0.9,-0.78,-0.09
0.85,-0.73,-0.08
0.83,-0.7,-0.05
0.82,-0.64,-0.06
0.78,-0.49,-0.12
0.74,-0.35,-0.1
0.72,-0.48,-0.11
0.61,-0.48,-0.24
0.49,-0.38,-0.34
0.65,-0.32,-0.39
0.61,-0.33,-0.23
0.46,-0.28,-0.18
0.43,-0.2,-0.22
0.33,-0.2,-0.24
0.2,-0.22,-0.22
0.19,-0.12,-0.24
0.15,0.03,-0.18
0.08,0.12,-0.1
0.04,0.17,-0.06
-0.01,0.24,-0.05
-0.05,0.32,-0.06
-0.11,0.36,-0.08
-0.17,0.39,-0.09
-0.23,0.41,-0.07
-0.26,0.45,-0.04
-0.27,0.46,-0.01
-0.27,0.46,0.02
-0.25,0.55,0.08
-0.27,0.6,0.12
-0.32,0.61,0.13
-0.37,0.64,0.16
-0.43,0.64,0.2
-0.49,0.66,0.21
-0.52,0.7,0.24
-0.54,0.75,0.25
-0.54,0.83,0.24
-0.55,0.88,0.21
-0.55,0.9,0.19
-0.53,0.9,0.19
-0.54,0.91,0.19
-0.53,0.91,0.19
-0.48,0.91,0.18
-0.43,0.89,0.17
-0.38,0.88,0.17
-0.34,0.88,0.17
-0.29,0.89,0.17
-0.23,0.92,0.17
-0.17,0.94,0.16
-0.12,0.94,0.15
-0.08,0.94,0.14
-0.05,0.94,0.14
-0.01,0.93,0.15
0.02,0.91,0.17
0.05,0.9,0.18
0.08,0.9,0.19
0.09,0.91,0.19
0.1,0.92,0.2
0.12,0.95,0.2
0.13,0.97,0.19
0.13,0.98,0.17
0.12,0.98,0.17
0.13,0.96,0.17
0.13,0.93,0.18
0.11,0.94,0.18
0.11,0.96,0.17
0.12,0.99,0.17
0.12,1.01,0.16
0.12,1,0.16
0.11,0.99,0.16
0.1,0.98,0.15
0.1,0.97,0.14
0.1,0.96,0.15
0.1,0.96,0.16
0.09,0.97,0.18
0.09,0.98,0.18
0.1,0.98,0.17
0.09,0.97,0.16
0.1,0.97,0.15
0.1,0.98,0.16
0.11,0.98,0.17
0.11,0.97,0.17
0.1,0.95,0.17
0.12,0.95,0.19
0.13,0.94,0.2
0.13,0.95,0.21
0.12,0.95,0.21
0.13,0.95,0.2
0.13,0.94,0.2
0.14,0.93,0.22
0.15,0.92,0.22
0.14,0.92,0.23
0.14,0.93,0.22
0.14,0.94,0.22
0.15,0.94,0.22
0.15,0.93,0.24
0.14,0.93,0.24
0.14,0.94,0.24
0.15,0.94,0.24
0.15,0.95,0.23
0.16,0.95,0.23
0.16,0.95,0.23
0.17,0.95,0.23
0.17,0.95,0.25
0.18,0.94,0.25
0.18,0.94,0.25
0.18,0.94,0.24
0.18,0.94,0.24
0.19,0.95,0.23
0.19,0.96,0.23
0.19,0.96,0.23
0.19,0.96,0.24
0.19,0.95,0.24
0.2,0.95,0.24
0.2,0.95,0.23
0.21,0.95,0.23
0.22,0.94,0.22
0.22,0.94,0.22
0.22,0.93,0.22
0.21,0.93,0.22
0.21,0.92,0.22
0.21,0.92,0.22
0.21,0.93,0.22
0.21,0.93,0.22
0.21,0.93,0.22
0.21,0.93,0.22
0.21,0.93,0.22
0.2,0.93,0.23
0.2,0.93,0.23
0.21,0.92,0.23
0.21,0.93,0.23
0.21,0.93,0.23
0.21,0.93,0.23
0.21,0.94,0.24
0.21,0.93,0.24
0.2,0.93,0.23
0.21,0.93,0.23
0.21,0.93,0.23
0.21,0.93,0.23
0.2,0.92,0.22
0.2,0.92,0.22
0.2,0.91,0.23
0.19,0.91,0.22
0.18,0.91,0.22
0.18,0.91,0.21
0.17,0.9,0.21
0.17,0.88,0.21
0.16,0.86,0.21
0.15,0.84,0.2
0.14,0.83,0.2
0.14,0.83,0.2
0.13,0.82,0.21
0.11,0.81,0.22
0.1,0.79,0.22
0.08,0.77,0.23
0.07,0.74,0.24
0.06,0.72,0.23
0.06,0.72,0.21
0.06,0.74,0.2
0.07,0.74,0.19
0.07,0.74,0.2
0.08,0.73,0.21
0.07,0.7,0.21
0.07,0.66,0.22
0.06,0.63,0.23
0.07,0.6,0.23
0.09,0.59,0.22
0.11,0.6,0.22
0.15,0.61,0.22
0.15,0.62,0.2
0.16,0.63,0.19
0.17,0.62,0.18
0.19,0.59,0.18
0.2,0.55,0.18
0.22,0.53,0.19
0.26,0.53,0.21
0.29,0.53,0.22
0.31,0.52,0.22
0.33,0.53,0.23
0.34,0.52,0.24
0.36,0.47,0.27
0.39,0.44,0.29
0.41,0.43,0.28
0.43,0.45,0.25
0.47,0.47,0.21
0.52,0.44,0.17
0.57,0.45,0.17
0.6,0.43,0.18
0.62,0.36,0.21
0.63,0.3,0.26
0.65,0.27,0.28
0.69,0.28,0.25
0.72,0.31,0.21
0.76,0.32,0.17
0.91,0.24,0.13
0.96,0.21,0.17
0.96,0.15,0.18
0.98,0.11,0.15
1,0.12,0.12
1,0.13,0.08
0.99,0.12,0.03
1.04,0.07,-0.02
1.09,0.06,-0.03
1.14,0.04,-0.03
1.18,-0.01,-0.01
1.23,-0.01,0.02
1.24,-0.02,0.02
1.24,-0.06,0.01
1.24,-0.07,-0.02
1.22,-0.11,-0.04
1.21,-0.17,-0.08
1.23,-0.19,-0.1
1.26,-0.2,-0.08
1.35,-0.27,0.03
1.39,-0.27,0.06
1.36,-0.25,-0.01
1.36,-0.29,-0.02
1.36,-0.34,0
1.34,-0.36,0.02
1.3,-0.4,0.05
1.27,-0.43,0.07
1.24,-0.42,0.04
1.24,-0.41,0.04
1.25,-0.49,0.03
1.23,-0.52,0.06
1.17,-0.53,0.09
1.17,-0.54,0.15
1.22,-0.6,0.17
1.16,-0.66,0.14
1.28,-0.59,0.19
1.3,-0.63,0.27
1.15,-0.65,0.36
1.1,-0.63,0.34
1.03,-0.67,0.22
1.02,-0.68,0.22
1.04,-0.77,0.26
1.11,-0.85,0.29
1.18,-0.87,0.38
1.28,-0.88,0.46
1.33,-0.92,0.51
1.39,-0.97,0.47
1.35,-0.96,0.43
1.18,-0.95,0.36
1.07,-0.92,0.23
0.92,-0.83,0.23
0.76,-0.86,0.24
0.68,-0.84,0.13
0.66,-0.82,0.11
0.66,-0.79,0.11
0.59,-0.81,0.15
0.57,-0.8,0.15
0.6,-0.75,0.15
0.59,-0.75,0.15
0.56,-0.74,0.15
0.55,-0.75,0.15
0.54,-0.78,0.15
0.57,-0.77,0.16
0.6,-0.75,0.16
0.61,-0.78,0.15
0.61,-0.84,0.14
0.63,-0.86,0.14
0.68,-0.81,0.16
0.7,-0.79,0.16
0.72,-0.82,0.16
0.71,-0.85,0.18
0.69,-0.84,0.19
0.65,-0.81,0.21
0.64,-0.83,0.22
0.65,-0.85,0.24
0.64,-0.85,0.26
0.63,-0.85,0.26
0.62,-0.86,0.25
0.63,-0.85,0.25
0.61,-0.84,0.25
0.6,-0.84,0.26
0.6,-0.84,0.27
0.6,-0.84,0.27
0.61,-0.84,0.27
0.62,-0.84,0.27
0.62,-0.85,0.26
0.63,-0.85,0.26
0.64,-0.85,0.26
0.65,-0.85,0.24
0.65,-0.85,0.24
0.66,-0.85,0.27
0.67,-0.86,0.29
0.67,-0.86,0.29
0.67,-0.86,0.3
0.69,-0.87,0.32
0.73,-0.88,0.33
0.78,-0.92,0.34
0.81,-0.95,0.35
0.84,-0.93,0.36
0.87,-0.91,0.37
0.9,-0.88,0.4
0.99,-0.86,0.44
1.05,-0.85,0.47
1.04,-0.83,0.52
1.07,-0.85,0.53
1.19,-0.91,0.49
1.24,-0.86,0.5
1.27,-0.82,0.52
1.31,-0.85,0.52
1.3,-0.94,0.52
1.27,-0.94,0.53
1.24,-0.9,0.53
1.19,-0.91,0.51
1.17,-0.92,0.48
1.18,-0.92,0.46
1.2,-0.89,0.44
1.22,-0.88,0.43
1.25,-0.88,0.42
1.26,-0.89,0.41
1.26,-0.88,0.41
1.26,-0.87,0.39
1.28,-0.85,0.37
1.29,-0.84,0.34
1.31,-0.84,0.32
1.32,-0.83,0.31
1.34,-0.81,0.29
1.37,-0.78,0.25
1.37,-0.75,0.2
1.35,-0.72,0.16
1.33,-0.7,0.15
1.28,-0.68,0.11
1.17,-0.68,0.07
1.13,-0.65,0.06
1.14,-0.6,0.05
1.17,-0.56,0.02
1.17,-0.54,0
1.15,-0.53,-0.02
1.14,-0.5,-0.03
1.13,-0.46,-0.02
1.08,-0.43,-0.04
1.01,-0.4,-0.05
0.98,-0.37,-0.05
0.97,-0.33,-0.05
0.95,-0.29,-0.05
0.92,-0.27,-0.02
0.92,-0.25,-0.01
0.9,-0.21,-0.05
0.89,-0.19,-0.11
0.92,-0.17,-0.15
0.9,-0.14,-0.13
0.84,-0.16,-0.12
0.78,-0.17,-0.12
0.7,-0.19,-0.12
0.65,-0.18,-0.12
0.6,-0.11,-0.07
0.57,-0.08,-0.06
0.57,0.45,-0.09
0.57,-0.34,-0.15
0.52,0.22,-0.03
0.3,0.24,-0.02
