Acc_x,Acc_y,Acc_z
0.27,0.37,1.03
0.35,0.34,1.07
0.4,0.32,1.1
0.42,0.29,1.1
0.4,0.26,1.08
0.38,0.22,1.05
0.39,0.18,1.01
0.44,0.13,1
0.5,0.08,1.01
0.52,0.05,1.02
0.52,0.03,1.01
0.52,0,0.99
0.53,-0.02,0.96
0.53,-0.03,0.93
0.53,-0.05,0.88
0.53,-0.08,0.85
0.53,-0.11,0.83
0.61,-0.21,0.91
0.68,-0.28,0.98
0.7,-0.3,1.01
0.67,-0.3,0.98
0.62,-0.29,0.93
0.59,-0.29,0.85
0.58,-0.29,0.79
0.59,-0.29,0.75
0.6,-0.28,0.72
0.61,-0.28,0.73
0.6,-0.28,0.75
0.59,-0.28,0.78
0.56,-0.28,0.8
0.53,-0.27,0.78
0.49,-0.25,0.73
0.46,-0.23,0.68
0.47,-0.23,0.64
0.49,-0.23,0.63
0.51,-0.24,0.65
0.54,-0.25,0.67
0.56,-0.26,0.68
0.57,-0.27,0.69
0.57,-0.28,0.69
0.58,-0.29,0.7
0.54,-0.29,0.68
0.51,-0.3,0.63
0.52,-0.33,0.58
0.62,-0.37,0.57
0.66,-0.38,0.59
0.71,-0.39,0.63
0.74,-0.42,0.66
0.75,-0.41,0.67
0.72,-0.39,0.64
0.66,-0.37,0.57
0.59,-0.35,0.5
0.61,-0.37,0.43
0.7,-0.37,0.39
0.76,-0.38,0.42
0.79,-0.41,0.47
0.84,-0.41,0.51
0.87,-0.4,0.55
0.86,-0.38,0.58
0.85,-0.35,0.59
0.83,-0.31,0.59
0.8,-0.28,0.57
0.76,-0.25,0.55
0.73,-0.23,0.51
0.74,-0.24,0.48
0.79,-0.26,0.47
0.86,-0.26,0.48
0.9,-0.25,0.5
0.91,-0.24,0.52
0.89,-0.22,0.56
0.86,-0.23,0.57
0.84,-0.22,0.57
0.8,-0.2,0.58
0.76,-0.22,0.59
0.74,-0.24,0.59
0.76,-0.24,0.58
0.82,-0.24,0.56
0.88,-0.23,0.56
0.9,-0.24,0.55
0.88,-0.22,0.51
0.86,-0.21,0.48
0.86,-0.23,0.45
0.84,-0.22,0.44
0.81,-0.22,0.43
0.81,-0.25,0.42
0.83,-0.28,0.44
0.86,-0.32,0.43
0.89,-0.36,0.41
0.9,-0.38,0.4
0.91,-0.39,0.38
0.93,-0.4,0.35
0.93,-0.42,0.35
1,-0.44,0.37
1.04,-0.5,0.35
1.01,-0.56,0.33
1.03,-0.63,0.26
1.05,-0.65,0.23
1.06,-0.65,0.23
1.04,-0.65,0.24
1.01,-0.65,0.27
0.98,-0.66,0.28
0.94,-0.68,0.27
0.91,-0.71,0.25
0.9,-0.74,0.22
0.9,-0.77,0.19
0.87,-0.8,0.17
0.83,-0.82,0.13
0.79,-0.83,0.12
0.76,-0.84,0.11
0.73,-0.84,0.1
0.7,-0.82,0.11
0.7,-0.79,0.12
0.69,-0.78,0.13
0.7,-0.77,0.13
0.73,-0.75,0.12
0.72,-0.74,0.1
0.7,-0.73,0.07
0.69,-0.72,0.05
0.67,-0.7,0.03
0.64,-0.67,0.02
0.62,-0.65,0.02
0.6,-0.65,0.03
0.65,-0.63,0.03
0.68,-0.63,0.02
0.71,-0.62,0
0.75,-0.61,-0.02
0.79,-0.6,-0.04
0.81,-0.61,-0.05
0.82,-0.6,-0.04
0.82,-0.6,-0.04
0.83,-0.6,-0.04
0.86,-0.6,-0.03
0.89,-0.61,-0.03
0.91,-0.62,-0.04
0.93,-0.62,-0.05
0.95,-0.62,-0.05
0.96,-0.63,-0.05
0.96,-0.63,-0.05
0.97,-0.63,-0.05
0.96,-0.63,-0.04
0.95,-0.63,-0.03
0.93,-0.63,-0.01
0.91,-0.63,0.01
0.9,-0.63,0.01
0.89,-0.62,0.01
0.87,-0.62,0.02
0.85,-0.61,0.01
0.84,-0.61,0.01
0.8,-0.6,0
0.78,-0.6,-0.01
0.76,-0.59,0
0.74,-0.59,0
0.74,-0.6,-0.01
0.75,-0.61,-0.01
0.74,-0.61,-0.01
0.72,-0.61,-0.01
0.7,-0.6,-0.01
0.69,-0.6,-0.01
0.67,-0.59,-0.01
0.65,-0.58,-0.01
0.64,-0.58,-0.01
0.64,-0.57,-0.01
0.67,-0.57,-0.02
0.7,-0.57,-0.03
0.73,-0.58,-0.04
0.74,-0.59,-0.04
0.74,-0.6,-0.03
0.75,-0.61,-0.03
0.76,-0.63,-0.03
0.78,-0.63,-0.04
0.8,-0.65,-0.04
0.82,-0.67,-0.05
0.82,-0.69,-0.05
0.83,-0.71,-0.07
0.84,-0.77,-0.07
0.82,-0.79,-0.07
0.82,-0.81,-0.08
0.83,-0.83,-0.07
0.84,-0.83,-0.06
0.82,-0.81,-0.06
0.79,-0.78,-0.05
0.75,-0.74,-0.06
0.72,-0.69,-0.07
0.72,-0.64,-0.09
0.72,-0.6,-0.11
0.72,-0.58,-0.12
0.73,-0.56,-0.12
0.75,-0.55,-0.11
0.76,-0.56,-0.1
0.77,-0.56,-0.1
0.77,-0.57,-0.09
0.76,-0.58,-0.09
0.75,-0.59,-0.09
0.72,-0.6,-0.08
0.68,-0.63,-0.02
0.66,-0.68,0.1
0.65,-0.75,0.24
0.63,-0.79,0.33
0.61,-0.81,0.39
0.55,-0.78,0.54
0.39,-0.8,0.63
0.4,-0.86,0.73
0.35,-0.91,0.86
0.26,-0.94,1.03
0.3,-1.11,1.14
0.3,-1.36,1.22
0.19,-1.47,1.35
0.05,-1.55,1.49
-0.12,-1.6,1.64
-0.17,-1.72,1.75
-0.16,-1.98,1.79
-0.19,-2.1,1.88
-0.23,-2.1,1.92
-0.24,-2.21,1.82
-0.24,-2.35,1.71
-0.25,-2.33,1.68
-0.22,-2.28,1.66
-0.18,-2.37,1.59
-0.13,-2.49,1.51
-0.07,-2.52,1.4
-0.02,-2.52,1.29
0.03,-2.52,1.17
0.1,-2.54,1.03
0.18,-2.63,0.88
0.27,-2.67,0.68
0.38,-2.54,0.38
0.46,-2.16,0.32
0.48,-2.03,0.24
0.52,-1.9,0.16
0.53,-1.76,0.09
0.58,-1.61,0
0.61,-1.43,-0.06
0.6,-1.24,-0.13
0.59,-1.07,-0.25
0.59,-0.88,-0.36
0.56,-0.7,-0.41
0.57,-0.58,-0.43
0.62,-0.48,-0.45
0.6,-0.37,-0.51
0.54,-0.22,-0.55
0.43,-0.02,-0.62
0.32,0.23,-0.67
0.23,0.43,-0.65
0.18,0.48,-0.59
0.22,0.46,-0.48
0.19,0.46,-0.33
0.18,0.47,-0.21
0.23,0.44,-0.11
0.26,0.39,-0.02
0.28,0.34,0.02
0.26,0.28,0.06
0.22,0.25,0.12
0.18,0.16,0.32
0.16,0.16,0.46
0.19,0.16,0.61
0.21,0.16,0.75
0.22,0.18,0.87
0.2,0.19,0.93
0.19,0.22,0.96
0.15,0.22,0.98
0.11,0.22,1.04
0.08,0.25,1.13
0.06,0.28,1.21
0.04,0.3,1.27
0.04,0.31,1.31
0.06,0.31,1.31
0.07,0.29,1.3
0.07,0.27,1.29
0.06,0.27,1.26
0.06,0.26,1.23
0.06,0.24,1.22
0.06,0.22,1.19
0.06,0.19,1.15
0.05,0.15,1.15
0.01,0.13,1.18
0,0.1,1.23
0.01,0.07,1.27
0.02,0.06,1.27
0,0.06,1.16
-0.08,0.06,1.1
-0.13,0.06,1.07
-0.16,0.06,1.06
-0.15,0.05,1.04
-0.11,0.06,1.02
-0.08,0.06,1.01
-0.05,0.06,0.98
-0.03,0.06,0.95
-0.01,0.06,0.91
0.01,0.07,0.9
0.02,0.06,0.9
0.02,0.06,0.89
0.01,0.06,0.88
0,0.05,0.86
-0.01,0.03,0.85
0,0.01,0.83
0.02,0,0.82
0.04,-0.02,0.81
0.05,-0.03,0.8
0.07,-0.04,0.79
0.08,-0.02,0.78
0.09,-0.01,0.77
0.09,-0.01,0.77
0.09,0.01,0.76
0.08,0.03,0.76
0.08,0.04,0.76
0.06,0.04,0.74
0.05,0.03,0.7
0.05,0,0.64
0.04,-0.04,0.59
0.03,-0.08,0.55
0.05,-0.09,0.52
0.07,-0.09,0.48
0.09,-0.11,0.43
0.11,-0.14,0.4
0.11,-0.15,0.35
0.12,-0.17,0.3
0.12,-0.19,0.26
0.14,-0.22,0.23
0.17,-0.27,0.25
0.23,-0.33,0.28
0.3,-0.36,0.31
0.32,-0.39,0.33
0.31,-0.45,0.34
0.29,-0.48,0.35
0.27,-0.44,0.34
0.25,-0.48,0.33
0.25,-0.57,0.37
0.26,-0.64,0.42
0.27,-0.7,0.47
0.31,-0.71,0.48
0.32,-0.78,0.46
0.35,-0.89,0.44
0.34,-0.91,0.47
0.39,-0.94,0.49
0.46,-1.02,0.51
0.48,-1.12,0.52
0.49,-1.15,0.54
0.5,-1.15,0.58
0.49,-1.16,0.58
0.47,-1.18,0.56
0.46,-1.23,0.6
0.5,-1.31,0.67
0.56,-1.35,0.71
0.6,-1.36,0.77
0.62,-1.37,0.83
0.63,-1.36,0.86
0.59,-1.32,0.83
0.53,-1.29,0.79
0.5,-1.3,0.78
0.52,-1.36,0.79
0.54,-1.41,0.82
0.58,-1.45,0.87
0.61,-1.46,0.9
0.6,-1.43,0.92
0.58,-1.38,0.93
0.54,-1.32,0.9
0.51,-1.27,0.84
0.51,-1.28,0.84
0.53,-1.29,0.83
0.55,-1.28,0.8
0.56,-1.26,0.78
0.57,-1.23,0.76
0.57,-1.19,0.75
0.53,-1.15,0.72
0.49,-1.12,0.69
0.45,-1.1,0.66
0.44,-1.1,0.63
0.44,-1.1,0.6
0.44,-1.09,0.58
0.46,-1.08,0.57
0.51,-1.09,0.57
0.48,-1.07,0.57
0.49,-1.05,0.57
0.52,-1.04,0.71
0.43,-1.02,0.98
0.38,-0.99,1.02
0.26,-0.98,0.83
0.06,-0.95,0.68
0,-0.92,0.55
0.1,-0.93,0.44
0.19,-0.96,0.39
0.22,-1.01,0.39
0.23,-1.03,0.37
0.19,-1.04,0.33
0.15,-1.03,0.31
0.12,-1.05,0.36
0.11,-1.07,0.46
0.09,-1.11,0.57
0.05,-1.16,0.69
-0.04,-1.21,0.8
-0.12,-1.23,0.87
-0.16,-1.25,0.91
-0.09,-1.27,0.99
0.06,-1.26,1.16
0.17,-1.28,1.35
0.16,-1.35,1.49
0.03,-1.46,1.57
-0.15,-1.57,1.56
-0.21,-1.63,1.55
-0.18,-1.68,1.56
-0.19,-1.75,1.61
-0.22,-1.81,1.67
-0.24,-1.92,1.68
-0.26,-2.06,1.65
-0.28,-2.16,1.57
-0.28,-2.19,1.49
-0.26,-2.19,1.42
-0.19,-2.2,1.35
-0.12,-2.18,1.14
0.02,-2.15,1.02
0.1,-2.15,0.91
0.19,-2.11,0.75
0.3,-2.06,0.58
0.39,-2,0.46
0.4,-1.9,0.39
0.33,-1.76,0.31
0.34,-1.6,0.2
0.4,-1.42,0.08
0.37,-1.24,-0.03
0.33,-1.06,-0.08
0.33,-0.9,-0.15
0.4,-0.77,-0.19
0.5,-0.67,-0.17
0.54,-0.58,-0.23
0.52,-0.48,-0.31
0.54,-0.39,-0.34
0.52,-0.3,-0.37
0.48,-0.17,-0.42
0.46,-0.06,-0.47
0.4,0,-0.48
0.36,0.06,-0.46
0.33,0.14,-0.41
0.28,0.19,-0.34
0.28,0.21,-0.3
0.3,0.24,-0.1
0.21,0.26,0.02
0.16,0.27,0.15
0.08,0.26,0.29
0.08,0.23,0.42
0.09,0.19,0.52
0.08,0.15,0.59
0.03,0.15,0.67
-0.03,0.15,0.75
-0.08,0.15,0.83
-0.14,0.15,0.93
-0.15,0.15,1.03
-0.16,0.13,1.08
-0.18,0.12,1.09
-0.19,0.11,1.08
-0.19,0.09,1.07
-0.19,0.08,1.08
-0.19,0.08,1.12
-0.18,0.08,1.17
-0.18,0.08,1.2
-0.17,0.09,1.19
-0.15,0.1,1.17
-0.12,0.08,1.14
-0.1,0.06,1.1
-0.1,0.06,1.08
-0.09,0.07,1.07
-0.08,0.07,1.04
-0.04,0.09,1.03
-0.03,0.1,1.02
-0.02,0.11,1.02
-0.02,0.11,1.02
-0.03,0.1,1.03
-0.05,0.1,1.03
-0.05,0.09,1.04
-0.05,0.09,1.03
-0.04,0.08,1.02
-0.04,0.08,1.01
-0.04,0.08,1
-0.04,0.07,0.99
-0.03,0.07,1
-0.03,0.08,0.99
-0.02,0.07,0.98
-0.01,0.07,0.98
-0.01,0.08,0.98
0,0.09,0.98
0,0.09,0.98
-0.01,0.1,0.97
-0.01,0.11,0.95
-0.01,0.11,0.94
0,0.09,0.94
0,0.08,0.94
0,0.08,0.93
0,0.08,0.93
0,0.08,0.93
-0.01,0.08,0.91
-0.01,0.08,0.89
0,0.08,0.88
0,0.07,0.86
0,0.07,0.85
0,0.06,0.84
0.01,0.06,0.85
0,0.07,0.83
0,0.07,0.81
0.01,0.06,0.78
0.01,0.05,0.74
0.02,0.04,0.7
0.03,0.04,0.65
0.04,0.04,0.6
0.05,0.04,0.56
0.07,0.04,0.52
0.1,0.04,0.48
0.12,0.02,0.44
0.13,-0.01,0.41
0.13,-0.04,0.38
0.14,-0.06,0.32
0.14,-0.11,0.29
0.13,-0.15,0.29
0.14,-0.18,0.33
0.17,-0.18,0.3
0.18,-0.29,0.27
0.18,-0.36,0.26
0.17,-0.41,0.27
0.14,-0.48,0.31
0.14,-0.52,0.39
0.18,-0.52,0.44
0.17,-0.56,0.47
0.19,-0.61,0.49
0.22,-0.68,0.49
0.23,-0.75,0.45
0.22,-0.82,0.41
0.22,-0.89,0.46
0.28,-0.93,0.6
0.36,-0.99,0.67
0.41,-1.04,0.67
0.38,-1.02,0.66
0.38,-1.07,0.59
0.34,-1.19,0.52
0.28,-1.24,0.56
0.3,-1.26,0.69
0.33,-1.3,0.75
0.4,-1.32,0.76
0.43,-1.34,0.8
0.44,-1.35,0.85
0.43,-1.34,0.87
0.37,-1.3,0.84
0.3,-1.25,0.89
0.28,-1.26,0.92
0.29,-1.29,0.93
0.32,-1.33,0.96
0.37,-1.36,0.97
0.4,-1.35,0.96
0.4,-1.31,0.94
0.39,-1.27,0.89
0.37,-1.25,0.85
0.36,-1.26,0.84
0.39,-1.27,0.86
0.42,-1.28,0.86
0.42,-1.27,0.82
0.4,-1.3,0.77
0.39,-1.28,0.74
0.42,-1.2,0.72
0.43,-1.17,0.68
0.41,-1.16,0.66
0.37,-1.16,0.65
0.36,-1.13,0.63
0.38,-1.13,0.61
0.39,-1.14,0.58
0.41,-1.13,0.55
0.44,-1.12,0.54
0.47,-1.11,0.53
0.47,-1.14,0.47
0.53,-1.21,1.21
0.64,-1.29,1.39
0.47,-1.1,1.09
0.12,-0.91,0.74
-0.04,-0.95,0.53
-0.1,-0.95,0.46
-0.02,-0.99,0.42
0.22,-1.03,0.37
0.41,-1.02,0.32
0.45,-1.02,0.24
0.42,-0.99,0.15
0.38,-0.97,0.08
0.36,-0.96,0.02
0.36,-0.93,-0.01
0.35,-0.92,-0.02
0.3,-0.91,0.01
0.27,-0.91,0.05
0.24,-0.91,0.09
0.21,-0.91,0.13
0.2,-0.92,0.15
0.2,-0.94,0.16
0.19,-0.95,0.2
0.19,-0.99,0.28
0.21,-1.02,0.37
0.23,-1.02,0.45
0.24,-1.04,0.52
0.21,-1.09,0.54
0.13,-1.16,0.63
0.15,-1.19,0.79
0.16,-1.22,0.95
0.2,-1.22,1.07
0.21,-1.22,1.17
0.12,-1.24,1.23
0.06,-1.24,1.27
0.04,-1.26,1.32
0,-1.32,1.36
0.03,-1.4,1.42
0.08,-1.5,1.46
0.06,-1.58,1.46
0.03,-1.64,1.48
0.01,-1.71,1.52
0.02,-1.76,1.52
0.04,-1.79,1.48
0.05,-1.81,1.45
0.03,-1.83,1.41
0.03,-1.85,1.37
0.05,-1.87,1.3
0.06,-1.89,1.22
0.09,-1.91,1.14
0.12,-1.93,1.08
0.16,-1.91,0.99
0.18,-1.84,0.88
0.24,-1.77,0.68
0.37,-1.71,0.6
0.37,-1.65,0.51
0.36,-1.53,0.43
0.39,-1.4,0.34
0.44,-1.29,0.2
0.52,-1.14,0.08
0.51,-0.97,0.03
0.44,-0.82,0.03
0.42,-0.69,0.01
0.41,-0.66,-0.02
0.41,-0.64,-0.06
0.43,-0.51,-0.14
0.41,-0.33,-0.25
0.42,-0.21,-0.29
0.35,-0.12,-0.28
0.29,-0.01,-0.27
0.25,0.05,-0.25
0.23,0.03,-0.22
0.23,0.06,-0.21
0.21,0.12,-0.14
0.18,0.11,-0.02
0.16,0.11,0.14
-0.03,0.21,0.42
-0.06,0.19,0.51
-0.08,0.15,0.64
-0.07,0.11,0.74
-0.05,0.08,0.79
-0.04,0.1,0.85
-0.02,0.13,0.91
0.02,0.15,0.96
0.04,0.13,1
0.05,0.11,1.03
0.06,0.11,1.05
0.07,0.13,1.08
0.07,0.13,1.1
0.07,0.13,1.12
0.07,0.12,1.13
0.08,0.11,1.12
0.11,0.12,1.13
0.13,0.14,1.14
0.14,0.13,1.14
0.13,0.13,1.14
0.12,0.13,1.14
0.11,0.13,1.14
0.12,0.13,1.12
0.13,0.12,1.09
0.14,0.13,1.06
0.16,0.13,1.02
0.19,0.14,0.99
0.19,0.14,0.95
0.18,0.14,0.92
0.18,0.13,0.9
0.17,0.12,0.88
0.18,0.13,0.86
0.17,0.13,0.83
0.17,0.13,0.8
0.17,0.13,0.76
0.16,0.13,0.72
0.15,0.13,0.67
0.14,0.13,0.62
0.14,0.12,0.58
0.14,0.12,0.55
0.14,0.11,0.52
0.14,0.1,0.49
0.14,0.08,0.46
0.14,0.08,0.42
0.13,0.08,0.38
0.13,0.07,0.34
0.13,0.05,0.29
0.11,0,0.27
0.11,-0.06,0.3
0.14,-0.09,0.33
0.17,-0.12,0.34
0.19,-0.14,0.29
0.21,-0.17,0.27
0.24,-0.19,0.26
0.24,-0.27,0.26
0.23,-0.41,0.3
0.24,-0.51,0.38
0.26,-0.56,0.43
0.27,-0.55,0.48
0.27,-0.53,0.49
0.27,-0.55,0.49
0.27,-0.59,0.49
0.26,-0.66,0.49
0.27,-0.8,0.53
0.3,-0.9,0.61
0.34,-0.91,0.64
0.37,-0.91,0.63
0.38,-0.9,0.66
0.4,-0.88,0.68
0.43,-0.91,0.67
0.42,-0.98,0.65
0.42,-1.03,0.64
0.42,-1.08,0.69
0.46,-1.18,0.78
0.54,-1.19,0.81
0.59,-1.16,0.79
0.61,-1.2,0.77
0.61,-1.22,0.76
0.56,-1.24,0.73
0.59,-1.36,0.88
0.6,-1.38,0.87
0.62,-1.39,0.87
0.65,-1.38,0.89
0.66,-1.36,0.88
0.64,-1.33,0.85
0.62,-1.31,0.85
0.63,-1.32,0.84
0.63,-1.31,0.83
0.64,-1.32,0.83
0.63,-1.33,0.82
0.61,-1.33,0.81
0.59,-1.29,0.82
0.57,-1.24,0.81
0.54,-1.19,0.78
0.51,-1.16,0.73
0.47,-1.17,0.69
0.45,-1.17,0.68
0.45,-1.14,0.66
0.44,-1.13,0.63
0.47,-1.12,0.59
0.51,-1.12,0.57
0.47,-1.09,0.55
0.46,-1.06,0.6
0.75,-1,0.74
0.98,-1.02,0.76
0.44,-1.15,0.66
-0.31,-1.16,0.69
-0.29,-0.98,0.64
0.01,-0.87,0.42
0.05,-0.91,0.26
0.02,-0.94,0.26
0.01,-0.94,0.32
0.04,-0.92,0.39
0.12,-0.91,0.41
0.27,-0.87,0.38
0.38,-0.85,0.31
0.39,-0.85,0.24
0.37,-0.83,0.18
0.35,-0.82,0.12
0.33,-0.83,0.08
0.3,-0.83,0.07
0.3,-0.84,0.09
0.32,-0.85,0.11
0.33,-0.87,0.14
0.32,-0.88,0.16
0.3,-0.89,0.18
0.29,-0.91,0.2
0.27,-0.93,0.29
0.25,-0.99,0.32
0.28,-1.03,0.36
0.25,-1.07,0.48
0.24,-1.12,0.63
0.28,-1.19,0.7
0.29,-1.22,0.72
0.27,-1.19,0.75
0.3,-1.18,0.84
0.29,-1.21,1.03
0.32,-1.27,1.3
0.33,-1.36,1.5
0.23,-1.45,1.58
0.13,-1.49,1.6
0.05,-1.45,1.57
-0.08,-1.47,1.54
-0.16,-1.6,1.55
-0.18,-1.77,1.58
-0.19,-1.9,1.61
-0.19,-1.95,1.63
-0.19,-1.93,1.62
-0.15,-1.92,1.56
-0.11,-1.95,1.47
-0.08,-2.02,1.36
-0.04,-2.08,1.21
-0.01,-2.1,1.09
0.03,-2.06,1.01
0.11,-1.91,0.84
0.27,-1.87,0.77
0.3,-1.82,0.7
0.32,-1.73,0.58
0.36,-1.64,0.47
0.35,-1.58,0.4
0.37,-1.51,0.3
0.46,-1.43,0.21
0.51,-1.37,0.16
0.5,-1.31,0.11
0.55,-1.18,0.03
0.63,-1.06,-0.01
0.65,-0.95,-0.02
0.63,-0.81,-0.06
0.61,-0.62,-0.11
0.58,-0.5,-0.15
0.49,-0.45,-0.18
0.48,-0.36,-0.17
0.46,-0.28,-0.16
0.42,-0.23,-0.14
0.4,-0.12,-0.15
0.33,-0.02,-0.16
0.23,0.01,-0.15
0.2,0.06,-0.17
0.23,0.14,-0.14
0.21,0.16,-0.08
0.16,0.17,0.02
0.05,0.21,0.07
0.03,0.19,0.15
0.03,0.18,0.24
0.01,0.16,0.34
-0.01,0.13,0.44
-0.03,0.12,0.53
-0.03,0.11,0.61
-0.03,0.09,0.7
-0.02,0.09,0.8
-0.01,0.11,0.89
-0.01,0.12,0.97
-0.03,0.09,1.05
-0.04,0.08,1.14
-0.05,0.08,1.18
-0.06,0.07,1.18
-0.07,0.06,1.17
-0.08,0.06,1.19
-0.05,0.06,1.22
-0.02,0.07,1.24
-0.01,0.09,1.24
-0.01,0.1,1.22
-0.02,0.1,1.21
-0.02,0.08,1.18
-0.01,0.07,1.14
0,0.06,1.13
0.02,0.06,1.12
0.03,0.09,1.11
0.04,0.08,1.09
0.04,0.09,1.06
0.04,0.09,1.04
0.05,0.08,1.02
0.05,0.07,1.01
0.04,0.06,1.01
0.03,0.07,0.99
0.02,0.08,0.97
0.04,0.09,0.95
0.05,0.1,0.93
0.06,0.1,0.92
0.06,0.09,0.91
0.05,0.08,0.89
0.05,0.08,0.87
0.04,0.09,0.85
0.04,0.08,0.84
0.04,0.08,0.82
0.05,0.09,0.8
0.06,0.09,0.76
0.07,0.09,0.73
0.08,0.09,0.69
0.09,0.09,0.64
0.1,0.09,0.59
0.12,0.09,0.53
0.14,0.09,0.44
0.17,0.04,0.4
0.17,0,0.37
0.19,-0.02,0.34
0.19,-0.04,0.31
0.19,-0.07,0.27
0.19,-0.09,0.24
0.2,-0.12,0.23
0.21,-0.17,0.24
0.24,-0.22,0.26
0.26,-0.26,0.29
0.28,-0.3,0.29
0.28,-0.37,0.29
0.26,-0.45,0.31
0.26,-0.46,0.33
0.27,-0.48,0.33
0.25,-0.56,0.36
0.23,-0.61,0.36
0.24,-0.66,0.35
0.24,-0.73,0.4
0.24,-0.77,0.45
0.29,-0.8,0.49
0.28,-0.92,0.51
0.28,-1.06,0.52
0.32,-1.06,0.51
0.3,-1.05,0.48
0.29,-1.08,0.57
0.25,-1.12,0.69
0.34,-1.19,0.78
0.39,-1.29,0.8
0.41,-1.35,0.79
0.4,-1.4,0.75
0.4,-1.45,0.73
0.4,-1.47,0.74
0.4,-1.48,0.78
0.41,-1.46,0.88
0.44,-1.4,0.97
0.48,-1.37,1.01
0.47,-1.4,1.03
0.44,-1.44,1.01
0.41,-1.46,0.98
0.38,-1.49,0.95
0.36,-1.51,0.96
0.35,-1.51,0.97
0.36,-1.48,0.97
0.37,-1.43,0.97
0.38,-1.4,0.95
0.39,-1.38,0.93
0.39,-1.35,0.88
0.36,-1.32,0.83
0.37,-1.31,0.77
0.37,-1.32,0.72
0.33,-1.29,0.68
0.29,-1.15,0.65
0.29,-1.15,0.62
0.32,-1.17,0.59
0.33,-1.16,0.58
0.32,-1.13,0.55
0.37,-1.11,0.51
0.44,-1.11,0.66
0.63,-1.2,0.82
0.63,-1.3,0.79
0.04,-1.28,0.8
-0.38,-1.12,0.79
-0.14,-1.07,0.57
0.01,-1.12,0.4
-0.14,-1.04,0.38
-0.15,-0.97,0.39
-0.12,-0.94,0.43
-0.04,-0.91,0.45
0.09,-0.9,0.4
0.19,-0.89,0.32
0.24,-0.87,0.24
0.25,-0.84,0.19
0.26,-0.84,0.16
0.28,-0.85,0.13
0.29,-0.86,0.13
0.26,-0.86,0.14
0.21,-0.88,0.18
0.14,-0.96,0.33
0.12,-1.02,0.42
0.11,-1.08,0.53
0.11,-1.14,0.66
0.1,-1.23,0.77
0.08,-1.32,0.85
0.07,-1.39,0.91
0.04,-1.43,0.99
0.03,-1.47,1.1
0.02,-1.51,1.21
-0.02,-1.54,1.35
-0.11,-1.57,1.48
-0.16,-1.61,1.51
-0.23,-1.67,1.45
-0.32,-1.75,1.4
-0.35,-1.84,1.39
-0.36,-1.91,1.39
-0.34,-1.94,1.37
-0.3,-1.93,1.35
-0.26,-2,1.34
-0.17,-2.16,1.32
-0.1,-2.27,1.28
-0.06,-2.33,1.2
-0.01,-2.33,1.08
0.05,-2.22,0.98
0.1,-2.08,0.94
0.15,-1.96,0.89
0.18,-2,0.85
0.21,-2.01,0.76
0.24,-1.93,0.64
0.26,-1.81,0.54
0.29,-1.69,0.45
0.35,-1.56,0.35
0.41,-1.46,0.26
0.42,-1.43,0.17
0.43,-1.39,0.06
0.49,-1.24,-0.06
0.61,-0.93,-0.13
0.65,-0.72,-0.15
0.62,-0.65,-0.22
0.6,-0.55,-0.29
0.58,-0.44,-0.3
0.53,-0.36,-0.3
0.51,-0.27,-0.31
0.48,-0.21,-0.3
0.43,-0.14,-0.28
0.45,-0.03,-0.3
0.43,0.03,-0.27
0.38,0.07,-0.21
0.3,0.09,-0.18
0.22,0.08,-0.14
0.14,0.1,-0.02
0.08,0.19,0.38
0.02,0.26,0.54
0,0.29,0.6
-0.05,0.28,0.61
-0.07,0.25,0.58
-0.06,0.17,0.53
-0.04,0.11,0.54
-0.04,0.11,0.63
-0.04,0.15,0.75
-0.04,0.19,0.86
-0.02,0.21,0.94
0.02,0.21,0.97
0.05,0.19,0.98
0.04,0.16,0.98
0.01,0.14,0.96
-0.01,0.14,0.96
-0.03,0.16,0.99
-0.04,0.18,1.03
-0.06,0.18,1.05
-0.06,0.18,1.07
-0.03,0.18,1.08
-0.01,0.17,1.08
-0.01,0.16,1.07
0,0.16,1.05
0.16,-0.01,0.22
0.16,-0.01,0.19
0.18,-0.02,0.19
0.2,-0.05,0.19
0.22,-0.1,0.14
0.22,-0.27,0.15
0.22,-0.36,0.19
0.27,-0.41,0.24
0.32,-0.39,0.28
0.35,-0.38,0.3
0.35,-0.39,0.27
0.32,-0.45,0.22
0.28,-0.53,0.22
0.28,-0.61,0.29
0.31,-0.72,0.35
0.33,-0.81,0.37
0.32,-0.89,0.38
0.29,-0.96,0.39
0.25,-0.97,0.41
0.24,-0.97,0.43
0.24,-1.02,0.47
0.24,-1.05,0.58
0.31,-1.01,0.64
0.46,-1.08,0.59
0.5,-1.29,0.57
0.47,-1.44,0.64
0.53,-1.51,0.7
0.58,-1.49,0.75
0.6,-1.46,0.79
0.57,-1.43,0.77
0.54,-1.4,0.79
0.6,-1.52,0.85
0.66,-1.61,0.89
0.69,-1.64,0.95
0.71,-1.6,1
0.69,-1.56,1.01
0.67,-1.53,1.03
0.66,-1.49,1.05
0.64,-1.44,1.04
0.62,-1.41,1.01
0.6,-1.39,0.97
0.56,-1.39,0.93
0.52,-1.38,0.91
0.5,-1.37,0.88
0.51,-1.37,0.84
0.51,-1.35,0.83
0.49,-1.32,0.83
0.46,-1.28,0.83
0.44,-1.23,0.81
0.42,-1.22,0.78
0.42,-1.2,0.75
0.39,-1.15,0.74
0.47,-1.1,0.8
0.77,-0.98,1.1
0.72,-1.03,1.42
0.35,-1.32,1.56
-0.04,-1.41,0.72
-0.12,-0.96,0.51
-0.36,-0.96,0.48
-0.41,-1.04,0.46
-0.24,-1.05,0.42
0.03,-1.01,0.41
0.3,-0.94,0.37
0.43,-0.91,0.3
0.33,-0.93,0.24
0.24,-0.93,0.15
0.23,-0.91,0.05
0.22,-0.89,0.01
0.19,-0.9,0.02
0.16,-0.91,0.06
0.12,-0.92,0.14
0.08,-0.94,0.23
0.01,-0.96,0.34
-0.03,-0.97,0.4
0,-1,0.46
0.04,-1.06,0.57
0.1,-1.14,0.67
0.08,-1.23,0.77
0,-1.29,0.88
-0.05,-1.37,1
-0.09,-1.43,1.17
-0.17,-1.41,1.33
-0.34,-1.41,1.57
-0.31,-1.43,1.65
-0.27,-1.5,1.67
-0.3,-1.63,1.66
-0.36,-1.75,1.62
-0.4,-1.87,1.57
-0.38,-1.98,1.57
-0.32,-2.06,1.58
-0.28,-2.1,1.55
-0.26,-2.12,1.49
-0.21,-2.1,1.41
-0.12,-2.11,1.34
-0.04,-2.16,1.26
0.01,-2.19,1.16
0.04,-2.19,1.07
0.11,-2.2,0.97
0.19,-2.17,0.87
0.23,-2.06,0.79
0.25,-1.94,0.73
0.26,-1.88,0.64
0.27,-1.84,0.54
0.3,-1.77,0.45
0.33,-1.67,0.35
0.37,-1.52,0.23
0.41,-1.35,0.13
0.47,-1.18,0.04
0.54,-1.02,-0.03
0.5,-0.83,-0.04
0.46,-0.81,-0.1
0.44,-0.7,-0.18
0.43,-0.54,-0.22
0.42,-0.42,-0.27
0.4,-0.31,-0.35
0.38,-0.17,-0.43
0.39,-0.04,-0.48
0.43,0.02,-0.48
0.4,0,-0.4
0.31,-0.03,-0.32
0.23,-0.02,-0.3
0.23,0.08,-0.3
0.26,0.21,-0.26
0.23,0.27,-0.19
0.17,0.29,-0.1
0.16,0.27,0.07
0.21,0.22,0.24
0.22,0.19,0.34
0.19,0.2,0.38
0.15,0.21,0.44
0.08,0.2,0.55
0.01,0.19,0.68
-0.03,0.2,0.79
-0.05,0.19,0.85
-0.05,0.15,0.89
-0.02,0.15,1.02
0.02,0.15,1.11
0.01,0.15,1.16
-0.02,0.16,1.18
-0.04,0.16,1.2
-0.07,0.16,1.2
-0.09,0.16,1.19
-0.11,0.14,1.19
-0.09,0.12,1.2
-0.08,0.11,1.21
-0.07,0.12,1.2
-0.06,0.14,1.2
-0.05,0.14,1.19
-0.05,0.13,1.17
-0.04,0.12,1.16
-0.05,0.12,1.14
-0.04,0.12,1.12
-0.04,0.11,1.11
-0.03,0.11,1.08
-0.02,0.12,1.05
-0.01,0.13,1.02
0,0.13,1
0.01,0.13,0.99
0.01,0.13,0.97
0.01,0.13,0.95
0.01,0.14,0.92
0.02,0.14,0.87
0.04,0.14,0.85
0.04,0.14,0.81
0.05,0.14,0.77
0.06,0.13,0.72
0.05,0.12,0.67
0.06,0.11,0.62
0.07,0.12,0.58
0.08,0.11,0.55
0.08,0.11,0.51
0.08,0.1,0.46
0.08,0.09,0.41
0.09,0.06,0.36
0.09,0.03,0.33
0.08,0,0.32
0.08,-0.01,0.32
0.11,-0.02,0.31
0.11,-0.07,0.3
0.11,-0.13,0.28
0.13,-0.15,0.24
0.14,-0.18,0.23
0.13,-0.23,0.22
0.16,-0.26,0.23
0.21,-0.28,0.25
0.23,-0.33,0.28
0.25,-0.37,0.29
0.25,-0.53,0.24
0.19,-0.62,0.26
0.14,-0.72,0.31
0.16,-0.82,0.39
0.22,-0.82,0.47
0.27,-0.81,0.5
0.28,-0.84,0.49
0.3,-0.84,0.48
0.31,-0.91,0.45
0.34,-1.01,0.51
0.39,-1.1,0.59
0.45,-1.21,0.6
0.5,-1.3,0.6
0.44,-1.31,0.59
0.41,-1.29,0.57
0.39,-1.33,0.54
0.37,-1.38,0.56
0.39,-1.47,0.69
0.49,-1.55,0.85
0.59,-1.58,0.92
0.65,-1.56,0.92
0.68,-1.53,0.89
0.68,-1.52,0.85
0.68,-1.5,0.83
0.64,-1.49,0.85
0.6,-1.51,0.92
0.62,-1.55,1.05
0.72,-1.52,1.05
0.71,-1.49,1.04
0.69,-1.46,1.04
0.67,-1.38,1.06
0.64,-1.3,1.05
0.6,-1.26,1
0.56,-1.25,0.96
0.55,-1.25,0.93
0.57,-1.24,0.9
0.58,-1.2,0.89
0.57,-1.16,0.88
0.55,-1.16,0.85
0.53,-1.14,0.8
0.52,-1.12,0.75
0.53,-1.17,0.82
0.56,-1.15,0.9
0.83,-1.03,0.93
0.85,-1.12,1.01
0.06,-1.28,0.91
-0.33,-1.15,0.69
-0.15,-0.97,0.48
-0.09,-1.02,0.35
-0.05,-1.07,0.33
0.04,-1.05,0.35
0.19,-1.03,0.38
0.28,-0.98,0.33
0.32,-0.94,0.23
0.3,-0.93,0.13
0.29,-0.91,0.05
0.27,-0.9,0.02
0.25,-0.88,0.03
0.24,-0.86,0.04
0.24,-0.85,0.06
0.25,-0.86,0.07
0.27,-0.86,0.07
0.28,-0.87,0.08
0.28,-0.88,0.1
0.29,-0.9,0.14
0.28,-0.91,0.18
0.3,-0.93,0.21
0.32,-0.96,0.24
0.31,-1.02,0.31
0.29,-1.06,0.39
0.29,-1.07,0.46
0.29,-1.09,0.54
0.29,-1.12,0.69
0.24,-1.15,0.85
0.14,-1.21,0.97
0.15,-1.23,1.08
0.22,-1.19,1.21
0.22,-1.18,1.34
0.1,-1.26,1.52
-0.15,-1.32,1.53
-0.13,-1.38,1.54
-0.18,-1.5,1.53
-0.29,-1.59,1.52
-0.34,-1.68,1.52
-0.3,-1.77,1.52
-0.19,-1.88,1.52
-0.07,-1.98,1.5
0.04,-2.05,1.45
0.11,-2.06,1.34
0.11,-2.01,1.2
0.12,-1.96,1.08
0.14,-1.91,1.01
0.17,-1.89,0.97
0.21,-1.87,0.93
0.25,-1.84,0.89
0.29,-1.79,0.82
0.32,-1.72,0.72
0.31,-1.67,0.61
0.31,-1.65,0.52
0.33,-1.61,0.41
0.37,-1.5,0.31
0.42,-1.35,0.25
0.4,-1.21,0.21
0.39,-1.03,0.16
0.42,-0.88,0.1
0.43,-0.81,0.06
0.51,-0.69,0.02
0.47,-0.61,-0.07
0.46,-0.53,-0.16
0.48,-0.43,-0.19
0.5,-0.29,-0.22
0.5,-0.2,-0.25
0.46,-0.18,-0.22
0.44,-0.12,-0.2
0.4,-0.08,-0.16
0.32,-0.04,-0.14
0.29,0.03,-0.09
0.24,0.06,-0.05
0.22,0.06,-0.01
0.26,0.1,0.08
0.25,0.11,0.17
0.22,0.11,0.27
0.16,0.12,0.39
0.09,0.13,0.49
0.03,0.11,0.56
-0.02,0.11,0.62
-0.05,0.16,0.7
-0.07,0.18,0.76
-0.09,0.16,0.79
-0.07,0.15,0.81
-0.04,0.16,0.93
0,0.08,0.97
-0.04,0.06,1
-0.1,0.08,1.05
-0.14,0.11,1.09
-0.14,0.13,1.11
-0.12,0.12,1.12
-0.11,0.11,1.12
-0.1,0.1,1.11
-0.09,0.09,1.11
-0.08,0.08,1.1
-0.08,0.08,1.08
-0.06,0.08,1.06
-0.04,0.09,1.04
-0.03,0.09,1.02
-0.02,0.1,1
-0.01,0.1,0.96
0,0.09,0.91
0.02,0.09,0.87
0.03,0.09,0.83
0.04,0.09,0.79
0.05,0.09,0.75
0.05,0.09,0.72
0.06,0.09,0.69
0.08,0.09,0.67
0.09,0.08,0.64
0.09,0.08,0.6
0.08,0.07,0.5
0.07,0.07,0.44
0.07,0.05,0.39
0.07,0.03,0.36
0.07,0.02,0.37
0.08,-0.01,0.4
0.1,-0.07,0.42
0.1,-0.12,0.4
0.1,-0.14,0.38
0.12,-0.14,0.35
0.14,-0.16,0.32
0.11,-0.24,0.3
0.08,-0.32,0.34
0.12,-0.35,0.37
0.17,-0.38,0.38
0.21,-0.42,0.39
0.22,-0.48,0.4
0.22,-0.54,0.38
0.21,-0.57,0.32
0.19,-0.6,0.26
0.17,-0.66,0.28
0.21,-0.74,0.36
0.3,-0.75,0.41
0.37,-0.79,0.4
0.37,-0.89,0.37
0.36,-0.97,0.33
0.36,-1.05,0.36
0.22,-1.03,0.49
0.2,-1.07,0.62
0.31,-1.2,0.7
0.3,-1.3,0.77
0.28,-1.35,0.8
0.21,-1.37,0.8
0.19,-1.39,0.79
0.17,-1.44,0.79
0.15,-1.49,0.83
0.17,-1.5,0.89
0.2,-1.49,0.95
0.23,-1.5,1.02
0.26,-1.54,1.06
0.27,-1.54,1.06
0.24,-1.52,1.05
0.2,-1.51,1.06
0.17,-1.5,1.1
0.15,-1.47,1.09
0.17,-1.4,1.07
0.21,-1.34,1.06
0.21,-1.35,1.07
0.22,-1.36,1.09
0.24,-1.34,1.08
0.23,-1.31,1.05
0.2,-1.28,1.01
0.18,-1.18,0.95
0.2,-1.16,0.92
0.26,-1.16,0.87
0.28,-1.14,0.83
0.27,-1.11,0.78
0.3,-1.09,0.74
0.32,-1.12,0.77
0.32,-1.14,0.9
0.76,-1.2,0.84
0.61,-1.37,0.89
-0.47,-1.44,1.03
-0.55,-1.18,0.85
-0.08,-0.98,0.56
-0.06,-1.1,0.36
-0.11,-1.14,0.36
-0.12,-1.08,0.43
-0.03,-1.03,0.46
0.14,-0.97,0.44
0.21,-0.93,0.38
0.19,-0.93,0.31
0.25,-0.91,0.21
0.3,-0.87,0.14
0.3,-0.84,0.09
0.28,-0.83,0.08
0.28,-0.83,0.09
0.28,-0.83,0.09
0.27,-0.84,0.16
0.22,-0.85,0.2
0.17,-0.86,0.25
0.15,-0.89,0.33
0.13,-0.93,0.44
0.15,-1.01,0.53
0.17,-1.13,0.59
0.15,-1.26,0.7
0.12,-1.36,0.79
0.05,-1.41,0.86
-0.07,-1.36,0.92
-0.14,-1.26,1.1
-0.17,-1.24,1.44
-0.18,-1.24,1.71
-0.27,-1.29,1.78
-0.39,-1.38,1.74
-0.46,-1.42,1.65
-0.51,-1.47,1.57
-0.52,-1.55,1.58
-0.51,-1.62,1.67
-0.46,-1.69,1.76
-0.4,-1.81,1.75
-0.33,-1.93,1.64
-0.25,-1.97,1.52
-0.19,-1.97,1.41
-0.15,-2.01,1.33
-0.08,-2.09,1.21
0.06,-2.16,1.15
0.1,-2.14,1.07
0.12,-2.08,0.97
0.15,-2.02,0.86
0.23,-1.96,0.71
0.31,-1.89,0.56
0.38,-1.78,0.45
0.45,-1.63,0.41
0.47,-1.5,0.37
0.33,-1.41,0.31
0.18,-1.32,0.25
0.31,-1.2,0.17
0.5,-1.05,0.1
0.61,-0.85,0.03
0.57,-0.77,-0.02
0.48,-0.72,-0.05
0.51,-0.58,-0.09
0.52,-0.4,-0.18
0.55,-0.27,-0.22
0.49,-0.24,-0.16
0.42,-0.19,-0.16
0.43,-0.07,-0.18
0.39,0.02,-0.18
0.33,0.09,-0.14
0.26,0.11,-0.09
0.22,0.12,-0.03
0.19,0.16,0.02
0.14,0.19,0.09
0.1,0.23,0.17
0.07,0.23,0.25
0.02,0.19,0.34
-0.04,0.15,0.42
-0.09,0.15,0.52
-0.12,0.13,0.61
-0.16,0.13,0.69
-0.18,0.15,0.77
-0.18,0.17,0.85
-0.2,0.16,0.93
-0.22,0.13,0.99
-0.24,0.1,1.02
-0.27,0.08,1.05
-0.29,0.1,1.11
-0.29,0.13,1.17
-0.28,0.14,1.21
-0.28,0.13,1.22
-0.27,0.11,1.19
-0.25,0.1,1.14
-0.25,0.1,1.1
-0.24,0.11,1.07
-0.22,0.11,1.07
-0.2,0.11,1.09
-0.17,0.12,1.08
-0.17,0.12,1.04
-0.17,0.13,1.01
-0.16,0.14,0.98
-0.15,0.14,0.95
-0.14,0.15,0.92
-0.13,0.14,0.89
-0.1,0.13,0.86
-0.07,0.13,0.83
-0.06,0.13,0.78
-0.05,0.14,0.73
-0.04,0.15,0.69
-0.02,0.15,0.66
0,0.15,0.63
0,0.15,0.59
0.01,0.14,0.54
0.02,0.13,0.5
0.03,0.12,0.46
0.04,0.13,0.43
0.04,0.13,0.43
0.06,0.12,0.42
0.07,0.11,0.4
0.08,0.09,0.38
0.09,0.05,0.34
0.08,0,0.31
0.07,-0.05,0.29
0.08,-0.08,0.33
0.15,-0.09,0.34
0.15,-0.11,0.34
0.15,-0.12,0.31
0.16,-0.15,0.26
0.15,-0.24,0.2
0.13,-0.39,0.16
0.14,-0.51,0.18
0.08,-0.67,0.25
0.08,-0.66,0.32
0.23,-0.51,0.41
0.26,-0.52,0.44
0.22,-0.57,0.43
0.22,-0.67,0.4
0.21,-0.83,0.37
0.17,-1.02,0.42
0.19,-1.15,0.55
0.3,-1.15,0.66
0.39,-1.04,0.68
0.42,-0.98,0.63
0.4,-1,0.61
0.39,-1.08,0.63
0.4,-1.22,0.6
0.4,-1.34,0.62
0.39,-1.45,0.71
0.39,-1.52,0.78
0.42,-1.5,0.85
0.45,-1.42,0.85
0.45,-1.42,0.86
0.47,-1.45,0.88
0.49,-1.5,0.9
0.5,-1.56,0.94
0.51,-1.59,0.99
0.52,-1.56,1.02
0.53,-1.51,1.02
0.51,-1.5,0.98
0.47,-1.49,0.93
0.44,-1.45,0.91
0.4,-1.41,0.9
0.38,-1.37,0.88
0.36,-1.34,0.85
0.32,-1.31,0.84
0.3,-1.3,0.82
0.33,-1.3,0.77
0.37,-1.29,0.72
0.39,-1.26,0.69
0.4,-1.25,0.68
0.41,-1.27,0.66
0.41,-1.27,0.63
0.56,-1.27,1.05
1.04,-1.12,1.57
0.56,-1.09,1.99
-0.69,-1.35,1.88
-0.44,-0.82,0.71
-0.67,-0.83,0.65
-0.61,-1.05,0.59
-0.33,-1.14,0.56
0.11,-1.14,0.56
0.51,-1.13,0.52
0.57,-1.11,0.37
0.42,-1.02,0.18
0.34,-0.94,-0.02
0.31,-0.95,-0.17
0.32,-0.94,-0.21
0.32,-0.92,-0.18
0.33,-0.91,-0.14
0.33,-0.91,-0.08
0.31,-0.9,-0.04
0.31,-0.87,-0.02
0.31,-0.86,-0.01
0.31,-0.87,0.01
0.3,-0.89,0.04
0.28,-0.89,0.07
0.27,-0.89,0.08
0.27,-0.9,0.1
0.24,-0.92,0.16
0.16,-0.94,0.24
0.09,-0.95,0.3
0.09,-0.96,0.36
0.07,-1,0.61
0.03,-1.02,0.66
0.05,-1.09,0.63
-0.07,-1.2,0.71
-0.15,-1.25,0.91
-0.24,-1.3,1.1
-0.4,-1.35,1.28
-0.51,-1.36,1.41
-0.51,-1.35,1.45
-0.5,-1.34,1.48
-0.53,-1.39,1.51
-0.53,-1.48,1.52
-0.53,-1.57,1.51
-0.51,-1.61,1.48
-0.47,-1.65,1.46
-0.42,-1.71,1.43
-0.36,-1.75,1.39
-0.3,-1.79,1.35
-0.24,-1.87,1.33
-0.17,-1.94,1.3
-0.11,-1.97,1.27
-0.05,-1.96,1.23
0,-1.95,1.14
0.02,-1.95,1.03
0.05,-1.93,0.97
0.1,-1.91,0.91
0.13,-1.88,0.77
0.27,-1.87,0.72
0.32,-1.79,0.65
0.33,-1.67,0.62
0.34,-1.54,0.61
0.34,-1.42,0.56
0.33,-1.31,0.48
0.3,-1.24,0.4
0.3,-1.17,0.31
0.33,-1.11,0.22
0.42,-1,0.17
0.45,-0.9,0.08
0.41,-0.78,-0.01
0.43,-0.59,-0.07
0.42,-0.5,-0.13
0.44,-0.42,-0.18
0.47,-0.28,-0.3
0.43,-0.26,-0.38
0.38,-0.27,-0.42
0.43,-0.13,-0.47
0.43,0,-0.48
0.37,0.09,-0.47
0.33,0.13,-0.41
0.3,0.16,-0.31
0.26,0.21,-0.24
0.23,0.25,-0.18
0.23,0.19,0.07
0.19,0.2,0.21
0.17,0.24,0.29
0.16,0.28,0.33
0.16,0.27,0.41
0.11,0.2,0.54
0.04,0.15,0.69
-0.02,0.13,0.79
-0.06,0.13,0.87
-0.09,0.14,0.93
-0.11,0.13,0.97
-0.14,0.12,0.99
-0.16,0.16,1.01
-0.15,0.16,1.11
-0.14,0.17,1.15
-0.1,0.18,1.16
-0.07,0.16,1.16
-0.04,0.14,1.15
-0.05,0.13,0.83
-0.04,0.11,0.83
-0.01,0.09,0.71
0.02,0.09,0.63
0.04,0.1,0.58
0.06,0.12,0.53
0.08,0.11,0.5
0.09,0.1,0.45
0.1,0.08,0.39
0.1,0.06,0.33
0.1,0.02,0.28
0.08,-0.02,0.24
0.04,-0.05,0.23
0.01,-0.07,0.25
0.02,-0.06,0.27
0.05,-0.08,0.28
0.07,-0.12,0.28
0.1,-0.16,0.29
0.1,-0.24,0.3
0.06,-0.34,0.33
0.07,-0.39,0.35
0.12,-0.41,0.34
0.17,-0.46,0.33
0.18,-0.53,0.32
0.18,-0.61,0.31
0.19,-0.7,0.29
0.19,-0.82,0.3
0.19,-0.91,0.35
0.22,-0.92,0.44
0.23,-0.91,0.46
0.26,-0.93,0.44
0.29,-0.99,0.4
0.28,-1.1,0.39
0.31,-1.22,0.41
0.35,-1.4,0.49
0.36,-1.56,0.63
0.42,-1.58,0.75
0.46,-1.49,0.81
0.45,-1.4,0.79
0.42,-1.38,0.74
0.39,-1.38,0.69
0.36,-1.43,0.68
0.35,-1.58,0.72
0.38,-1.73,0.88
0.44,-1.76,1.06
0.5,-1.69,1.14
0.49,-1.61,1.11
0.44,-1.53,1.07
0.43,-1.46,1.02
0.42,-1.41,0.95
0.38,-1.37,0.9
0.38,-1.35,0.94
0.4,-1.37,1.12
0.45,-1.44,1.22
0.44,-1.48,1.11
0.35,-1.42,1.06
0.31,-1.34,1.03
0.29,-1.28,1.01
0.3,-1.24,0.97
0.31,-1.2,0.92
0.32,-1.19,0.87
0.3,-1.21,0.83
0.31,-1.29,0.87
0.63,-1.38,1.28
0.48,-1.22,1.71
-0.28,-1.16,1.56
-0.54,-1.16,1.15
-0.4,-0.93,0.81
-0.31,-0.91,0.54
-0.28,-1.01,0.41
-0.22,-1.02,0.39
-0.09,-0.98,0.43
0.16,-0.95,0.47
0.32,-0.97,0.47
0.33,-0.96,0.45
0.27,-0.95,0.37
0.25,-0.94,0.28
0.29,-0.93,0.2
0.28,-0.95,0.18
0.23,-0.96,0.24
0.18,-0.96,0.46
0.1,-1.02,0.57
0.03,-1.05,0.62
-0.05,-1.08,0.61
-0.04,-1.09,0.63
0.01,-1.12,0.74
0.04,-1.21,0.96
0.14,-1.29,1.12
0.24,-1.3,1.19
0.21,-1.31,1.24
0.07,-1.35,1.26
-0.07,-1.4,1.28
-0.11,-1.45,1.34
-0.09,-1.54,1.46
-0.14,-1.67,1.56
-0.19,-1.76,1.62
-0.25,-1.8,1.59
-0.31,-1.79,1.51
-0.32,-1.8,1.44
-0.29,-1.84,1.4
-0.24,-1.9,1.37
-0.19,-1.97,1.36
-0.11,-2.03,1.33
-0.03,-2.05,1.27
0,-2.04,1.16
0.01,-2,1.08
0.05,-1.94,0.88
0.14,-1.85,0.8
0.16,-1.82,0.76
0.21,-1.76,0.73
0.25,-1.67,0.69
0.23,-1.57,0.61
0.19,-1.52,0.48
0.28,-1.44,0.39
0.4,-1.26,0.35
0.37,-1.08,0.31
0.28,-0.98,0.23
0.35,-0.89,0.17
0.54,-0.74,0.14
0.6,-0.61,-0.02
0.61,-0.5,-0.1
0.57,-0.44,-0.1
0.5,-0.39,-0.18
0.52,-0.26,-0.19
0.46,-0.14,-0.17
0.37,-0.06,-0.23
0.35,0,-0.31
0.35,0.05,-0.36
0.33,0.09,-0.4
0.32,0.16,-0.4
0.28,0.21,-0.35
0.24,0.25,-0.28
0.2,0.3,-0.19
0.15,0.31,-0.02
0.13,0.29,0.1
0.12,0.22,0.23
0.07,0.22,0.36
0.01,0.23,0.48
-0.05,0.22,0.6
-0.1,0.22,0.72
-0.11,0.23,0.81
-0.12,0.23,0.91
-0.15,0.21,1.01
-0.18,0.18,1.09
-0.18,0.17,1.18
-0.17,0.2,1.25
-0.16,0.23,1.29
-0.17,0.25,1.29
-0.18,0.25,1.28
-0.19,0.23,1.29
-0.17,0.2,1.29
-0.15,0.17,1.27
-0.14,0.14,1.24
-0.13,0.13,1.21
-0.12,0.13,1.18
-0.1,0.14,1.16
-0.08,0.16,1.14
-0.06,0.17,1.11
-0.06,0.18,1.06
-0.05,0.18,0.95
-0.05,0.18,0.89
-0.04,0.19,0.82
-0.03,0.2,0.77
-0.02,0.22,0.73
0.01,0.23,0.7
0.03,0.23,0.67
0.05,0.23,0.64
0.06,0.22,0.61
0.07,0.21,0.58
0.07,0.2,0.53
0.07,0.19,0.47
0.07,0.19,0.4
0.07,0.19,0.35
0.07,0.18,0.29
0.07,0.17,0.23
0.08,0.14,0.18
0.08,0.1,0.14
0.08,0.05,0.11
0.09,0,0.1
0.11,-0.04,0.1
0.13,-0.08,0.09
0.14,-0.12,0.11
0.13,-0.15,0.15
0.1,-0.19,0.2
0.1,-0.23,0.23
0.12,-0.32,0.27
0.13,-0.39,0.29
0.14,-0.48,0.27
0.11,-0.58,0.28
0.08,-0.68,0.34
0.1,-0.73,0.39
0.15,-0.77,0.43
0.19,-0.81,0.45
0.18,-0.91,0.43
0.14,-1.06,0.43
0.1,-1.16,0.49
0.11,-1.21,0.54
0.09,-1.13,0.51
0.17,-1.15,0.49
0.25,-1.32,0.54
0.23,-1.43,0.59
0.26,-1.52,0.65
0.26,-1.58,0.72
0.25,-1.59,0.76
0.24,-1.54,0.76
0.24,-1.51,0.77
0.26,-1.51,0.77
0.28,-1.53,0.79
0.28,-1.58,0.82
0.27,-1.63,0.84
0.27,-1.67,0.86
0.3,-1.66,0.83
0.32,-1.66,0.81
0.35,-1.66,0.81
0.37,-1.7,0.78
0.37,-1.73,0.74
0.34,-1.73,0.74
0.35,-1.73,0.75
0.37,-1.75,0.77
0.38,-1.74,0.81
0.43,-1.68,0.83
0.44,-1.66,0.86
0.53,-1.67,0.74
0.6,-2.07,2.29
0.9,-1.22,3.99
-0.06,-1.12,3.48
-0.7,-1.64,2.49
-0.28,-0.73,1.83
-0.41,-0.78,1.49
-0.12,-1.2,1.12
0.31,-1.21,0.76
0.48,-1.06,0.57
0.41,-0.98,0.45
0.38,-0.99,0.32
0.36,-0.96,0.18
0.32,-0.96,0.05
0.27,-0.98,-0.08
0.23,-0.96,-0.15
0.22,-0.96,-0.1
0.23,-0.94,-0.02
0.24,-0.92,0.05
0.25,-0.91,0.11
0.25,-0.89,0.14
0.26,-0.88,0.13
0.28,-0.87,0.1
0.29,-0.88,0.05
0.32,-0.88,0.01
0.36,-0.88,-0.03
0.39,-0.88,-0.07
0.4,-0.88,-0.09
0.4,-0.87,-0.1
0.41,-0.87,-0.1
0.42,-0.86,-0.09
0.41,-0.86,-0.08
0.41,-0.86,-0.06
0.4,-0.86,-0.05
0.38,-0.87,-0.04
0.37,-0.88,-0.03
0.36,-0.88,-0.03
0.35,-0.89,-0.02
0.36,-0.89,-0.02
0.36,-0.89,-0.02
0.37,-0.9,-0.01
0.38,-0.91,0.01
0.38,-0.94,0.03
0.33,-0.98,0.07
0.32,-0.99,0.08
0.33,-1,0.09
0.34,-0.99,0.09
0.35,-0.97,0.1
0.34,-0.95,0.11
0.35,-0.92,0.12
0.36,-0.9,0.13
0.36,-0.89,0.16
0.37,-0.88,0.18
0.38,-0.9,0.17
0.37,-0.95,0.22
0.25,-0.88,1.16
0.39,-0.75,1.61
0.84,-0.82,1.59
0.78,-1.21,1.57
0.5,-1.42,0.94
0.45,-1.08,0.6
0.36,-0.82,0.49
0.35,-0.88,0.42
0.41,-0.96,0.33
0.41,-0.95,0.34
0.36,-0.91,0.43
0.29,-0.91,0.4
0.36,-0.91,0.31
0.38,-0.9,0.21
0.34,-0.9,0.14
0.27,-0.9,0.14
0.22,-0.89,0.17
0.18,-0.9,0.22
0.17,-0.91,0.3
0.16,-0.95,0.39
0.18,-0.97,0.5
0.18,-0.97,0.57
0.14,-0.96,0.55
0.09,-1.02,0.5
0.01,-1.12,0.56
-0.05,-1.18,0.76
-0.04,-1.21,0.94
-0.04,-1.23,1.07
-0.09,-1.28,1.15
-0.14,-1.3,1.17
-0.21,-1.26,1.13
-0.26,-1.22,1.07
-0.27,-1.21,1.08
-0.25,-1.24,1.2
-0.2,-1.29,1.32
-0.15,-1.35,1.39
-0.15,-1.4,1.44
-0.15,-1.45,1.43
-0.19,-1.6,1.41
-0.23,-1.68,1.41
-0.26,-1.74,1.43
-0.29,-1.77,1.47
-0.27,-1.82,1.5
-0.24,-1.85,1.49
-0.21,-1.84,1.44
-0.17,-1.82,1.36
-0.09,-1.82,1.27
0.01,-1.81,1.19
0.1,-1.79,1.11
0.14,-1.75,1.04
0.13,-1.71,0.99
0.14,-1.67,0.94
0.17,-1.6,0.86
0.21,-1.5,0.77
0.24,-1.43,0.68
0.3,-1.31,0.6
0.32,-1.23,0.5
0.32,-1.18,0.38
0.41,-1.01,0.27
0.44,-0.88,0.17
0.41,-0.8,0.12
0.48,-0.65,0.1
0.55,-0.57,0.05
0.52,-0.52,-0.01
0.47,-0.33,-0.24
0.41,-0.21,-0.33
0.28,-0.13,-0.42
0.23,-0.07,-0.49
0.26,0.01,-0.4
0.25,0.07,-0.32
0.23,0.09,-0.26
0.21,0.11,-0.17
0.19,0.15,-0.13
0.15,0.2,-0.14
0.11,0.2,-0.11
0.09,0.18,-0.05
0.11,0.2,0.01
0.11,0.22,0.11
0.09,0.24,0.28
0.09,0.25,0.44
0.1,0.28,0.59
0.09,0.27,0.69
0.05,0.22,0.75
0.01,0.18,0.77
-0.01,0.17,0.78
-0.02,0.2,0.81
0,0.23,0.87
0.03,0.23,0.94
0.04,0.2,0.99
0.04,0.2,1.01
0.05,0.2,1.02
0.04,0.2,1.01
0.04,0.19,0.99
0.06,0.19,0.97
0.06,0.18,0.95
0.06,0.18,0.91
0.07,0.16,0.86
0.1,0.14,0.8
0.11,0.13,0.77
0.12,0.14,0.75
0.14,0.14,0.72
0.15,0.14,0.67
0.15,0.14,0.62
0.16,0.13,0.56
0.16,0.1,0.5
0.15,0.04,0.46
0.16,0,0.45
0.17,-0.03,0.44
0.18,-0.05,0.42
0.17,-0.07,0.39
0.17,-0.08,0.35
0.19,-0.08,0.31
0.2,-0.09,0.29
0.19,-0.17,0.28
0.18,-0.25,0.31
0.19,-0.28,0.39
0.21,-0.32,0.38
0.21,-0.38,0.34
0.21,-0.42,0.3
0.2,-0.48,0.27
0.13,-0.6,0.28
0.12,-0.7,0.35
0.19,-0.76,0.46
0.24,-0.78,0.54
0.26,-0.76,0.55
0.25,-0.74,0.51
0.21,-0.76,0.45
0.2,-0.87,0.35
0.16,-1.05,0.32
0.18,-1.27,0.45
0.31,-1.41,0.63
0.34,-1.38,0.69
0.35,-1.36,0.68
0.38,-1.35,0.66
0.36,-1.32,0.58
0.34,-1.31,0.53
0.32,-1.37,0.6
0.37,-1.5,0.77
0.45,-1.6,0.88
0.5,-1.66,0.96
0.49,-1.66,1.02
0.46,-1.61,0.99
0.4,-1.5,0.9
0.32,-1.49,0.9
0.31,-1.52,0.99
0.36,-1.56,1.12
0.41,-1.56,1.21
0.44,-1.5,1.23
0.45,-1.45,1.19
0.46,-1.41,1.13
0.46,-1.35,1.1
0.44,-1.28,1.09
0.44,-1.24,1.07
0.45,-1.28,1.06
0.45,-1.3,1.04
0.44,-1.27,1
0.5,-1.29,0.84
0.53,-1.33,0.94
0.56,-1.33,1.57
0.48,-1.19,2.37
0.05,-0.93,2.44
-0.5,-1.06,1.9
-0.45,-1.14,1.42
0.01,-0.95,0.97
0.23,-0.97,0.68
0.3,-1.05,0.49
0.25,-1.04,0.38
0.22,-0.96,0.33
0.24,-0.9,0.21
0.31,-0.92,0.13
0.31,-0.91,0.08
0.29,-0.89,0.05
0.28,-0.87,0.03
0.29,-0.87,0.05
0.27,-0.87,0.1
0.25,-0.86,0.14
0.24,-0.87,0.16
0.24,-0.89,0.16
0.24,-0.92,0.18
0.24,-0.96,0.22
0.23,-0.99,0.29
0.22,-1,0.36
0.22,-1.03,0.42
0.19,-1.05,0.45
0.15,-1.07,0.47
0.14,-1.04,0.55
0.12,-1,0.77
0.01,-1.02,1
-0.05,-1.02,1.08
-0.09,-1.02,1.11
-0.23,-1.08,1.22
-0.39,-1.14,1.36
-0.44,-1.18,1.44
-0.48,-1.24,1.54
-0.55,-1.34,1.66
-0.59,-1.55,1.67
-0.59,-1.63,1.68
-0.55,-1.67,1.69
-0.51,-1.68,1.67
-0.5,-1.7,1.63
-0.49,-1.76,1.57
-0.44,-1.83,1.51
-0.38,-1.91,1.46
-0.32,-1.95,1.39
-0.27,-1.95,1.32
-0.2,-1.95,1.22
-0.12,-1.95,1.1
-0.02,-1.95,0.97
0.09,-1.93,0.85
0.16,-1.88,0.75
0.19,-1.79,0.67
0.2,-1.7,0.63
0.2,-1.61,0.58
0.23,-1.52,0.51
0.23,-1.45,0.38
0.29,-1.32,0.27
0.38,-1.14,0.21
0.4,-1.02,0.17
0.42,-0.89,0.12
0.44,-0.78,0.13
0.4,-0.76,0.09
0.38,-0.55,0.05
0.34,-0.42,0.01
0.32,-0.34,0.01
0.31,-0.22,0
0.31,-0.11,-0.04
0.28,-0.03,-0.05
0.28,0.09,-0.1
0.27,0.08,-0.16
0.25,0.07,-0.18
0.3,0.14,-0.17
0.34,0.13,-0.15
0.3,0.12,-0.11
0.25,0.18,-0.05
0.24,0.26,0
0.22,0.28,0.04
0.2,0.24,0.1
0.19,0.24,0.16
0.16,0.25,0.24
0.13,0.23,0.33
0.11,0.23,0.42
0.1,0.25,0.51
0.07,0.24,0.57
0.04,0.2,0.62
0.01,0.16,0.71
0,0.17,0.81
0,0.19,0.97
-0.03,0.17,1.02
-0.08,0.15,1.06
-0.11,0.16,1.07
-0.11,0.17,1.06
-0.1,0.16,1.07
-0.09,0.15,1.09
-0.08,0.14,1.13
-0.09,0.14,1.18
-0.08,0.15,1.19
-0.08,0.15,1.16
-0.09,0.15,1.13
-0.09,0.14,1.09
-0.05,0.14,1.07
-0.02,0.14,1.03
-0.02,0.15,0.98
-0.02,0.16,0.93
-0.02,0.16,0.9
-0.02,0.16,0.88
-0.01,0.16,0.82
0.01,0.16,0.76
0.03,0.15,0.69
0.05,0.14,0.63
0.06,0.13,0.57
0.07,0.13,0.5
0.08,0.13,0.44
0.1,0.13,0.36
0.12,0.1,0.32
0.14,0.07,0.28
0.14,0.02,0.24
0.14,-0.03,0.22
0.14,-0.06,0.22
0.13,-0.11,0.22
0.12,-0.14,0.23
0.11,-0.14,0.24
0.11,-0.15,0.25
0.12,-0.19,0.26
0.13,-0.23,0.26
0.15,-0.32,0.24
0.13,-0.51,0.24
0.14,-0.64,0.27
0.19,-0.66,0.3
0.22,-0.67,0.33
0.23,-0.66,0.36
0.25,-0.64,0.37
0.28,-0.65,0.36
0.29,-0.74,0.38
0.32,-0.89,0.43
0.33,-1.09,0.5
0.36,-1.26,0.52
0.34,-1.33,0.57
0.35,-1.24,0.64
0.41,-1.11,0.62
0.34,-1.16,0.65
0.36,-1.35,0.77
0.49,-1.52,0.9
0.56,-1.55,0.95
0.56,-1.51,0.95
0.55,-1.45,0.92
0.51,-1.4,0.88
0.45,-1.39,0.86
0.41,-1.44,0.93
0.43,-1.5,1.06
0.49,-1.5,1.14
0.54,-1.45,1.2
0.58,-1.43,1.22
0.59,-1.42,1.2
0.57,-1.38,1.17
0.52,-1.34,1.12
0.45,-1.31,1.07
0.43,-1.3,1.04
0.43,-1.31,1.04
0.43,-1.31,1.08
0.46,-1.3,1.08
0.5,-1.27,1.04
0.51,-1.23,1.01
0.51,-1.2,0.97
0.49,-1.2,0.9
0.44,-1.19,0.85
0.41,-1.18,0.79
0.36,-1.18,0.76
0.35,-1.15,0.73
0.35,-1.13,0.69
0.34,-1.13,0.64
0.34,-1.08,0.66
0.38,-1.08,0.69
0.42,-1.07,0.73
0.42,-0.98,0.7
0.29,-1,0.6
0.1,-1.05,0.53
0.08,-1.01,0.48
0.13,-0.96,0.41
0.19,-0.95,0.37
0.24,-0.94,0.34
0.28,-0.93,0.32
0.35,-0.91,0.3
0.4,-0.89,0.28
0.43,-0.89,0.27
0.41,-0.87,0.25
0.4,-0.85,0.22
0.4,-0.82,0.19
0.4,-0.8,0.18
0.39,-0.78,0.19
0.37,-0.77,0.21
0.37,-0.75,0.21
0.37,-0.74,0.2
0.4,-0.75,0.19
0.41,-0.75,0.18
0.43,-0.75,0.17
0.44,-0.75,0.15
0.45,-0.76,0.14
0.45,-0.77,0.13
0.45,-0.77,0.14
0.45,-0.78,0.16
0.43,-0.79,0.17
0.42,-0.8,0.18
0.42,-0.82,0.18
0.41,-0.83,0.19
0.4,-0.85,0.2
0.4,-0.87,0.21
0.39,-0.87,0.22
0.37,-0.86,0.23
0.35,-0.86,0.27
0.33,-0.86,0.33
0.31,-0.85,0.39
0.27,-0.86,0.44
0.23,-0.89,0.49
0.2,-0.93,0.53
0.16,-0.97,0.6
0.1,-1.01,0.71
0.04,-1.04,0.82
-0.02,-1.07,0.99
-0.13,-1.08,1.08
-0.17,-1.16,1.21
-0.2,-1.24,1.31
-0.19,-1.27,1.32
-0.24,-1.33,1.3
-0.34,-1.4,1.29
-0.35,-1.46,1.29
-0.32,-1.49,1.32
-0.29,-1.52,1.37
-0.25,-1.59,1.39
-0.24,-1.65,1.42
-0.23,-1.7,1.44
-0.19,-1.75,1.42
-0.16,-1.82,1.36
-0.15,-1.88,1.3
-0.13,-1.92,1.27
-0.13,-1.92,1.26
-0.14,-1.89,1.26
-0.13,-1.85,1.24
-0.1,-1.81,1.22
-0.06,-1.79,1.18
0.02,-1.81,1.09
0.07,-1.8,0.96
0.1,-1.78,0.86
0.1,-1.75,0.82
0.09,-1.69,0.72
0.14,-1.55,0.65
0.17,-1.49,0.59
0.21,-1.41,0.52
0.27,-1.31,0.44
0.35,-1.21,0.36
0.41,-1.14,0.25
0.4,-1.07,0.14
0.46,-0.9,0.05
0.52,-0.72,0.01
0.54,-0.6,0.01
0.54,-0.48,0
0.49,-0.43,-0.05
0.51,-0.34,-0.1
0.48,-0.24,-0.1
0.38,-0.22,-0.12
0.4,-0.13,-0.17
0.39,-0.02,-0.17
0.32,0.04,-0.15
0.28,0.03,-0.1
0.26,0.04,-0.04
0.24,0.05,0.01
0.22,0.07,0.08
0.16,0.1,0.17
0.09,0.13,0.28
0.07,0.17,0.39
0.07,0.19,0.53
0.03,0.13,0.56
-0.02,0.13,0.61
-0.06,0.11,0.68
-0.12,0.08,0.75
-0.16,0.05,0.83
-0.19,0.04,0.91
-0.19,0.03,0.96
-0.19,0.04,0.98
-0.19,0.05,0.99
-0.2,0.06,0.98
-0.23,0.07,0.99
-0.25,0.08,1.01
-0.26,0.09,1.03
-0.28,0.08,1.06
-0.29,0.06,1.07
-0.31,0.05,1.06
-0.31,0.04,1.04
-0.3,0.06,1.02
-0.31,0.09,1.01
-0.3,0.1,1
-0.3,0.1,0.99
-0.29,0.09,0.97
-0.28,0.1,0.94
-0.26,0.1,0.91
-0.24,0.09,0.88
-0.22,0.1,0.85
-0.17,0.1,0.84
-0.14,0.1,0.83
-0.11,0.09,0.81
-0.1,0.09,0.78
-0.08,0.08,0.75
-0.06,0.08,0.72
-0.04,0.08,0.68
-0.03,0.07,0.64
-0.02,0.06,0.61
-0.01,0.06,0.59
0.01,0.05,0.57
0.03,0.05,0.54
0.05,0.04,0.49
0.07,0.03,0.45
0.09,0.02,0.41
0.11,0,0.38
0.13,-0.03,0.36
0.14,-0.1,0.34
0.12,-0.16,0.34
0.12,-0.22,0.34
0.14,-0.26,0.36
0.14,-0.3,0.37
0.14,-0.32,0.36
0.16,-0.32,0.36
0.16,-0.34,0.38
0.17,-0.41,0.36
0.13,-0.58,0.39
0.13,-0.59,0.44
0.16,-0.61,0.48
0.22,-0.6,0.51
0.3,-0.61,0.49
0.35,-0.71,0.46
0.35,-0.79,0.42
0.33,-0.88,0.44
0.33,-0.99,0.56
0.39,-1.02,0.67
0.46,-0.95,0.73
0.5,-0.94,0.73
0.51,-1.01,0.71
0.49,-1.13,0.71
0.49,-1.2,0.66
0.48,-1.25,0.61
0.46,-1.33,0.65
0.47,-1.38,0.74
0.51,-1.39,0.81
0.56,-1.34,0.84
0.6,-1.29,0.84
0.63,-1.28,0.84
0.65,-1.31,0.85
0.65,-1.33,0.85
0.62,-1.36,0.83
0.58,-1.4,0.89
0.62,-1.42,0.93
0.61,-1.42,0.94
0.6,-1.41,0.95
0.59,-1.39,0.95
0.57,-1.34,1.01
0.55,-1.27,1.05
0.53,-1.21,1
0.47,-1.18,0.93
0.41,-1.15,0.9
0.39,-1.14,0.9
0.4,-1.16,0.89
0.44,-1.19,0.89
0.46,-1.19,0.89
0.46,-1.17,0.88
0.48,-1.16,0.87
0.52,-1.16,0.83
0.49,-1.15,0.84
0.52,-1.14,1.07
0.68,-1.06,1.53
0.39,-0.87,1.64
-0.04,-0.91,1.39
-0.07,-1.03,1.16
-0.1,-0.96,0.94
-0.11,-0.9,0.79
-0.05,-0.91,0.71
-0.01,-0.92,0.7
0.06,-0.91,0.67
0.15,-0.91,0.59
0.13,-0.92,0.54
0.13,-0.94,0.57
0.14,-0.97,0.67
0.13,-1.03,0.78
0.14,-1.08,0.86
0.12,-1.12,0.93
0.06,-1.15,1.01
0,-1.18,1.14
-0.02,-1.23,1.24
-0.06,-1.3,1.25
-0.11,-1.36,1.23
-0.14,-1.42,1.24
-0.14,-1.47,1.27
-0.16,-1.51,1.34
-0.19,-1.55,1.41
-0.2,-1.6,1.43
-0.19,-1.63,1.43
-0.19,-1.66,1.42
-0.18,-1.7,1.4
-0.18,-1.78,1.39
-0.16,-1.86,1.38
-0.15,-1.9,1.35
-0.14,-1.9,1.3
-0.11,-1.87,1.25
-0.08,-1.81,1.12
0.05,-1.78,1.04
0.12,-1.78,0.97
0.19,-1.77,0.9
0.25,-1.72,0.81
0.31,-1.64,0.7
0.36,-1.54,0.59
0.4,-1.41,0.49
0.4,-1.29,0.4
0.4,-1.17,0.3
0.46,-1.11,0.23
0.51,-1.06,0.17
0.52,-0.97,0.08
0.53,-0.85,-0.02
0.55,-0.74,-0.03
0.56,-0.61,-0.07
0.55,-0.47,-0.13
0.51,-0.38,-0.14
0.49,-0.27,-0.16
0.44,-0.21,-0.15
0.42,-0.14,-0.14
0.44,-0.06,-0.18
0.39,-0.06,-0.2
0.35,-0.02,-0.19
0.29,0,-0.16
0.21,-0.03,-0.09
0.2,0.07,0.16
0.23,0.1,0.28
0.22,0.13,0.39
0.2,0.17,0.44
0.19,0.22,0.47
0.17,0.24,0.5
0.14,0.21,0.55
0.1,0.15,0.65
0.06,0.11,0.76
0.03,0.1,0.86
0.02,0.09,0.92
0.01,0.1,0.96
0.01,0.14,1
0.01,0.17,1.02
0,0.17,1.05
-0.02,0.14,1.03
-0.04,0.15,0.98
-0.05,0.18,0.96
-0.04,0.18,0.98
-0.05,0.17,1
-0.05,0.16,1.01
-0.05,0.15,1.02
-0.05,0.13,1.01
-0.04,0.11,0.99
-0.02,0.12,0.98
-0.01,0.12,0.96
0,0.14,0.94
0.02,0.12,0.93
0.02,0.1,0.93
0,0.1,0.92
-0.02,0.11,0.9
-0.02,0.11,0.88
-0.01,0.09,0.86
0.01,0.07,0.83
0.03,0.06,0.8
0.04,0.05,0.78
0.05,0.05,0.74
0.06,0.06,0.71
0.08,0.07,0.67
0.08,0.08,0.64
0.09,0.08,0.6
0.09,0.07,0.55
0.09,0.05,0.51
0.09,0.01,0.47
0.09,-0.02,0.45
0.09,-0.04,0.44
0.1,-0.06,0.42
0.1,-0.08,0.4
0.1,-0.12,0.38
0.11,-0.18,0.35
0.11,-0.25,0.3
0.09,-0.31,0.28
0.09,-0.38,0.37
0.17,-0.34,0.42
0.19,-0.34,0.49
0.2,-0.4,0.51
0.22,-0.45,0.46
0.19,-0.44,0.39
0.15,-0.49,0.39
0.13,-0.56,0.48
0.15,-0.61,0.57
0.17,-0.67,0.61
0.17,-0.74,0.63
0.17,-0.79,0.67
0.18,-0.86,0.69
0.19,-0.88,0.67
0.22,-0.82,0.61
0.21,-0.8,0.62
0.23,-0.84,0.7
0.35,-0.88,0.77
0.42,-0.97,0.81
0.41,-1.09,0.81
0.42,-1.14,0.81
0.44,-1.14,0.8
0.45,-1.15,0.77
0.43,-1.18,0.76
0.43,-1.22,0.8
0.45,-1.29,0.86
0.48,-1.37,0.93
0.49,-1.48,0.95
0.47,-1.44,0.95
0.43,-1.36,0.92
0.4,-1.32,0.88
0.37,-1.32,0.86
0.36,-1.35,0.87
0.38,-1.39,0.91
0.4,-1.44,0.95
0.41,-1.45,0.98
0.43,-1.41,0.98
0.45,-1.34,0.93
0.44,-1.29,0.88
0.41,-1.24,0.85
0.39,-1.2,0.83
0.37,-1.22,0.82
0.34,-1.25,0.8
0.34,-1.24,0.78
0.34,-1.24,0.76
0.31,-1.37,1.34
0.69,-1.67,1.61
-0.03,-1.38,1.92
-1.07,-1.15,2.08
-0.76,-1.21,1.25
-0.52,-0.84,0.81
-0.55,-0.69,0.63
-0.43,-0.84,0.59
0.17,-1,0.63
0.56,-1,0.55
0.8,-0.95,0.44
0.74,-0.93,0.37
0.65,-0.91,0.31
0.64,-0.87,0.2
0.65,-0.83,0.07
0.69,-0.81,-0.04
0.73,-0.8,-0.1
0.69,-0.81,-0.08
0.63,-0.81,0.01
0.57,-0.78,0.09
0.54,-0.73,0.15
0.54,-0.67,0.19
0.55,-0.62,0.2
0.59,-0.59,0.19
0.63,-0.57,0.15
0.69,-0.57,0.12
0.78,-0.59,0.1
0.86,-0.61,0.1
0.91,-0.64,0.11
0.93,-0.66,0.12
0.93,-0.7,0.13
0.92,-0.73,0.15
0.9,-0.75,0.16
0.86,-0.76,0.19
0.81,-0.77,0.2
0.79,-0.76,0.2
0.77,-0.75,0.2
0.75,-0.74,0.2
0.74,-0.72,0.19
0.72,-0.71,0.19
0.69,-0.69,0.18
0.66,-0.68,0.18
0.65,-0.66,0.18
0.64,-0.65,0.18
0.63,-0.64,0.18
0.63,-0.64,0.18
0.63,-0.65,0.18
0.63,-0.65,0.19
0.62,-0.66,0.19
0.6,-0.67,0.19
0.59,-0.68,0.18
0.58,-0.69,0.18
0.57,-0.7,0.18
0.56,-0.71,0.18
0.55,-0.72,0.18
0.54,-0.73,0.18
0.52,-0.74,0.18
0.5,-0.75,0.18
0.48,-0.75,0.18
0.46,-0.75,0.17
0.44,-0.77,0.17
0.42,-0.78,0.17
0.41,-0.8,0.18
0.41,-0.81,0.19
0.4,-0.84,0.2
0.37,-0.88,0.2
0.36,-0.9,0.2
0.35,-0.92,0.19
0.33,-0.92,0.19
0.32,-0.93,0.18
0.31,-0.94,0.18
0.3,-0.96,0.19
0.29,-0.99,0.19
0.29,-1.02,0.19
0.29,-1.05,0.19
0.28,-1.08,0.19
0.28,-1.11,0.19
0.27,-1.13,0.18
0.26,-1.15,0.17
0.26,-1.15,0.17
0.26,-1.16,0.18
0.28,-1.19,0.18
0.28,-1.26,0.17
0.3,-1.31,0.18
0.29,-1.36,0.2
0.26,-1.4,0.19
0.25,-1.44,0.15
0.24,-1.41,0.13
0.25,-1.38,0.12
0.24,-1.31,0.11
0.25,-1.19,0.11
0.26,-1.07,0.12
0.26,-0.96,0.13
0.28,-0.88,0.14
0.3,-0.86,0.14
0.3,-0.86,0.14
0.32,-0.9,0.15
0.33,-0.95,0.16
0.32,-1.01,0.16
0.29,-1.06,0.15
0.26,-1.1,0.13
0.22,-1.15,0.11
0.18,-1.17,0.1
0.16,-1.17,0.09
0.14,-1.16,0.07
0.15,-1.14,0.07
0.16,-1.11,0.1
0.15,-1.07,0.13
0.17,-0.98,0.16
0.2,-0.92,0.17
0.23,-0.92,0.18
0.24,-0.89,0.2
0.28,-0.85,0.2
0.28,-0.82,0.2
0.27,-0.79,0.21
0.27,-0.79,0.22
0.26,-0.79,0.22
0.25,-0.8,0.23
0.25,-0.8,0.25
0.23,-0.79,0.28
0.22,-0.79,0.28
0.23,-0.81,0.29
0.23,-0.82,0.31
0.21,-0.83,0.34
0.17,-0.83,0.4
0.08,-0.83,0.47
0.02,-0.83,0.49
0.04,-0.84,0.47
0.12,-0.83,0.45
0.19,-0.83,0.41
0.22,-0.81,0.38
0.21,-0.78,0.36
0.22,-0.77,0.35
0.22,-0.77,0.35
0.21,-0.77,0.36
0.21,-0.78,0.37
0.21,-0.78,0.37
0.2,-0.78,0.37
0.19,-0.75,0.37
0.19,-0.74,0.37
0.19,-0.74,0.38
0.2,-0.75,0.38
0.2,-0.75,0.38
0.18,-0.75,0.37
0.16,-0.76,0.37
0.14,-0.77,0.37
0.13,-0.8,0.37
0.13,-0.83,0.37
0.13,-0.85,0.38
0.14,-0.88,0.38
0.14,-0.91,0.38
0.14,-0.92,0.37
0.15,-0.92,0.37
0.14,-0.91,0.36
0.12,-0.89,0.34
0.11,-0.88,0.31
0.12,-0.86,0.31
0.14,-0.86,0.33
0.15,-0.87,0.35
0.15,-0.87,0.34
0.17,-0.88,0.31
0.24,-0.91,0.29
0.32,-0.95,0.29
0.36,-0.98,0.31
0.37,-1.01,0.34
0.35,-1.08,0.34
0.35,-1.09,0.31
0.36,-1.07,0.25
0.38,-1.07,0.18
0.38,-1.08,0.13
0.35,-1.1,0.11
0.37,-1.12,0.09
0.42,-1.12,0.06
0.45,-1.11,0.01
0.47,-1.1,-0.02
0.47,-1.09,-0.03
0.46,-1.08,-0.03
0.46,-1.06,-0.03
0.47,-1.03,-0.04
0.47,-1,-0.03
0.48,-0.97,-0.02
0.49,-0.93,-0.03
0.45,-0.95,-0.03
0.44,-0.91,-0.03
0.47,-0.83,-0.03
0.46,-0.78,-0.03
0.43,-0.78,-0.03
0.44,-0.76,-0.01
0.47,-0.74,0.02
0.49,-0.76,0.04
0.5,-0.79,0.04
0.48,-0.79,0.05
0.5,-0.77,0.06
0.52,-0.78,0.07
0.52,-0.79,0.09
0.54,-0.81,0.14
0.57,-0.82,0.18
0.6,-0.85,0.22
0.61,-0.88,0.25
0.62,-0.88,0.26
0.62,-0.88,0.28
0.63,-0.88,0.3
0.67,-0.86,0.32
0.7,-0.86,0.36
0.73,-0.86,0.39
0.75,-0.88,0.42
0.77,-0.93,0.46
0.81,-0.94,0.48
0.84,-0.94,0.5
0.88,-0.94,0.53
0.92,-0.93,0.58
0.94,-0.91,0.6
1,-0.94,0.6
1.03,-1.01,0.69
1.05,-0.98,0.82
0.95,-0.92,0.94
0.76,-0.83,0.89
0.54,-0.62,0.76
0.49,-0.53,0.64
0.48,-0.47,0.53
0.46,-0.44,0.48
0.47,-0.4,0.44
0.48,-0.38,0.42
0.49,-0.38,0.43
0.49,-0.38,0.45
0.47,-0.39,0.48
0.49,-0.38,0.51
0.56,-0.36,0.54
0.62,-0.33,0.6
0.67,-0.32,0.68
0.74,-0.31,0.82
0.81,-0.33,1.01
0.81,-0.4,1.18
0.81,-0.4,1.24
0.76,-0.37,1.22
0.66,-0.36,1.16
0.59,-0.35,1.06
0.54,-0.34,0.96
0.51,-0.32,0.86
0.49,-0.32,0.79
0.46,-0.32,0.74
0.44,-0.32,0.71
0.46,-0.34,0.68
0.57,-0.36,0.69
0.64,-0.37,0.71
0.68,-0.39,0.75
0.71,-0.4,0.79
0.73,-0.42,0.82
0.73,-0.43,0.84
0.72,-0.43,0.83
0.69,-0.42,0.8
0.66,-0.41,0.77
0.62,-0.4,0.75
0.58,-0.39,0.72
0.55,-0.39,0.7
0.54,-0.38,0.68
0.55,-0.37,0.67
0.57,-0.35,0.66
0.59,-0.34,0.66
0.62,-0.34,0.66
0.64,-0.34,0.67
0.66,-0.34,0.68
0.67,-0.34,0.69
0.68,-0.35,0.69
0.69,-0.36,0.69
0.69,-0.36,0.69
0.69,-0.37,0.68
0.7,-0.38,0.67
0.7,-0.39,0.63
0.71,-0.39,0.61
0.71,-0.4,0.6
0.7,-0.4,0.6
0.7,-0.42,0.61
0.7,-0.43,0.62
0.69,-0.44,0.63
0.69,-0.44,0.64
0.68,-0.45,0.64
0.68,-0.45,0.64
0.68,-0.45,0.64
0.67,-0.46,0.64
0.67,-0.45,0.63
0.67,-0.45,0.63
0.68,-0.45,0.63
0.68,-0.45,0.62
0.68,-0.45,0.62
0.68,-0.44,0.62
0.67,-0.44,0.62
0.67,-0.43,0.62
0.67,-0.43,0.63
0.67,-0.42,0.63
0.67,-0.42,0.63
0.66,-0.41,0.64
0.66,-0.42,0.65
0.66,-0.42,0.65
0.65,-0.43,0.66
0.64,-0.44,0.66
0.64,-0.45,0.67
0.63,-0.45,0.68
0.62,-0.45,0.68
0.62,-0.45,0.68
0.62,-0.44,0.69
0.62,-0.44,0.69
0.63,-0.43,0.69
0.63,-0.42,0.69
0.64,-0.42,0.69
0.64,-0.42,0.69
0.64,-0.42,0.7
0.64,-0.41,0.7
0.63,-0.41,0.7
0.63,-0.41,0.69
0.63,-0.41,0.69
0.63,-0.41,0.68
0.64,-0.41,0.68
0.65,-0.41,0.67
0.66,-0.41,0.66
0.67,-0.41,0.66
0.67,-0.41,0.66
0.68,-0.41,0.65
0.68,-0.41,0.65
0.69,-0.41,0.65
0.68,-0.41,0.64
0.68,-0.4,0.64
0.68,-0.4,0.64
0.68,-0.4,0.64
0.68,-0.4,0.64
0.68,-0.4,0.64
0.68,-0.41,0.64
0.68,-0.41,0.64
0.68,-0.41,0.64
0.68,-0.41,0.64
0.68,-0.41,0.64
0.68,-0.41,0.64
0.68,-0.41,0.65
0.67,-0.41,0.65
0.67,-0.41,0.65
0.66,-0.41,0.65
0.66,-0.41,0.65
0.66,-0.41,0.65
