Acc_x,Acc_y,Acc_z
0,0,0
0,0,0
0,0,0
0,0,0
0,0,0
0,0,0
0,0,0
0,0,0
0,0,0
0,0,0
0,0,0
0,0,0
0,0,0
0,0,0
0,0,0
0,0,0
0,0,0
0,0,0
0,0,0
0,0,0
0,0,0
0.01,1.02,0.25
0.01,1.03,0.24
0.01,1.03,0.24
0.02,1.03,0.25
0.02,1.03,0.26
0.03,1.05,0.26
0.04,1.06,0.27
0.03,1.05,0.27
0.01,1.03,0.28
0.01,1.02,0.29
0,1,0.3
0,0.98,0.31
0.01,0.97,0.29
0.02,0.96,0.27
0.03,1.06,0.26
0.07,1.52,0.26
0.09,1.78,0.36
0.04,1.27,0.42
0.01,0.68,0.38
0.08,0.63,0.31
0.16,0.76,0.25
0.16,0.83,0.21
0.12,0.95,0.22
0.08,1.04,0.25
0.07,1,0.29
0.1,0.91,0.3
0.17,0.89,0.3
0.21,0.94,0.31
0.2,0.95,0.32
0.2,0.92,0.31
0.23,0.92,0.3
0.24,0.96,0.3
0.2,0.95,0.3
0.18,0.92,0.3
0.18,0.93,0.29
0.11,0.92,0.32
0.1,0.89,0.35
0.15,0.92,0.33
0.16,0.95,0.32
0.14,0.93,0.34
0.13,0.93,0.35
0.14,0.94,0.34
0.14,0.92,0.34
0.15,0.92,0.33
0.15,0.92,0.32
0.16,0.93,0.31
0.17,0.93,0.32
0.17,0.93,0.32
0.17,0.93,0.32
0.16,0.92,0.32
0.16,0.92,0.32
0.16,0.92,0.32
0.15,0.92,0.32
0.14,0.93,0.32
0.14,0.92,0.33
0.13,0.92,0.32
0.13,0.93,0.31
0.12,0.93,0.31
0.12,0.93,0.31
0.11,0.93,0.31
0.12,0.93,0.31
0.12,0.93,0.31
0.12,0.92,0.31
0.12,0.93,0.3
0.11,0.93,0.3
0.11,0.93,0.3
0.11,0.93,0.31
0.12,0.92,0.31
0.12,0.93,0.31
0.15,0.92,0.29
0.13,0.92,0.29
0.07,0.94,0.31
0.09,0.92,0.31
0.11,0.91,0.3
0.12,0.91,0.3
0.12,0.93,0.31
0.1,0.95,0.32
0.1,0.93,0.32
0.1,0.92,0.32
0.1,0.91,0.31
0.1,0.92,0.32
0.09,0.93,0.33
0.09,0.93,0.33
0.1,0.92,0.33
0.1,0.93,0.34
0.09,0.93,0.34
0.09,0.92,0.33
0.09,0.92,0.33
0.1,0.92,0.34
0.09,0.92,0.34
0.1,0.92,0.34
0.1,0.92,0.34
0.1,0.92,0.34
0.1,0.92,0.34
0.09,0.92,0.34
0.09,0.92,0.33
0.1,0.92,0.33
0.11,0.92,0.33
0.11,0.92,0.33
0.1,0.92,0.34
0.1,0.92,0.34
0.1,0.92,0.34
0.1,0.92,0.33
0.1,0.92,0.33
0.1,0.92,0.32
0.1,0.92,0.33
0.1,0.92,0.33
0.09,0.93,0.33
0.09,0.92,0.33
0.09,0.92,0.33
0.09,0.92,0.33
0.09,0.92,0.34
0.09,0.92,0.35
0.1,0.92,0.35
0.11,0.92,0.34
0.11,0.92,0.34
0.1,0.92,0.33
0.1,0.92,0.33
0.1,0.92,0.33
0.11,0.92,0.34
0.11,0.92,0.33
0.11,0.92,0.33
0.11,0.92,0.33
0.11,0.92,0.33
0.1,0.92,0.34
0.09,0.92,0.34
0.1,0.92,0.33
0.1,0.92,0.33
0.09,0.93,0.33
0.08,0.93,0.34
0.07,0.93,0.34
0.07,0.93,0.33
0.07,0.92,0.32
0.07,0.92,0.31
0.07,0.93,0.29
0.08,0.93,0.28
0.09,0.93,0.28
0.1,0.91,0.27
0.11,0.91,0.27
0.13,0.93,0.27
0.15,0.92,0.26
0.17,0.9,0.26
0.19,0.91,0.27
0.2,0.9,0.3
0.18,0.9,0.37
0.17,0.91,0.37
0.17,0.91,0.36
0.16,0.9,0.34
0.17,0.89,0.32
0.18,0.9,0.3
0.17,0.87,0.3
0.16,0.85,0.29
0.19,0.84,0.26
0.23,0.82,0.24
0.24,0.76,0.23
0.25,0.69,0.21
0.29,0.64,0.22
0.33,0.57,0.23
0.37,0.51,0.24
0.43,0.49,0.27
0.49,0.54,0.3
0.52,0.64,0.33
0.51,0.7,0.36
0.53,0.69,0.37
0.59,0.66,0.39
0.68,0.64,0.45
0.81,0.59,0.51
0.94,0.55,0.51
1.04,0.52,0.49
1.12,0.49,0.48
1.17,0.47,0.47
1.16,0.44,0.46
1.15,0.43,0.48
1.17,0.39,0.54
1.16,0.32,0.61
1.07,0.27,0.63
1.01,0.25,0.62
1.01,0.23,0.57
1.03,0.21,0.51
1.04,0.21,0.46
1.05,0.21,0.41
1.07,0.21,0.39
1.08,0.22,0.39
1.08,0.22,0.42
1.04,0.22,0.44
1.01,0.23,0.45
0.99,0.22,0.45
0.96,0.23,0.44
0.93,0.24,0.43
0.93,0.22,0.41
0.93,0.2,0.41
0.93,0.17,0.41
0.92,0.15,0.4
0.9,0.13,0.38
0.89,0.11,0.36
0.88,0.09,0.34
0.85,0.08,0.31
0.84,0.05,0.3
0.87,0.02,0.3
0.88,-0.02,0.3
0.88,-0.05,0.29
0.92,-0.06,0.28
0.95,-0.07,0.29
0.96,-0.09,0.29
0.95,-0.1,0.27
0.92,-0.1,0.24
0.9,-0.09,0.22
0.91,-0.08,0.19
0.95,-0.09,0.17
1,-0.11,0.15
1.04,-0.12,0.14
1.07,-0.12,0.14
1.09,-0.12,0.16
1.1,-0.12,0.17
1.09,-0.12,0.17
1.08,-0.11,0.16
1.09,-0.09,0.15
1.12,-0.07,0.14
1.15,-0.08,0.14
1.15,-0.09,0.13
1.13,-0.09,0.12
1.1,-0.09,0.11
1.08,-0.09,0.09
1.05,-0.05,0.1
1.04,-0.05,0.12
1.05,-0.07,0.13
1.07,-0.08,0.15
1.1,-0.09,0.17
1.13,-0.12,0.19
1.14,-0.17,0.21
1.1,-0.21,0.2
1.06,-0.22,0.18
1,-0.2,0.17
0.96,-0.19,0.17
0.95,-0.19,0.17
0.94,-0.19,0.18
0.92,-0.21,0.22
0.91,-0.23,0.25
0.92,-0.26,0.26
0.91,-0.29,0.26
0.91,-0.31,0.27
0.91,-0.32,0.27
0.9,-0.33,0.26
0.88,-0.34,0.25
0.86,-0.34,0.24
0.86,-0.36,0.23
0.89,-0.41,0.23
0.95,-0.45,0.25
0.99,-0.47,0.3
1.03,-0.51,0.29
1.02,-0.52,0.28
1.06,-0.54,0.28
1.1,-0.56,0.28
1.08,-0.57,0.29
1.06,-0.59,0.28
1.03,-0.6,0.27
1.03,-0.62,0.26
1.03,-0.66,0.25
1.02,-0.71,0.24
0.98,-0.76,0.23
0.96,-0.78,0.22
0.94,-0.78,0.2
0.92,-0.78,0.18
0.91,-0.77,0.17
0.9,-0.75,0.16
0.9,-0.71,0.16
0.88,-0.68,0.15
0.86,-0.65,0.13
0.84,-0.62,0.11
0.82,-0.59,0.09
0.8,-0.56,0.07
0.79,-0.53,0.06
0.78,-0.51,0.06
0.78,-0.49,0.06
0.78,-0.47,0.05
0.78,-0.44,0.03
0.81,-0.42,0.02
0.83,-0.41,0.02
0.85,-0.41,0.02
0.87,-0.41,0.02
0.89,-0.41,0.02
0.91,-0.42,0.02
0.92,-0.42,0.01
0.93,-0.43,0.01
0.94,-0.44,0.02
0.96,-0.46,0.03
0.99,-0.46,0.04
1.02,-0.48,0.05
1.04,-0.5,0.05
1.06,-0.52,0.05
1.06,-0.54,0.06
1.05,-0.56,0.06
1.03,-0.58,0.05
1.02,-0.6,0.05
1,-0.61,0.06
0.98,-0.6,0.06
0.96,-0.6,0.07
0.94,-0.6,0.07
0.91,-0.6,0.07
0.89,-0.59,0.07
0.87,-0.58,0.07
0.84,-0.56,0.06
0.77,-0.54,0.06
0.73,-0.52,0.05
0.7,-0.5,0.05
0.7,-0.48,0.05
0.72,-0.48,0.05
0.75,-0.47,0.05
0.78,-0.47,0.05
0.79,-0.46,0.05
0.8,-0.46,0.05
0.82,-0.47,0.05
0.84,-0.48,0.03
0.82,-0.51,0.01
0.83,-0.52,-0.01
0.86,-0.55,-0.05
0.88,-0.59,-0.09
0.9,-0.63,-0.13
0.92,-0.67,-0.18
0.92,-0.69,-0.21
0.92,-0.71,-0.23
0.91,-0.74,-0.24
0.91,-0.75,-0.25
0.89,-0.75,-0.25
0.85,-0.75,-0.25
0.8,-0.75,-0.26
0.76,-0.77,-0.24
0.73,-0.84,-0.24
0.65,-0.84,-0.23
0.59,-0.81,-0.21
0.54,-0.77,-0.19
0.51,-0.72,-0.18
0.48,-0.68,-0.16
0.42,-0.65,-0.1
0.35,-0.61,-0.04
0.32,-0.59,0
0.32,-0.59,0.01
0.33,-0.6,0.01
0.33,-0.62,0.02
0.32,-0.66,0.05
0.31,-0.7,0.12
0.29,-0.74,0.2
0.26,-0.79,0.31
0.24,-0.85,0.45
0.24,-0.93,0.61
0.27,-1.02,0.76
0.18,-1.16,0.87
0.02,-1.3,0.94
0.15,-1.26,0.92
0.32,-1.55,0.86
0.23,-1.98,0.91
0.12,-2.05,1.12
0.1,-2.04,1.34
0.13,-1.97,1.58
0.19,-1.91,1.58
0.22,-1.96,1.52
0.21,-2.04,1.49
0.2,-2.13,1.45
0.19,-2.2,1.41
0.16,-2.25,1.41
0.07,-2.3,1.43
0,-2.31,1.47
-0.06,-2.35,1.44
-0.06,-2.34,1.36
0.04,-2.29,1.26
0.1,-2.3,1.12
0.12,-2.3,0.99
0.16,-2.32,0.87
0.14,-2.31,0.81
0.1,-2.22,0.82
0.16,-2.16,0.78
0.28,-2.12,0.67
0.35,-2.01,0.52
0.4,-1.88,0.38
0.48,-1.72,0.27
0.52,-1.55,0.2
0.53,-1.37,0.17
0.51,-1.21,0.1
0.53,-1.05,0.02
0.56,-0.88,-0.15
0.49,-0.6,-0.24
0.48,-0.49,-0.23
0.54,-0.33,-0.28
0.57,-0.23,-0.35
0.54,-0.16,-0.37
0.53,-0.09,-0.37
0.47,-0.01,-0.36
0.45,0.08,-0.38
0.48,0.14,-0.38
0.52,0.21,-0.35
0.5,0.25,-0.33
0.48,0.28,-0.32
0.44,0.3,-0.24
0.37,0.27,-0.11
0.32,0.23,-0.05
0.29,0.26,-0.02
0.32,0.27,0.07
0.34,0.26,0.2
0.32,0.22,0.35
0.26,0.17,0.49
0.18,0.16,0.61
0.15,0.15,0.7
0.11,0.13,0.79
0.06,0.12,0.88
0.04,0.11,0.99
0.01,0.11,1.26
-0.09,0.08,1.35
-0.15,0.07,1.42
-0.19,0.06,1.45
-0.21,0.07,1.45
-0.23,0.09,1.46
-0.25,0.1,1.44
-0.26,0.11,1.39
-0.28,0.11,1.35
-0.31,0.12,1.34
-0.33,0.12,1.32
-0.34,0.14,1.29
-0.35,0.15,1.24
-0.35,0.15,1.19
-0.33,0.16,1.13
-0.32,0.18,1.07
-0.3,0.19,1.02
-0.28,0.19,0.97
-0.25,0.21,0.93
-0.23,0.22,0.9
-0.21,0.22,0.87
-0.19,0.21,0.85
-0.18,0.2,0.84
-0.16,0.2,0.84
-0.15,0.19,0.84
-0.13,0.19,0.84
-0.12,0.19,0.81
-0.1,0.21,0.79
-0.08,0.21,0.8
-0.06,0.21,0.83
-0.05,0.21,0.86
-0.04,0.21,0.88
-0.03,0.22,0.89
-0.03,0.22,0.9
-0.03,0.22,0.91
-0.03,0.23,0.92
-0.02,0.24,0.93
-0.03,0.23,0.94
-0.04,0.23,0.94
-0.05,0.23,0.95
-0.05,0.24,0.94
-0.07,0.24,0.94
-0.08,0.24,0.94
-0.09,0.23,0.94
-0.09,0.22,0.92
-0.09,0.22,0.89
-0.08,0.22,0.85
-0.08,0.22,0.8
-0.07,0.21,0.75
-0.07,0.2,0.69
-0.08,0.19,0.62
-0.08,0.19,0.55
-0.08,0.18,0.39
-0.09,0.2,0.32
-0.06,0.19,0.3
-0.04,0.15,0.29
-0.03,0.11,0.28
-0.01,0.08,0.24
0.02,0.07,0.21
0.06,0.03,0.17
0.06,-0.02,0.12
0.06,-0.08,0.1
0.05,-0.13,0.12
0.05,-0.18,0.16
0.08,-0.27,0.21
0.11,-0.34,0.27
0.15,-0.39,0.31
0.19,-0.46,0.34
0.19,-0.56,0.35
0.16,-0.65,0.33
0.15,-0.72,0.31
0.15,-0.81,0.34
0.18,-0.86,0.44
0.21,-0.85,0.5
0.24,-0.87,0.51
0.29,-0.97,0.53
0.28,-1.13,0.54
0.16,-1.08,0.55
0.19,-1.17,0.54
0.33,-1.36,0.68
0.41,-1.39,0.67
0.49,-1.42,0.65
0.5,-1.51,0.63
0.52,-1.56,0.58
0.51,-1.59,0.56
0.5,-1.63,0.6
0.49,-1.67,0.71
0.5,-1.7,0.8
0.55,-1.75,0.85
0.58,-1.79,0.89
0.59,-1.81,0.94
0.59,-1.79,0.98
0.57,-1.72,1.05
0.57,-1.64,1.08
0.58,-1.6,1.06
0.61,-1.64,1.03
0.62,-1.72,1
0.62,-1.76,0.98
0.62,-1.75,0.95
0.62,-1.7,0.92
0.59,-1.67,0.91
0.58,-1.64,0.9
0.59,-1.56,0.88
0.6,-1.44,0.84
0.64,-1.37,0.76
0.64,-1.39,0.6
0.56,-1.33,0.57
0.56,-1.25,0.49
0.51,-1.2,0.46
0.45,-1.17,0.53
0.38,-1.17,0.43
0.26,-1.07,0.34
0.23,-0.95,0.31
0.18,-0.88,0.25
0.12,-0.84,0.24
0.16,-0.78,0.21
0.22,-0.71,0.18
0.26,-0.66,0.18
0.28,-0.64,0.17
0.3,-0.62,0.17
0.29,-0.61,0.16
0.29,-0.59,0.14
0.29,-0.59,0.12
0.31,-0.59,0.1
0.32,-0.63,0.1
0.29,-0.65,0.11
0.27,-0.66,0.12
0.27,-0.67,0.13
0.25,-0.7,0.16
0.23,-0.76,0.21
0.23,-0.81,0.29
0.25,-0.95,0.48
0.31,-1.05,0.6
0.3,-1.14,0.67
0.32,-1.22,0.73
0.34,-1.29,0.79
0.25,-1.36,0.87
0.24,-1.49,0.9
0.33,-1.58,0.94
0.28,-1.61,0.97
0.27,-1.65,1.14
0.34,-1.7,1.39
0.38,-1.75,1.45
0.37,-1.82,1.45
0.35,-1.89,1.41
0.27,-1.93,1.37
0.19,-2,1.38
0.17,-2.06,1.42
0.15,-2.08,1.44
0.09,-2.1,1.43
0.06,-2.12,1.39
0.11,-2.13,1.33
0.15,-2.12,1.27
0.2,-2.11,1.18
0.22,-2.06,1.08
0.23,-2.01,0.98
0.26,-2,0.87
0.3,-1.97,0.75
0.38,-1.86,0.7
0.37,-1.72,0.65
0.36,-1.62,0.61
0.41,-1.55,0.51
0.44,-1.44,0.42
0.47,-1.31,0.33
0.5,-1.16,0.24
0.52,-1.03,0.18
0.45,-0.97,0.14
0.5,-0.85,0.07
0.59,-0.74,0.05
0.59,-0.68,0.09
0.63,-0.59,0.04
0.63,-0.52,-0.03
0.58,-0.46,-0.09
0.56,-0.35,-0.17
0.58,-0.18,-0.26
0.55,-0.06,-0.29
0.46,0.01,-0.28
0.38,0.07,-0.29
0.32,0.12,-0.28
0.35,0.17,-0.21
0.38,0.21,-0.13
0.36,0.27,-0.03
0.3,0.27,0.07
0.2,0.32,0.24
0.12,0.29,0.31
0.1,0.28,0.35
0.1,0.27,0.38
0.12,0.27,0.44
0.11,0.24,0.53
0.09,0.21,0.65
0.06,0.23,0.76
0.01,0.24,0.85
-0.01,0.23,0.91
-0.02,0.23,0.97
-0.03,0.23,1.01
-0.05,0.23,1.05
-0.06,0.23,1.06
-0.07,0.22,1.08
-0.08,0.21,1.1
-0.08,0.22,1.13
-0.09,0.22,1.15
-0.09,0.22,1.16
-0.11,0.21,1.17
-0.12,0.21,1.17
-0.13,0.22,1.18
-0.13,0.23,1.17
-0.12,0.23,1.15
-0.11,0.23,1.11
-0.1,0.22,1.06
-0.09,0.21,0.98
-0.08,0.21,0.97
-0.07,0.2,0.97
-0.07,0.2,0.98
-0.07,0.2,0.97
-0.07,0.2,0.95
-0.06,0.19,0.92
-0.06,0.19,0.89
-0.05,0.21,0.87
-0.03,0.2,0.84
-0.03,0.19,0.83
-0.03,0.19,0.82
-0.03,0.19,0.8
-0.03,0.19,0.78
-0.03,0.2,0.75
-0.02,0.21,0.74
-0.01,0.21,0.73
0,0.19,0.71
0,0.18,0.68
-0.01,0.17,0.65
-0.01,0.16,0.63
-0.01,0.17,0.61
-0.01,0.16,0.58
-0.01,0.15,0.55
0,0.13,0.53
0,0.09,0.5
0,0.06,0.47
0.03,0.01,0.46
0.06,0.01,0.45
0.09,0.01,0.45
0.12,0,0.44
0.15,-0.02,0.42
0.17,-0.04,0.37
0.18,-0.1,0.31
0.17,-0.2,0.31
0.18,-0.27,0.29
0.19,-0.33,0.27
0.2,-0.41,0.33
0.23,-0.45,0.37
0.24,-0.44,0.4
0.25,-0.43,0.42
0.25,-0.45,0.42
0.25,-0.5,0.36
0.25,-0.61,0.33
0.25,-0.75,0.42
0.3,-0.79,0.57
0.36,-0.82,0.6
0.39,-0.87,0.54
0.43,-0.89,0.49
0.41,-0.93,0.44
0.52,-1.44,0.61
0.57,-1.49,0.68
0.65,-1.35,0.74
0.68,-1.29,0.79
0.63,-1.32,0.84
0.6,-1.32,0.82
0.55,-1.36,0.81
0.5,-1.44,0.84
0.52,-1.5,0.87
0.57,-1.52,0.88
0.63,-1.5,0.9
0.67,-1.49,0.93
0.7,-1.45,0.97
0.73,-1.38,0.99
0.73,-1.32,0.99
0.71,-1.31,0.99
0.68,-1.32,0.97
0.67,-1.34,0.94
0.68,-1.38,0.92
0.68,-1.43,0.91
0.67,-1.47,0.89
0.63,-1.46,0.87
0.58,-1.4,0.84
0.55,-1.34,0.77
0.54,-1.26,0.7
0.53,-1.19,0.64
0.52,-1.17,0.6
0.52,-1.16,0.52
0.52,-1.12,0.48
0.51,-1.1,0.46
0.52,-1.14,0.44
0.56,-1.14,0.6
0.91,-1.04,0.85
0.86,-1.06,0.92
0.01,-1.26,1.04
-0.28,-1.17,1.08
0.04,-0.97,0.74
0.14,-0.97,0.33
0.01,-0.92,0.16
0.01,-0.84,0.15
0.09,-0.87,0.23
0.15,-0.94,0.32
0.22,-0.95,0.37
0.37,-0.88,0.39
0.48,-0.81,0.33
0.56,-0.8,0.19
0.68,-0.81,0.07
0.7,-0.77,0
0.65,-0.74,-0.04
0.61,-0.75,-0.08
0.62,-0.77,-0.13
0.63,-0.78,-0.17
0.63,-0.75,-0.18
0.64,-0.72,-0.19
0.63,-0.71,-0.16
0.64,-0.68,-0.15
0.63,-0.67,-0.13
0.59,-0.67,-0.12
0.55,-0.66,-0.11
0.52,-0.66,-0.09
0.5,-0.67,-0.08
0.49,-0.69,-0.07
0.48,-0.72,-0.05
0.48,-0.74,-0.01
0.47,-0.77,0.03
0.44,-0.79,0.08
0.41,-0.8,0.14
0.38,-0.81,0.21
0.34,-0.82,0.3
0.29,-0.85,0.4
0.29,-0.89,0.47
0.31,-0.96,0.54
0.31,-1.05,0.65
0.29,-1.13,0.75
0.24,-1.22,0.89
0.18,-1.32,0.97
0.16,-1.4,1.02
0.19,-1.43,1.14
0.2,-1.44,1.28
0.18,-1.53,1.47
0.25,-1.64,1.49
0.25,-1.72,1.47
0.32,-1.76,1.43
0.39,-1.83,1.4
0.42,-1.89,1.41
0.45,-1.96,1.43
0.46,-2.03,1.4
0.45,-2.07,1.34
0.4,-2.07,1.26
0.33,-2.06,1.2
0.24,-2.11,1.11
0.18,-2.12,1.06
0.11,-2.09,1.04
0.09,-2.07,1.01
0.1,-2.04,0.93
0.07,-2.01,0.85
0.06,-1.96,0.78
0.07,-1.88,0.72
0.1,-1.8,0.65
0.17,-1.73,0.54
0.28,-1.66,0.43
0.42,-1.59,0.33
0.48,-1.48,0.29
0.45,-1.36,0.23
0.42,-1.25,0.17
0.48,-0.98,0.07
0.51,-0.84,0.01
0.54,-0.74,-0.01
0.53,-0.7,-0.07
0.59,-0.61,-0.13
0.57,-0.53,-0.14
0.5,-0.44,-0.13
0.45,-0.32,-0.06
0.4,-0.21,-0.03
0.4,-0.12,-0.05
0.39,-0.06,-0.1
0.33,-0.02,-0.11
0.27,0.01,-0.06
0.19,0,0.02
0.15,0.03,0.09
0.16,0.12,0.15
0.15,0.2,0.19
0.14,0.22,0.25
0.11,0.22,0.33
0.07,0.23,0.38
0.05,0.21,0.39
0.04,0.15,0.41
0,0.09,0.46
-0.03,0.09,0.53
-0.02,0.1,0.61
-0.03,0.11,0.69
-0.05,0.14,0.88
-0.07,0.13,0.94
-0.09,0.1,0.94
-0.12,0.09,0.97
-0.14,0.08,1.04
-0.16,0.07,1.08
-0.18,0.07,1.11
-0.2,0.08,1.13
-0.22,0.1,1.16
-0.23,0.11,1.19
-0.23,0.11,1.21
-0.22,0.1,1.21
-0.21,0.09,1.18
-0.2,0.09,1.15
-0.19,0.09,1.12
-0.18,0.1,1.1
-0.17,0.11,1.08
-0.17,0.11,1.08
-0.16,0.12,1.08
-0.14,0.11,1.07
-0.13,0.11,1.04
-0.11,0.1,1.02
-0.08,0.1,1
-0.07,0.11,0.97
-0.06,0.12,0.95
-0.04,0.13,0.92
-0.02,0.12,0.91
-0.03,0.11,0.92
-0.03,0.11,0.92
-0.03,0.12,0.93
-0.03,0.13,0.93
-0.02,0.12,0.94
-0.02,0.11,0.94
-0.04,0.11,0.94
-0.04,0.11,0.94
-0.03,0.12,0.94
-0.03,0.12,0.95
-0.03,0.11,0.96
-0.04,0.11,0.96
-0.05,0.12,0.96
-0.06,0.12,0.97
-0.07,0.11,0.99
-0.08,0.1,0.99
-0.09,0.11,1
-0.09,0.12,1
-0.1,0.12,0.99
-0.1,0.13,0.97
-0.11,0.13,0.97
-0.12,0.13,0.99
-0.12,0.12,1.02
-0.12,0.11,1.03
-0.13,0.12,1.03
-0.14,0.13,1.02
-0.13,0.12,1
-0.13,0.12,1
-0.12,0.13,0.99
-0.12,0.13,0.99
-0.12,0.13,0.99
-0.12,0.13,0.98
-0.11,0.12,0.97
-0.1,0.11,0.97
-0.09,0.1,0.98
-0.08,0.11,0.99
-0.07,0.13,1
-0.06,0.14,1
-0.06,0.15,0.99
-0.05,0.14,0.97
-0.03,0.12,0.94
-0.02,0.1,0.93
-0.02,0.1,0.94
-0.03,0.11,0.94
-0.04,0.12,0.96
-0.04,0.13,0.98
-0.03,0.12,0.98
-0.01,0.1,0.98
0,0.09,0.96
0.01,0.08,0.95
0.01,0.08,0.96
0,0.09,0.98
0,0.1,0.99
-0.01,0.09,1
-0.02,0.07,1.01
-0.03,0.07,1.01
-0.03,0.08,1.01
-0.03,0.09,1.01
-0.04,0.09,1.02
-0.04,0.1,1.03
-0.04,0.1,1.03
-0.05,0.09,1.02
-0.05,0.08,1.01
-0.06,0.07,0.99
-0.06,0.08,0.99
-0.07,0.08,0.99
-0.08,0.09,1
-0.09,0.1,1.02
-0.09,0.1,1.02
-0.1,0.09,1.02
-0.1,0.09,1.01
-0.11,0.08,1
-0.11,0.08,0.99
-0.11,0.08,0.99
-0.11,0.08,1
-0.11,0.08,1.01
-0.11,0.09,1.02
-0.1,0.1,1.02
-0.11,0.08,1.01
-0.11,0.08,0.99
-0.12,0.08,0.98
-0.11,0.08,0.98
-0.11,0.08,0.98
-0.11,0.08,0.98
-0.11,0.08,0.97
-0.1,0.08,0.95
-0.1,0.08,0.94
-0.09,0.09,0.92
-0.08,0.09,0.9
-0.07,0.09,0.87
-0.06,0.09,0.84
-0.05,0.09,0.81
-0.04,0.08,0.78
-0.03,0.08,0.74
-0.01,0.08,0.7
0.02,0.08,0.64
0.05,0.06,0.57
0.08,0.05,0.49
0.13,0.03,0.42
0.17,0,0.37
0.21,-0.03,0.32
0.24,-0.06,0.28
0.25,-0.09,0.27
0.26,-0.1,0.28
0.28,-0.14,0.28
0.28,-0.18,0.25
0.25,-0.27,0.21
0.24,-0.33,0.19
0.22,-0.37,0.18
0.17,-0.45,0.2
0.15,-0.53,0.24
0.18,-0.5,0.28
0.19,-0.48,0.3
0.22,-0.5,0.28
0.26,-0.52,0.27
0.26,-0.6,0.25
0.27,-0.71,0.24
0.31,-0.78,0.27
0.33,-0.82,0.28
0.4,-0.85,0.3
0.42,-0.91,0.29
0.36,-1.03,0.3
0.38,-1.09,0.38
0.41,-1.13,0.5
0.41,-1.18,0.6
0.43,-1.21,0.64
0.49,-1.3,0.65
0.56,-1.42,0.67
0.61,-1.51,0.7
0.63,-1.59,0.76
0.65,-1.63,1.02
0.72,-1.57,1.13
0.77,-1.5,1.18
0.81,-1.5,1.18
0.82,-1.56,1.18
0.84,-1.6,1.17
0.85,-1.63,1.2
0.84,-1.64,1.26
0.81,-1.64,1.3
0.77,-1.6,1.3
0.73,-1.56,1.28
0.72,-1.54,1.24
0.7,-1.53,1.2
0.67,-1.53,1.16
0.66,-1.5,1.1
0.66,-1.46,1.03
0.64,-1.45,0.93
0.64,-1.42,0.85
0.64,-1.37,0.78
0.65,-1.35,0.72
0.64,-1.35,0.67
0.6,-1.31,0.62
0.59,-1.26,0.56
0.57,-1.24,0.51
0.52,-1.21,0.51
0.48,-1.13,0.46
0.38,-1,0.29
0.18,-0.91,0.26
0.18,-0.87,0.25
0.19,-0.81,0.26
0.18,-0.75,0.29
0.17,-0.68,0.31
0.16,-0.63,0.32
0.15,-0.6,0.3
0.16,-0.56,0.27
0.16,-0.53,0.24
0.17,-0.52,0.2
0.18,-0.52,0.17
0.17,-0.53,0.16
0.15,-0.55,0.16
0.14,-0.55,0.16
0.13,-0.56,0.16
0.13,-0.58,0.17
0.12,-0.61,0.22
0.12,-0.65,0.3
0.13,-0.71,0.37
0.16,-0.77,0.44
0.22,-0.86,0.51
0.26,-0.96,0.59
0.27,-1.07,0.68
0.28,-1.17,0.77
0.18,-1.27,0.88
0.18,-1.49,1.08
0.28,-1.54,1.15
0.15,-1.6,1.26
0.06,-1.67,1.35
0.02,-1.73,1.4
0.04,-1.78,1.39
0.09,-1.81,1.38
0.09,-1.86,1.43
0.11,-1.92,1.52
0.15,-2.01,1.57
0.2,-2.11,1.53
0.22,-2.14,1.43
0.21,-2.09,1.35
0.14,-2.07,1.33
0.05,-2.09,1.3
0.03,-2.12,1.29
0.06,-2.13,1.25
0.1,-2.12,1.19
0.15,-2.11,1.1
0.19,-2.06,1.03
0.22,-1.98,0.95
0.26,-1.93,0.86
0.28,-1.91,0.78
0.29,-1.88,0.7
0.32,-1.81,0.63
0.34,-1.69,0.57
0.37,-1.55,0.43
0.42,-1.28,0.38
0.45,-1.19,0.33
0.49,-1.09,0.27
0.48,-1,0.22
0.45,-0.93,0.17
0.52,-0.83,0.11
0.5,-0.72,0.07
0.44,-0.63,0.07
0.51,-0.52,0.08
0.46,-0.49,0.01
0.45,-0.39,-0.08
0.5,-0.3,-0.08
0.44,-0.24,-0.07
0.4,-0.16,-0.05
0.38,-0.09,-0.04
0.36,-0.01,-0.02
0.32,0.06,0.03
0.28,0.12,0.06
0.23,0.14,0.09
0.21,0.15,0.11
0.19,0.16,0.13
0.14,0.18,0.19
0.11,0.19,0.28
0.07,0.17,0.38
0.04,0.19,0.46
0,0.2,0.57
-0.1,0.17,0.62
-0.13,0.13,0.69
-0.14,0.1,0.74
-0.14,0.1,0.79
-0.16,0.1,0.85
-0.2,0.1,0.9
-0.25,0.11,0.96
-0.29,0.11,1
-0.32,0.11,1.04
-0.33,0.12,1.06
-0.34,0.14,1.07
-0.34,0.15,1.05
-0.34,0.15,1.03
-0.35,0.13,1.05
-0.35,0.11,1.09
-0.33,0.12,1.12
-0.29,0.13,1.11
-0.26,0.12,1.1
-0.24,0.11,1.1
-0.23,0.11,1.1
-0.21,0.11,1.08
-0.2,0.11,1.05
-0.21,0.11,1.03
-0.22,0.1,1
-0.22,0.1,1
-0.21,0.11,1
-0.16,0.13,0.99
-0.15,0.13,0.97
-0.15,0.12,0.96
-0.15,0.11,0.96
-0.16,0.1,0.96
-0.17,0.11,0.96
-0.17,0.12,0.96
-0.16,0.14,0.96
-0.15,0.15,0.95
-0.15,0.14,0.94
-0.15,0.12,0.93
-0.16,0.1,0.93
-0.17,0.1,0.94
-0.16,0.1,0.95
-0.15,0.12,0.96
-0.14,0.13,0.98
-0.13,0.13,0.98
-0.13,0.13,0.97
-0.13,0.13,0.94
-0.14,0.12,0.92
-0.14,0.12,0.9
-0.16,0.12,0.93
-0.16,0.13,0.97
-0.14,0.13,1
-0.13,0.13,1.01
-0.13,0.13,0.99
-0.14,0.12,0.97
-0.13,0.11,0.96
-0.13,0.11,0.96
-0.13,0.11,0.98
-0.13,0.12,0.99
-0.14,0.13,1.01
-0.15,0.12,1.01
-0.14,0.12,0.99
-0.13,0.12,0.97
-0.12,0.12,0.96
-0.11,0.1,0.97
-0.11,0.1,0.96
-0.11,0.12,0.95
-0.11,0.12,0.95
-0.11,0.11,0.96
-0.12,0.11,0.97
-0.12,0.09,0.99
-0.12,0.06,0.99
-0.12,0.05,0.98
-0.12,0.07,0.97
-0.13,0.08,0.97
-0.13,0.08,0.95
-0.12,0.08,0.94
-0.13,0.06,0.95
-0.13,0.04,0.95
-0.13,0.04,0.94
-0.14,0.05,0.92
-0.15,0.05,0.9
-0.14,0.05,0.89
-0.13,0.06,0.86
-0.13,0.06,0.83
-0.12,0.06,0.79
-0.11,0.04,0.73
-0.1,0.03,0.66
-0.09,0.01,0.59
-0.07,0.01,0.55
-0.05,0.01,0.52
-0.03,0,0.49
0,0,0.47
0.02,-0.02,0.43
0.04,-0.04,0.38
0.06,-0.07,0.32
0.09,-0.1,0.27
0.11,-0.13,0.23
0.12,-0.18,0.22
0.13,-0.26,0.21
0.11,-0.34,0.22
0.11,-0.37,0.23
0.15,-0.38,0.23
0.19,-0.39,0.21
0.21,-0.37,0.19
0.21,-0.4,0.19
0.21,-0.55,0.18
0.23,-0.64,0.21
0.18,-0.78,0.3
0.19,-0.85,0.34
0.23,-0.85,0.33
0.3,-0.89,0.33
0.36,-0.94,0.34
0.36,-0.97,0.36
0.4,-1.1,0.4
0.43,-1.31,0.46
0.46,-1.45,0.57
0.52,-1.56,0.68
0.59,-1.59,0.75
0.63,-1.6,0.82
0.66,-1.61,0.87
0.66,-1.56,0.93
0.63,-1.51,1.05
0.63,-1.5,1.17
0.64,-1.55,1.24
0.63,-1.62,1.28
0.63,-1.65,1.29
0.61,-1.66,1.3
0.55,-1.64,1.35
0.5,-1.59,1.4
0.49,-1.55,1.45
0.47,-1.51,1.46
0.46,-1.45,1.41
0.48,-1.44,1.33
0.47,-1.45,1.23
0.47,-1.44,1.14
0.45,-1.46,1.08
0.41,-1.46,1
0.39,-1.41,0.93
0.35,-1.36,0.84
0.31,-1.31,0.75
0.33,-1.3,0.7
0.36,-1.26,0.65
0.35,-1.21,0.59
0.4,-1.21,0.52
0.46,-1.21,0.5
0.41,-1.2,0.49
0.31,-1.15,0.46
0.23,-1.08,0.46
0.18,-1.04,0.43
0.11,-0.99,0.36
0.09,-0.94,0.3
0.09,-0.89,0.25
0.05,-0.83,0.25
0.04,-0.79,0.28
0.09,-0.74,0.32
0.17,-0.71,0.33
0.24,-0.68,0.29
0.27,-0.63,0.19
0.34,-0.6,0.15
0.38,-0.59,0.12
0.38,-0.6,0.12
0.4,-0.61,0.12
0.41,-0.62,0.13
0.43,-0.61,0.14
0.44,-0.61,0.16
0.44,-0.62,0.17
0.48,-0.64,0.2
0.52,-0.67,0.24
0.56,-0.69,0.29
0.54,-0.71,0.35
0.52,-0.72,0.35
0.53,-0.77,0.35
0.52,-0.84,0.33
0.53,-0.89,0.3
0.49,-0.93,0.31
0.46,-0.96,0.36
0.48,-1.01,0.48
0.51,-1.1,0.61
0.52,-1.16,0.72
0.44,-1.19,0.81
0.3,-1.25,0.87
0.22,-1.37,0.87
0.19,-1.48,0.85
0.1,-1.55,1.05
0.02,-1.53,1.22
0.07,-1.58,1.31
0.1,-1.62,1.27
0.08,-1.59,1.17
0.01,-1.56,1.13
-0.06,-1.53,1.18
-0.09,-1.59,1.25
-0.11,-1.68,1.29
-0.1,-1.76,1.33
-0.08,-1.85,1.32
-0.08,-1.92,1.29
-0.05,-1.91,1.25
-0.01,-1.86,1.21
0.02,-1.83,1.17
0.08,-1.83,1.12
0.1,-1.85,1.08
0.08,-1.85,1.05
0.08,-1.84,1
0.11,-1.81,0.94
0.14,-1.78,0.87
0.16,-1.72,0.82
0.2,-1.63,0.78
0.24,-1.53,0.73
0.27,-1.42,0.68
0.25,-1.35,0.65
0.25,-1.33,0.54
0.39,-1.18,0.47
0.36,-1.03,0.41
0.3,-0.94,0.33
0.39,-0.83,0.26
0.47,-0.7,0.23
0.45,-0.63,0.19
0.48,-0.58,0.2
0.44,-0.53,0.22
0.41,-0.42,0.18
0.43,-0.31,0.15
0.4,-0.27,0.14
0.38,-0.21,0.12
0.32,-0.14,0.1
0.31,-0.09,0.06
0.35,-0.01,0.03
0.34,0.07,0.06
0.25,0.08,0.11
0.15,0.08,0.12
0.09,0.13,0.15
0.04,0.2,0.19
0.01,0.22,0.24
0.01,0.18,0.27
0,0.18,0.31
-0.02,0.19,0.37
-0.05,0.21,0.4
-0.06,0.23,0.49
-0.07,0.18,0.55
-0.1,0.16,0.6
-0.14,0.14,0.66
-0.16,0.15,0.73
-0.15,0.17,0.79
-0.16,0.19,0.84
-0.16,0.19,0.87
-0.19,0.18,0.9
-0.23,0.17,0.92
-0.27,0.15,0.95
-0.29,0.15,1.01
-0.31,0.15,1.05
-0.32,0.16,1.07
-0.33,0.17,1.07
-0.32,0.17,1.07
-0.32,0.17,1.07
-0.31,0.17,1.05
-0.3,0.16,1.04
-0.3,0.16,1.04
-0.29,0.17,1.05
-0.28,0.16,1.06
-0.27,0.16,1.06
-0.27,0.16,1.05
-0.26,0.17,1.02
-0.24,0.18,1.01
-0.22,0.17,1.02
-0.18,0.17,1.03
-0.16,0.17,1.01
-0.16,0.17,0.99
-0.16,0.16,0.98
-0.14,0.16,0.97
-0.14,0.15,0.97
-0.13,0.15,0.97
-0.13,0.15,0.97
-0.12,0.16,0.98
-0.11,0.16,0.99
-0.12,0.15,1
-0.12,0.14,1
-0.13,0.14,1
-0.13,0.14,0.99
-0.13,0.14,0.99
-0.13,0.14,0.98
-0.13,0.14,0.98
-0.13,0.13,0.96
-0.14,0.13,0.96
-0.14,0.13,0.97
-0.15,0.13,0.98
-0.15,0.13,0.98
-0.16,0.13,0.96
-0.17,0.13,0.93
-0.18,0.13,0.91
-0.19,0.12,0.9
-0.21,0.14,0.94
-0.22,0.14,0.95
-0.21,0.15,0.96
-0.21,0.14,0.96
-0.21,0.12,0.96
-0.22,0.11,0.95
-0.22,0.11,0.95
-0.22,0.11,0.96
-0.23,0.11,0.96
-0.23,0.11,0.97
-0.24,0.11,0.97
-0.24,0.1,0.96
-0.25,0.1,0.94
-0.24,0.11,0.92
-0.24,0.11,0.92
-0.23,0.11,0.93
-0.22,0.11,0.92
-0.22,0.1,0.91
-0.21,0.1,0.89
-0.2,0.1,0.86
-0.19,0.1,0.83
-0.18,0.1,0.8
-0.16,0.1,0.77
-0.15,0.1,0.75
-0.13,0.1,0.72
-0.12,0.1,0.69
-0.1,0.1,0.63
-0.06,0.1,0.59
-0.04,0.08,0.54
-0.02,0.06,0.51
0,0.05,0.48
0.02,0.02,0.46
0.02,-0.01,0.44
0.03,-0.03,0.44
0.05,-0.06,0.43
0.07,-0.09,0.42
0.07,-0.12,0.4
0.06,-0.14,0.38
0.06,-0.15,0.37
0.05,-0.17,0.36
0.04,-0.22,0.38
0.05,-0.28,0.38
0.08,-0.35,0.36
0.1,-0.4,0.36
0.11,-0.45,0.36
0.11,-0.49,0.38
0.11,-0.5,0.44
0.1,-0.49,0.45
0.11,-0.53,0.44
0.14,-0.6,0.45
0.17,-0.68,0.47
0.2,-0.79,0.48
0.19,-1.03,0.53
0.22,-1.07,0.62
0.22,-1.04,0.68
0.24,-0.99,0.69
0.28,-0.96,0.66
0.3,-1.01,0.63
0.29,-1.15,0.64
0.32,-1.32,0.72
0.39,-1.42,0.82
0.43,-1.42,0.85
0.46,-1.38,0.84
0.47,-1.36,0.85
0.48,-1.34,0.9
0.51,-1.31,0.94
0.52,-1.3,1.03
0.51,-1.32,1.14
0.55,-1.34,1.19
0.57,-1.37,1.16
0.55,-1.42,1.11
0.53,-1.47,1.08
0.51,-1.47,1.08
0.48,-1.42,1.13
0.47,-1.37,1.21
0.49,-1.36,1.25
0.5,-1.39,1.25
0.5,-1.43,1.25
0.5,-1.49,1.06
0.45,-1.47,1.09
0.42,-1.45,1.01
0.37,-1.43,0.94
0.32,-1.4,0.87
0.31,-1.35,0.81
0.32,-1.33,0.76
0.34,-1.31,0.73
0.34,-1.28,0.7
0.35,-1.23,0.65
0.34,-1.19,0.6
0.3,-1.14,0.54
0.3,-1.08,0.51
0.36,-0.99,0.52
0.36,-0.94,0.53
0.3,-0.94,0.52
0.26,-0.88,0.51
0.22,-0.85,0.49
0.19,-0.83,0.44
0.14,-0.78,0.4
0.04,-0.75,0.42
0.01,-0.74,0.48
0.06,-0.72,0.54
0.06,-0.69,0.57
0.08,-0.67,0.52
0.12,-0.65,0.44
0.22,-0.63,0.33
0.49,-0.62,0.25
0.57,-0.61,0.18
0.61,-0.6,0.13
0.63,-0.59,0.09
0.64,-0.6,0.05
0.62,-0.61,0.03
0.59,-0.59,0.03
0.58,-0.57,0.06
0.58,-0.58,0.1
0.56,-0.58,0.14
0.54,-0.58,0.18
0.53,-0.58,0.21
0.51,-0.58,0.25
0.47,-0.58,0.26
0.45,-0.6,0.3
0.46,-0.63,0.37
0.47,-0.66,0.38
0.45,-0.69,0.41
0.45,-0.75,0.46
0.39,-0.83,0.48
0.33,-0.91,0.49
0.29,-0.99,0.54
0.3,-1.08,0.66
0.23,-1.18,0.82
0.12,-1.27,0.94
0.04,-1.34,1.13
-0.12,-1.48,1.22
-0.14,-1.55,1.29
-0.09,-1.6,1.32
-0.15,-1.66,1.29
-0.27,-1.72,1.29
-0.29,-1.74,1.29
-0.23,-1.79,1.3
-0.17,-1.81,1.36
-0.16,-1.83,1.44
-0.19,-1.86,1.46
-0.22,-1.87,1.41
-0.24,-1.83,1.34
-0.25,-1.81,1.28
-0.25,-1.81,1.22
-0.25,-1.81,1.16
-0.23,-1.82,1.12
-0.2,-1.84,1.11
-0.15,-1.88,1.1
-0.09,-1.87,1.07
-0.02,-1.83,1.02
0.06,-1.81,0.92
0.13,-1.76,0.83
0.15,-1.67,0.81
0.17,-1.58,0.79
0.24,-1.51,0.73
0.33,-1.45,0.66
0.46,-1.31,0.63
0.55,-1.2,0.6
0.58,-1.1,0.5
0.63,-1,0.42
0.67,-0.88,0.37
0.66,-0.78,0.32
0.63,-0.7,0.27
0.58,-0.64,0.21
0.54,-0.54,0.15
0.58,-0.37,0.11
0.54,-0.25,0.14
0.47,-0.18,0.16
0.4,-0.13,0.13
0.29,-0.1,0.14
0.2,-0.01,0.12
0.17,0.11,0.09
0.14,0.14,0.09
0.09,0.15,0.12
0.05,0.13,0.19
0.03,0.04,0.24
0.03,0.03,0.28
-0.02,0.06,0.31
-0.08,0.1,0.34
-0.13,0.13,0.39
-0.16,0.14,0.43
-0.21,0.14,0.52
-0.23,0.11,0.58
-0.27,0.1,0.65
-0.32,0.09,0.71
-0.34,0.08,0.76
-0.37,0.08,0.81
-0.38,0.09,0.86
-0.36,0.11,0.9
-0.36,0.13,0.93
-0.36,0.13,0.93
-0.36,0.12,0.94
-0.38,0.11,0.94
-0.4,0.1,0.95
-0.42,0.11,0.97
-0.42,0.12,0.99
-0.42,0.12,1.02
-0.42,0.12,1.05
-0.42,0.1,1.05
-0.42,0.11,1.02
-0.41,0.12,0.99
-0.4,0.12,0.97
-0.4,0.13,0.96
-0.39,0.13,0.96
-0.38,0.13,0.97
-0.38,0.13,0.97
-0.37,0.13,0.96
-0.37,0.13,0.94
-0.35,0.13,0.92
-0.35,0.13,0.91
-0.36,0.13,0.89
-0.36,0.13,0.87
-0.35,0.14,0.88
-0.34,0.14,0.9
-0.33,0.14,0.92
-0.32,0.14,0.92
-0.31,0.13,0.91
-0.31,0.14,0.89
-0.31,0.14,0.88
-0.32,0.13,0.87
-0.32,0.13,0.87
-0.32,0.13,0.86
-0.33,0.14,0.84
-0.33,0.15,0.82
-0.33,0.15,0.82
-0.32,0.15,0.83
-0.32,0.15,0.84
-0.33,0.15,0.84
-0.32,0.14,0.83
-0.32,0.13,0.83
-0.32,0.13,0.82
-0.32,0.14,0.82
-0.32,0.15,0.81
-0.31,0.15,0.77
-0.29,0.14,0.77
-0.28,0.14,0.76
-0.27,0.15,0.74
-0.25,0.17,0.71
-0.23,0.18,0.67
-0.2,0.19,0.62
-0.16,0.15,0.58
-0.13,0.08,0.54
-0.11,0.03,0.51
-0.09,0.01,0.47
-0.06,0.02,0.44
-0.03,0.02,0.39
0,0.02,0.35
0.03,0.01,0.33
0.06,-0.02,0.32
0.07,-0.08,0.31
0.08,-0.13,0.31
0.09,-0.17,0.3
0.1,-0.2,0.27
0.11,-0.23,0.25
0.11,-0.29,0.24
0.11,-0.32,0.22
0.12,-0.36,0.17
0.15,-0.42,0.12
0.16,-0.51,0.12
0.18,-0.59,0.16
0.28,-0.67,0.22
0.3,-0.73,0.24
0.3,-0.83,0.25
0.27,-0.85,0.3
0.3,-0.99,0.3
0.32,-1.2,0.31
0.3,-1.34,0.36
0.34,-1.46,0.4
0.36,-1.5,0.48
0.36,-1.5,0.56
0.36,-1.51,0.6
0.37,-1.58,0.66
0.36,-1.65,0.82
0.44,-1.67,1
0.58,-1.65,1.11
0.65,-1.66,1.14
0.64,-1.69,1.15
0.59,-1.69,1.18
0.55,-1.65,1.21
0.53,-1.62,1.19
0.48,-1.64,1.22
0.43,-1.66,1.32
0.45,-1.65,1.36
0.48,-1.66,1.33
0.47,-1.65,1.31
0.46,-1.59,1.32
0.47,-1.46,1.27
0.45,-1.42,1.23
0.43,-1.4,1.16
0.41,-1.39,1.05
0.38,-1.37,0.97
0.38,-1.39,0.9
0.37,-1.43,0.86
0.37,-1.39,0.84
0.3,-1.33,0.8
0.19,-1.29,0.74
0.17,-1.29,0.72
0.21,-1.25,0.68
0.26,-1.14,0.64
0.11,-1.12,0.62
-0.01,-1.14,0.57
0.08,-1.12,0.45
0.14,-1.1,0.33
0.11,-1.04,0.29
0.05,-0.98,0.27
0.07,-0.92,0.28
0.15,-0.86,0.29
0.2,-0.82,0.28
0.25,-0.78,0.26
0.32,-0.76,0.21
0.37,-0.73,0.17
0.4,-0.71,0.13
0.41,-0.67,0.05
0.45,-0.66,0.04
0.47,-0.64,0.04
0.48,-0.64,0.03
0.48,-0.64,0.02
0.49,-0.62,0.03
0.51,-0.6,0.04
0.53,-0.6,0.06
0.56,-0.6,0.09
0.59,-0.57,0.12
0.63,-0.56,0.15
0.66,-0.59,0.16
0.69,-0.62,0.17
0.72,-0.63,0.19
0.74,-0.67,0.19
0.77,-0.7,0.2
0.79,-0.71,0.22
0.83,-0.72,0.22
0.89,-0.74,0.2
0.92,-0.76,0.16
0.89,-0.75,0.15
0.91,-0.74,0.11
0.92,-0.75,0.09
0.86,-0.74,0.11
0.88,-0.73,0.11
0.84,-0.71,0.09
0.79,-0.7,0.05
0.74,-0.68,0.04
0.7,-0.67,0.04
0.67,-0.66,0.04
0.66,-0.67,0.05
0.65,-0.67,0.05
0.65,-0.67,0.05
0.64,-0.67,0.04
0.65,-0.68,0.05
0.64,-0.68,0.07
0.64,-0.69,0.1
0.66,-0.7,0.13
0.65,-0.69,0.15
0.64,-0.68,0.17
0.59,-0.69,0.18
0.57,-0.69,0.18
0.58,-0.69,0.19
0.53,-0.7,0.23
0.47,-0.72,0.28
0.42,-0.72,0.33
0.38,-0.73,0.37
0.34,-0.75,0.41
0.31,-0.76,0.45
0.3,-0.81,0.49
0.27,-0.9,0.55
0.2,-0.97,0.63
0.1,-1.02,0.74
0.05,-1.23,0.77
0.06,-1.28,0.79
0.08,-1.32,0.83
0.11,-1.34,0.92
0.13,-1.36,1.07
0.16,-1.42,1.18
0.2,-1.47,1.2
0.19,-1.49,1.16
0.1,-1.5,1.16
0.01,-1.51,1.19
-0.03,-1.53,1.23
-0.07,-1.58,1.29
-0.1,-1.61,1.33
-0.12,-1.65,1.33
-0.16,-1.72,1.32
-0.17,-1.76,1.28
-0.16,-1.76,1.22
-0.15,-1.74,1.19
-0.11,-1.73,1.17
-0.07,-1.73,1.16
-0.05,-1.72,1.14
-0.03,-1.72,1.07
-0.04,-1.69,1.03
-0.05,-1.66,0.98
-0.03,-1.65,0.89
0.03,-1.66,0.77
-0.07,-1.59,0.79
-0.03,-1.51,0.77
0.06,-1.43,0.72
0.16,-1.34,0.68
0.21,-1.27,0.59
0.21,-1.18,0.53
0.23,-1.09,0.51
0.25,-1.01,0.48
0.3,-0.93,0.46
0.34,-0.85,0.42
0.39,-0.77,0.35
0.44,-0.69,0.27
0.44,-0.62,0.2
0.46,-0.51,0.17
0.45,-0.45,0.15
0.4,-0.42,0.13
0.37,-0.37,0.09
0.42,-0.28,0.07
0.45,-0.18,0.1
0.42,-0.1,0.09
0.38,-0.06,0.08
0.32,-0.04,0.09
0.29,0.03,0.09
0.28,0.08,0.08
0.23,0.1,0.13
0.2,0.11,0.24
0.11,0.11,0.28
0.04,0.12,0.33
0.02,0.12,0.38
0.01,0.11,0.43
-0.01,0.11,0.49
-0.04,0.08,0.54
-0.05,0.06,0.59
-0.06,0.07,0.67
-0.08,0.09,0.74
-0.13,0.1,0.82
-0.19,0.09,0.9
-0.24,0.06,0.95
-0.28,0.05,1.01
-0.29,0.05,1.07
-0.27,0.06,1.1
-0.28,0.06,1.11
-0.31,0.06,1.14
-0.33,0.06,1.16
-0.34,0.07,1.18
-0.36,0.07,1.21
-0.38,0.07,1.21
-0.38,0.07,1.19
-0.35,0.07,1.18
-0.35,0.08,1.16
-0.34,0.07,1.12
-0.33,0.07,1.09
-0.3,0.08,1.07
-0.28,0.07,1.06
-0.26,0.08,1.04
-0.24,0.08,1.01
-0.22,0.09,0.97
-0.2,0.09,0.93
-0.18,0.09,0.92
-0.17,0.09,0.93
-0.17,0.09,0.94
-0.18,0.09,0.93
-0.18,0.08,0.92
-0.18,0.08,0.9
-0.18,0.08,0.88
-0.17,0.09,0.86
-0.17,0.09,0.86
-0.19,0.09,0.87
-0.19,0.08,0.88
-0.2,0.08,0.88
-0.2,0.07,0.87
-0.21,0.07,0.87
-0.21,0.07,0.87
-0.2,0.08,0.89
-0.2,0.09,0.9
-0.22,0.1,0.91
-0.23,0.1,0.91
-0.24,0.09,0.92
-0.25,0.09,0.93
-0.25,0.09,0.94
-0.24,0.09,0.96
-0.24,0.09,0.98
-0.24,0.09,0.99
-0.23,0.08,1
-0.23,0.07,1
-0.23,0.07,0.99
-0.23,0.07,1
-0.23,0.07,1.01
-0.24,0.07,1.01
-0.24,0.08,1.02
-0.24,0.08,1.03
-0.23,0.08,1.03
-0.22,0.07,1.02
-0.22,0.06,1.01
-0.22,0.05,1
-0.22,0.05,0.99
-0.22,0.06,0.99
-0.23,0.06,1
-0.23,0.07,1
-0.24,0.07,1
-0.24,0.07,0.98
-0.24,0.07,0.97
-0.24,0.05,0.96
-0.24,0.04,0.96
-0.24,0.06,0.96
-0.24,0.06,0.95
-0.24,0.07,0.93
-0.23,0.07,0.91
-0.23,0.07,0.9
-0.23,0.06,0.91
-0.22,0.04,0.91
-0.21,0.03,0.9
-0.21,0.03,0.89
-0.21,0.03,0.89
-0.21,0.03,0.89
-0.2,0.03,0.89
-0.2,0.03,0.9
-0.19,0.03,0.9
-0.19,0.02,0.89
-0.2,0,0.9
-0.2,-0.02,0.9
-0.19,-0.01,0.9
-0.2,0.01,0.9
-0.19,0.02,0.88
-0.18,0.03,0.87
-0.17,0.03,0.88
-0.17,0.03,0.88
-0.18,0.01,0.87
-0.18,-0.01,0.86
-0.19,-0.07,0.82
-0.2,-0.08,0.81
-0.17,-0.06,0.81
-0.16,-0.03,0.79
-0.17,-0.01,0.78
-0.17,0.01,0.71
-0.17,0.01,0.71
-0.17,-0.01,0.67
-0.17,-0.11,0.64
-0.18,-0.2,0.65
-0.17,-0.21,0.68
-0.14,-0.18,0.68
-0.12,-0.15,0.67
-0.11,-0.15,0.65
-0.12,-0.15,0.62
-0.12,-0.16,0.59
-0.12,-0.2,0.54
-0.12,-0.24,0.5
-0.15,-0.29,0.51
-0.15,-0.31,0.55
-0.08,-0.28,0.58
-0.02,-0.31,0.6
0.02,-0.37,0.57
0.04,-0.39,0.52
0.08,-0.41,0.48
0.1,-0.45,0.44
0.08,-0.5,0.47
0.08,-0.58,0.51
0.12,-0.66,0.53
0.15,-0.73,0.58
0.15,-0.82,0.58
0.17,-0.87,0.54
0.23,-0.88,0.51
0.27,-0.88,0.47
0.27,-0.89,0.48
0.28,-0.97,0.57
0.32,-1.03,0.67
0.39,-1,0.77
0.43,-1.02,0.75
0.43,-1.04,0.66
0.42,-1.07,0.66
0.41,-1.11,0.71
0.42,-1.17,0.81
0.4,-1.25,0.94
0.4,-1.31,1.09
0.46,-1.32,1.15
0.52,-1.31,1.15
0.5,-1.31,1.13
0.47,-1.36,1.09
0.44,-1.4,1.07
0.39,-1.42,1.11
0.36,-1.43,1.18
0.35,-1.44,1.21
0.36,-1.4,1.19
0.39,-1.37,1.16
0.42,-1.36,1.11
0.41,-1.37,1.05
0.39,-1.36,1.03
0.36,-1.34,1.01
0.35,-1.34,0.99
0.34,-1.31,0.95
0.35,-1.3,0.9
0.34,-1.29,0.85
0.34,-1.26,0.8
0.35,-1.21,0.73
0.36,-1.17,0.69
0.34,-1.1,0.72
0.27,-1.04,0.78
0.3,-1,0.78
0.19,-0.96,0.78
-0.03,-0.95,0.76
-0.11,-0.92,0.65
-0.15,-0.88,0.55
-0.18,-0.82,0.5
-0.17,-0.73,0.47
-0.07,-0.69,0.48
0.05,-0.69,0.49
0.18,-0.7,0.48
0.33,-0.66,0.3
0.5,-0.62,0.21
0.51,-0.57,0.15
0.47,-0.55,0.12
0.42,-0.56,0.1
0.38,-0.55,0.1
0.33,-0.56,0.12
0.29,-0.58,0.14
0.26,-0.61,0.17
0.25,-0.64,0.22
0.23,-0.69,0.27
0.24,-0.75,0.3
0.25,-0.79,0.32
0.26,-0.84,0.35
0.27,-0.9,0.41
0.29,-0.96,0.48
0.25,-1.06,0.58
0.19,-1.17,0.69
0.16,-1.26,0.8
0.12,-1.35,0.87
0.08,-1.37,0.92
0.04,-1.36,0.97
0,-1.37,1.02
-0.01,-1.4,1.14
0.05,-1.42,1.28
0.14,-1.45,1.39
0.14,-1.48,1.4
0.11,-1.54,1.39
0.11,-1.55,1.38
0.07,-1.6,1.38
0,-1.65,1.42
-0.01,-1.66,1.48
-0.01,-1.68,1.52
-0.04,-1.7,1.56
-0.05,-1.71,1.54
-0.06,-1.7,1.47
-0.08,-1.69,1.41
-0.11,-1.7,1.36
-0.11,-1.74,1.32
-0.09,-1.78,1.26
-0.04,-1.8,1.17
0.01,-1.8,1.11
0.09,-1.78,1.06
0.19,-1.74,0.99
0.28,-1.67,0.88
0.31,-1.59,0.76
0.32,-1.52,0.63
0.31,-1.43,0.55
0.32,-1.34,0.51
0.36,-1.25,0.42
0.39,-1.12,0.34
0.41,-0.96,0.27
0.42,-0.81,0.21
0.42,-0.68,0.09
0.41,-0.67,0.04
0.41,-0.61,0.01
0.38,-0.56,-0.06
0.39,-0.44,-0.15
0.39,-0.25,-0.19
0.37,-0.15,-0.16
0.35,-0.1,-0.1
0.34,-0.05,-0.04
0.35,0.02,-0.02
0.33,0.08,-0.03
0.27,0.12,-0.02
0.21,0.14,0.01
0.17,0.17,0.08
0.17,0.2,0.18
0.12,0.14,0.27
0.07,0.1,0.33
0.06,0.12,0.41
0.06,0.12,0.46
0.04,0.1,0.51
-0.02,0.06,0.58
-0.1,0.04,0.65
-0.17,0.04,0.72
-0.2,0.04,0.78
-0.21,0.06,0.84
-0.23,0.07,0.92
-0.29,0.05,1.04
-0.43,0.05,1.07
-0.47,0.07,1.1
-0.48,0.08,1.12
-0.49,0.09,1.11
-0.5,0.11,1.11
-0.5,0.1,1.13
-0.49,0.08,1.16
-0.49,0.07,1.16
-0.48,0.07,1.15
-0.46,0.08,1.13
-0.44,0.08,1.11
-0.42,0.07,1.09
-0.41,0.07,1.09
-0.4,0.08,1.1
-0.38,0.07,1.09
-0.37,0.07,1.05
-0.36,0.07,1.01
-0.35,0.07,0.97
-0.33,0.07,0.96
-0.31,0.08,0.95
-0.3,0.09,0.94
-0.27,0.09,0.95
-0.23,0.09,0.95
-0.21,0.09,0.93
-0.2,0.09,0.91
-0.2,0.1,0.86
-0.18,0.1,0.84
-0.18,0.11,0.84
-0.18,0.12,0.87
-0.17,0.11,0.9
-0.17,0.1,0.91
-0.18,0.11,0.9
-0.19,0.1,0.88
-0.19,0.11,0.87
-0.2,0.11,0.87
-0.2,0.11,0.88
-0.2,0.11,0.9
-0.21,0.11,0.92
-0.22,0.1,0.94
-0.23,0.1,0.95
-0.25,0.1,0.95
-0.26,0.1,0.95
-0.26,0.11,0.95
-0.26,0.11,0.96
-0.27,0.11,0.97
-0.27,0.11,0.98
-0.27,0.11,0.98
-0.28,0.11,0.98
-0.28,0.11,0.99
-0.29,0.1,0.99
-0.29,0.1,0.99
-0.29,0.11,0.99
-0.27,0.11,0.99
-0.26,0.12,0.98
-0.26,0.12,0.96
-0.27,0.12,0.95
-0.27,0.12,0.95
-0.26,0.12,0.95
-0.25,0.11,0.95
-0.24,0.11,0.95
-0.22,0.11,0.95
-0.21,0.11,0.94
-0.2,0.11,0.92
-0.2,0.11,0.9
-0.21,0.1,0.89
-0.2,0.11,0.86
-0.19,0.11,0.85
-0.19,0.11,0.83
-0.19,0.1,0.8
-0.18,0.11,0.78
-0.17,0.11,0.75
-0.14,0.11,0.71
-0.12,0.11,0.66
-0.1,0.11,0.6
-0.08,0.09,0.55
-0.06,0.07,0.5
-0.05,0.06,0.46
-0.04,0.04,0.41
0,0.03,0.4
0.03,0.02,0.38
0.05,0,0.37
0.07,-0.03,0.36
0.08,-0.07,0.36
0.1,-0.12,0.38
0.12,-0.18,0.39
0.11,-0.24,0.39
0.11,-0.3,0.41
0.1,-0.32,0.42
0.1,-0.31,0.43
0.11,-0.31,0.47
0.12,-0.33,0.53
0.15,-0.36,0.56
0.16,-0.41,0.56
0.18,-0.49,0.53
0.17,-0.56,0.52
0.16,-0.61,0.52
0.18,-0.63,0.56
0.18,-0.7,0.61
0.2,-0.75,0.63
0.22,-0.75,0.63
0.23,-0.74,0.63
0.26,-0.8,0.6
0.3,-0.88,0.57
0.35,-0.91,0.7
0.44,-1.11,0.73
0.48,-1.13,0.77
0.49,-1.14,0.78
0.48,-1.16,0.76
0.48,-1.16,0.73
0.47,-1.19,0.74
0.46,-1.23,0.78
0.47,-1.29,0.85
0.49,-1.35,0.92
0.51,-1.38,0.97
0.51,-1.38,1.02
0.51,-1.38,1.04
0.51,-1.36,1.06
0.48,-1.34,1.08
0.45,-1.33,1.08
0.42,-1.36,1.06
0.37,-1.42,1.04
0.33,-1.48,1.07
0.31,-1.5,1.11
0.28,-1.47,1.14
0.26,-1.44,1.17
0.28,-1.39,1.15
0.34,-1.33,1.07
0.33,-1.31,0.99
0.28,-1.31,0.94
0.27,-1.28,0.83
0.28,-1.2,0.79
0.31,-1.16,0.75
0.32,-1.14,0.74
0.31,-1.12,0.71
0.31,-1.08,0.66
0.35,-1.07,0.6
0.36,-1.12,0.56
0.35,-1.12,0.55
0.41,-1.07,0.53
0.4,-1.05,0.52
0.33,-1.04,0.54
0.26,-1,0.58
0.13,-0.96,0.59
0.08,-0.94,0.55
0.07,-0.91,0.5
0.01,-0.86,0.45
-0.02,-0.82,0.43
-0.01,-0.78,0.44
0.05,-0.75,0.44
0.13,-0.73,0.41
0.19,-0.72,0.38
0.25,-0.7,0.35
0.32,-0.69,0.3
0.37,-0.68,0.27
0.4,-0.68,0.24
0.42,-0.68,0.19
0.44,-0.7,0.18
0.43,-0.72,0.17
0.43,-0.72,0.16
0.43,-0.72,0.17
0.43,-0.75,0.18
0.43,-0.76,0.2
0.42,-0.79,0.23
0.4,-0.81,0.27
0.39,-0.82,0.31
0.38,-0.82,0.34
0.37,-0.85,0.39
0.36,-0.9,0.43
0.34,-0.99,0.47
0.31,-1.06,0.54
0.31,-1.12,0.63
0.31,-1.15,0.73
0.26,-1.16,0.82
0.22,-1.15,0.88
0.18,-1.14,0.91
0.1,-1.17,0.96
0.06,-1.22,1.02
0.05,-1.25,1.08
0,-1.25,1.13
-0.04,-1.25,1.15
-0.11,-1.27,1.16
-0.18,-1.34,1.22
-0.18,-1.42,1.28
-0.13,-1.43,1.33
-0.13,-1.46,1.36
-0.12,-1.5,1.32
-0.1,-1.54,1.24
-0.11,-1.56,1.19
-0.14,-1.6,1.21
-0.15,-1.68,1.24
-0.14,-1.76,1.28
-0.13,-1.8,1.3
-0.1,-1.76,1.25
-0.08,-1.7,1.16
-0.05,-1.68,1.08
-0.01,-1.68,1.04
0.05,-1.66,1.01
0.1,-1.64,0.98
0.13,-1.61,0.92
0.15,-1.55,0.85
0.14,-1.5,0.83
0.16,-1.44,0.81
0.22,-1.36,0.78
0.27,-1.27,0.73
0.28,-1.18,0.67
0.28,-1.09,0.6
0.3,-1.03,0.53
0.32,-0.98,0.44
0.37,-0.76,0.34
0.42,-0.66,0.32
0.48,-0.57,0.31
0.51,-0.49,0.31
0.45,-0.51,0.27
0.44,-0.5,0.2
0.44,-0.4,0.15
0.42,-0.3,0.1
0.41,-0.2,0.06
0.44,-0.11,-0.01
0.47,-0.05,-0.06
0.47,-0.03,-0.02
0.49,-0.07,0.01
0.48,-0.04,0.02
0.45,0.06,0.08
0.42,0.12,0.17
0.38,0.12,0.24
0.32,0.13,0.31
0.28,0.14,0.31
0.23,0.11,0.27
0.16,0.1,0.29
0.1,0.1,0.35
0.03,0.11,0.44
-0.01,0.13,0.54
-0.03,0.16,0.61
-0.06,0.16,0.68
-0.11,0.11,0.81
-0.16,0.09,0.87
-0.19,0.09,0.92
-0.24,0.09,0.95
-0.28,0.12,0.98
-0.32,0.13,1
-0.35,0.12,1.03
-0.37,0.1,1.07
-0.39,0.08,1.11
-0.4,0.07,1.14
-0.42,0.08,1.13
-0.42,0.09,1.12
-0.41,0.1,1.11
-0.4,0.1,1.12
-0.37,0.1,1.11
-0.35,0.09,1.09
-0.35,0.09,1.06
-0.34,0.09,1.05
-0.32,0.09,1.03
-0.31,0.08,1.01
-0.32,0.07,1.01
-0.32,0.08,1
-0.31,0.09,1
-0.29,0.09,0.98
-0.28,0.1,0.98
-0.26,0.1,0.97
-0.25,0.1,0.91
-0.23,0.11,0.9
-0.22,0.12,0.9
-0.21,0.12,0.91
-0.2,0.11,0.91
-0.2,0.11,0.9
-0.2,0.1,0.9
-0.19,0.1,0.89
-0.17,0.1,0.89
-0.16,0.1,0.89
-0.15,0.09,0.88
-0.15,0.08,0.87
-0.14,0.08,0.85
-0.13,0.08,0.83
-0.12,0.09,0.82
-0.11,0.09,0.81
-0.1,0.09,0.79
-0.08,0.09,0.75
-0.07,0.08,0.7
-0.06,0.07,0.65
-0.06,0.07,0.59
-0.05,0.06,0.54
-0.04,0.07,0.49
-0.03,0.07,0.43
-0.01,0.06,0.38
0.03,0.04,0.34
0.05,0.02,0.29
0.06,-0.09,0.29
0.07,-0.12,0.31
0.09,-0.14,0.33
0.1,-0.15,0.34
0.14,-0.2,0.36
0.15,-0.23,0.38
0.14,-0.27,0.4
0.15,-0.36,0.4
0.15,-0.44,0.4
0.13,-0.51,0.44
0.21,-0.49,0.46
0.21,-0.5,0.49
0.12,-0.57,0.51
0.12,-0.61,0.46
0.14,-0.67,0.45
0.09,-0.78,0.46
0.09,-0.89,0.49
0.13,-0.9,0.54
0.12,-0.89,0.55
0.15,-0.87,0.55
0.22,-0.85,0.56
0.3,-0.9,0.56
0.3,-0.99,0.59
0.27,-1.15,0.66
0.3,-1.29,0.76
0.38,-1.32,0.81
0.52,-1.31,0.83
0.58,-1.31,0.86
0.66,-1.29,0.88
0.71,-1.25,0.85
0.71,-1.26,0.84
0.71,-1.33,0.86
0.73,-1.42,0.93
0.76,-1.48,0.99
0.76,-1.52,1.05
0.75,-1.51,1.12
0.75,-1.47,1.16
0.73,-1.43,1.13
0.67,-1.42,1.07
0.61,-1.42,1.02
0.57,-1.43,1
0.53,-1.45,0.98
0.5,-1.47,0.96
0.47,-1.49,0.92
0.46,-1.5,0.88
0.46,-1.47,0.85
0.45,-1.44,0.82
0.44,-1.37,0.78
0.42,-1.32,0.76
0.42,-1.32,0.71
0.39,-1.34,0.66
0.33,-1.34,0.74
0.48,-1.48,0.81
0.46,-1.49,0.9
0.14,-1.4,0.94
-0.04,-1.26,0.75
-0.05,-1.23,0.51
-0.09,-1.15,0.37
-0.1,-1.07,0.29
-0.08,-1.01,0.29
-0.06,-0.91,0.35
-0.02,-0.82,0.42
0.05,-0.75,0.44
0.15,-0.71,0.42
0.27,-0.69,0.34
0.33,-0.65,0.29
0.28,-0.6,0.26
0.26,-0.58,0.2
0.29,-0.57,0.16
0.33,-0.58,0.15
0.4,-0.59,0.15
0.43,-0.61,0.15
0.46,-0.61,0.16
0.49,-0.61,0.17
0.5,-0.6,0.18
0.52,-0.61,0.18
0.53,-0.62,0.18
0.53,-0.62,0.13
0.55,-0.63,0.09
0.59,-0.64,0.07
0.61,-0.64,0.08
0.61,-0.64,0.12
0.58,-0.63,0.19
0.54,-0.62,0.26
0.52,-0.64,0.32
0.59,-0.7,0.34
0.62,-0.76,0.37
0.6,-0.78,0.35
0.58,-0.78,0.33
0.53,-0.75,0.41
0.49,-0.78,0.49
0.47,-0.82,0.5
0.48,-0.88,0.49
0.43,-0.94,0.53
0.33,-1.01,0.66
0.2,-1.07,0.87
0.11,-1.15,0.98
0.02,-1.26,1.04
-0.06,-1.36,1.12
-0.08,-1.44,1.17
-0.07,-1.49,1.17
-0.06,-1.5,1.21
-0.12,-1.49,1.3
-0.12,-1.51,1.31
-0.08,-1.6,1.33
-0.11,-1.63,1.35
-0.14,-1.68,1.36
-0.16,-1.73,1.39
-0.13,-1.75,1.43
-0.11,-1.79,1.44
-0.11,-1.83,1.37
-0.1,-1.87,1.3
-0.12,-1.9,1.26
-0.09,-1.91,1.22
0,-1.88,1.18
0.03,-1.82,1.22
0.05,-1.78,1.24
0.11,-1.75,1.16
0.1,-1.71,1.08
0.06,-1.7,0.97
0.04,-1.69,0.89
0.02,-1.66,0.86
0.04,-1.61,0.84
0.08,-1.54,0.83
0.11,-1.48,0.78
0.15,-1.42,0.7
0.2,-1.33,0.59
0.26,-1.2,0.5
0.26,-1.1,0.44
0.26,-1.02,0.44
0.31,-0.89,0.4
0.3,-0.82,0.36
0.28,-0.72,0.32
0.3,-0.63,0.3
0.33,-0.52,0.26
0.35,-0.38,0.19
0.36,-0.27,0.17
0.34,-0.22,0.13
0.35,-0.18,0.06
0.32,-0.12,0.06
0.28,-0.08,0.05
0.28,-0.01,0.02
0.29,0.09,0.03
0.31,0.11,0.03
0.31,0.13,0.06
0.25,0.12,0.05
0.22,0.14,0.04
0.19,0.19,0.08
0.15,0.22,0.15
0.15,0.27,0.16
0.12,0.26,0.18
0.09,0.26,0.26
0.08,0.28,0.33
0.05,0.26,0.38
-0.01,0.26,0.43
-0.06,0.26,0.48
-0.08,0.21,0.63
-0.1,0.21,0.69
-0.12,0.24,0.74
-0.15,0.26,0.77
-0.16,0.26,0.8
-0.18,0.26,0.81
-0.19,0.27,0.81
-0.2,0.27,0.8
-0.2,0.27,0.79
-0.2,0.26,0.78
-0.19,0.26,0.76
-0.16,0.24,0.72
-0.13,0.22,0.66
-0.11,0.2,0.6
-0.07,0.17,0.54
-0.04,0.14,0.48
-0.03,0.12,0.45
-0.03,0.1,0.43
-0.02,0.09,0.42
0,0.07,0.39
0.02,0.04,0.36
0.03,0,0.33
0.04,-0.04,0.3
0.05,-0.08,0.26
0.04,-0.13,0.24
0.03,-0.17,0.27
0.03,-0.33,0.39
0.08,-0.4,0.39
0.11,-0.44,0.37
0.13,-0.44,0.34
0.14,-0.43,0.33
0.15,-0.45,0.34
0.16,-0.54,0.4
0.19,-0.63,0.5
0.23,-0.71,0.6
0.26,-0.76,0.69
0.27,-0.81,0.74
0.28,-0.84,0.7
0.26,-0.86,0.63
0.21,-0.87,0.58
0.2,-0.9,0.64
0.29,-0.95,0.73
0.4,-1.01,0.8
0.47,-1.13,0.89
0.51,-1.25,0.96
0.56,-1.26,1
0.57,-1.22,0.96
0.49,-1.22,0.92
0.43,-1.2,0.93
0.45,-1.18,0.93
0.5,-1.2,0.95
0.56,-1.26,1
0.62,-1.39,1
0.67,-1.41,0.95
0.69,-1.41,0.91
0.65,-1.42,0.91
0.62,-1.43,0.95
0.61,-1.43,0.98
0.6,-1.41,1
0.6,-1.37,1.05
0.63,-1.31,1.07
0.63,-1.26,1.03
0.58,-1.22,0.96
0.53,-1.21,0.9
0.49,-1.25,0.85
0.47,-1.33,0.78
0.48,-1.41,0.72
0.47,-1.5,0.67
0.47,-1.61,0.63
0.48,-1.64,0.59
0.49,-1.62,0.57
0.4,-1.57,0.6
0.38,-1.46,0.72
0.62,-1.34,0.85
0.52,-1.32,0.87
-0.25,-1.26,0.84
-0.68,-1.02,0.78
-0.63,-0.84,0.64
-0.53,-0.85,0.42
0.18,-1.04,0.33
0.48,-0.97,0.28
0.57,-0.93,0.3
0.56,-0.92,0.29
0.58,-0.87,0.24
0.57,-0.81,0.16
0.52,-0.75,0.08
0.39,-0.71,0.05
0.24,-0.69,0.08
0.22,-0.68,0.12
0.27,-0.68,0.16
0.27,-0.67,0.22
0.27,-0.67,0.25
0.31,-0.68,0.25
0.36,-0.69,0.23
0.39,-0.7,0.2
0.41,-0.72,0.17
0.4,-0.74,0.14
0.39,-0.76,0.13
0.39,-0.77,0.12
0.39,-0.78,0.11
0.38,-0.79,0.1
0.38,-0.8,0.1
0.38,-0.81,0.1
0.38,-0.82,0.1
0.38,-0.83,0.07
0.39,-0.85,0.07
0.38,-0.86,0.07
0.38,-0.87,0.06
0.39,-0.88,0.06
0.39,-0.89,0.05
0.39,-0.9,0.04
0.39,-0.9,0.03
0.38,-0.91,0.02
0.38,-0.91,0.02
0.37,-0.92,0.02
0.37,-0.93,0.02
0.37,-0.95,0.02
0.37,-0.96,0.02
0.36,-0.98,0.04
0.35,-0.99,0.06
0.34,-1,0.08
0.35,-1.02,0.1
0.34,-1.05,0.1
0.31,-1.07,0.1
0.29,-1.08,0.11
0.28,-1.1,0.1
0.27,-1.12,0.09
0.26,-1.12,0.09
0.25,-1.12,0.11
0.24,-1.12,0.12
0.23,-1.14,0.12
0.23,-1.22,0.12
0.25,-1.26,0.1
0.26,-1.3,0.1
0.26,-1.32,0.1
0.27,-1.34,0.1
0.27,-1.36,0.08
0.28,-1.37,0.08
0.28,-1.33,0.1
0.29,-1.22,0.13
0.29,-1.1,0.15
0.3,-0.99,0.17
0.31,-0.92,0.18
0.33,-0.9,0.21
0.34,-0.92,0.22
0.35,-0.98,0.23
0.33,-1.06,0.23
0.28,-1.13,0.21
0.23,-1.16,0.18
0.19,-1.18,0.14
0.14,-1.22,0.1
0.08,-1.25,0.1
0.02,-1.23,0.12
-0.01,-1.17,0.12
-0.02,-1.1,0.11
-0.02,-1.03,0.11
0.02,-0.96,0.15
0.15,-0.84,0.16
0.19,-0.8,0.18
0.19,-0.78,0.19
0.21,-0.77,0.18
0.22,-0.77,0.17
0.2,-0.78,0.18
0.17,-0.8,0.19
0.16,-0.81,0.19
0.16,-0.82,0.18
0.16,-0.84,0.18
0.15,-0.87,0.19
0.15,-0.91,0.2
0.16,-0.95,0.22
0.18,-0.97,0.25
0.2,-0.98,0.29
0.18,-0.98,0.33
0.13,-0.97,0.37
0.08,-0.93,0.38
0.05,-0.88,0.36
0.04,-0.85,0.33
0.05,-0.8,0.33
0.04,-0.78,0.36
0.03,-0.79,0.39
0.02,-0.78,0.43
-0.04,-0.76,0.46
-0.09,-0.74,0.46
-0.13,-0.76,0.38
-0.12,-0.78,0.32
-0.09,-0.8,0.31
-0.1,-0.81,0.34
-0.14,-0.81,0.36
-0.15,-0.82,0.37
-0.16,-0.83,0.37
-0.13,-0.81,0.35
-0.1,-0.81,0.33
-0.07,-0.84,0.32
-0.04,-0.88,0.28
-0.01,-0.9,0.23
0.01,-0.94,0.21
0.03,-0.96,0.22
0.01,-0.95,0.23
-0.02,-0.92,0.24
-0.02,-0.9,0.24
0,-0.9,0.21
0.03,-0.93,0.16
0.06,-0.97,0.16
0.06,-1,0.19
0.05,-1.08,0.17
0.03,-1.12,0.14
0,-1.1,0.09
-0.01,-1.13,-0.03
0.01,-1.29,-0.14
0.04,-1.26,-0.26
0.06,-1.27,-0.38
0.03,-1.25,-0.46
0.01,-1.19,-0.56
0.02,-1.14,-0.58
0.02,-1.11,-0.59
-0.01,-1.11,-0.57
-0.02,-1.09,-0.5
0.01,-1.03,-0.51
0.08,-0.99,-0.52
0.08,-0.96,-0.5
0.06,-1.04,-0.47
0.06,-1,-0.42
0.09,-0.96,-0.38
0.08,-0.99,-0.34
0.09,-0.94,-0.28
0.1,-0.94,-0.24
0.08,-0.95,-0.22
0.09,-0.96,-0.24
0.09,-1,-0.25
0.06,-1.02,-0.24
0.05,-1.04,-0.22
0.02,-1.04,-0.17
0.02,-1.04,-0.11
0.06,-1.06,-0.09
0.11,-1.07,-0.15
0.02,-0.92,-0.26
-0.22,-1.06,-0.02
-0.17,-1.23,0.4
-0.06,-1.21,0.45
0.03,-1.27,0.47
0.08,-1.39,0.39
0.2,-1.56,0.38
0.4,-1.78,0.44
0.35,-1.93,0.43
0.11,-1.76,0.23
-0.08,-1.39,-0.07
-0.1,-1.02,-0.23
-0.01,-0.8,-0.19
0.21,-0.79,-0.06
0.43,-0.88,0.14
0.5,-0.92,0.33
0.44,-0.92,0.43
0.36,-0.93,0.45
0.32,-0.95,0.35
0.33,-0.98,0.14
0.35,-0.98,-0.03
0.37,-0.97,-0.11
0.4,-0.99,-0.06
0.45,-0.98,0.02
0.46,-0.95,0.09
0.45,-0.93,0.16
0.44,-0.9,0.23
0.49,-0.89,0.2
0.51,-0.88,0.17
0.54,-0.86,0.17
0.57,-0.87,0.18
0.58,-0.87,0.19
0.58,-0.84,0.21
0.57,-0.83,0.24
0.56,-0.84,0.25
0.55,-0.85,0.26
0.54,-0.83,0.26
0.55,-0.82,0.25
0.57,-0.82,0.26
0.6,-0.8,0.26
0.61,-0.79,0.26
0.61,-0.79,0.27
0.6,-0.77,0.29
0.58,-0.77,0.33
0.55,-0.78,0.36
0.55,-0.78,0.37
0.56,-0.78,0.35
0.57,-0.78,0.34
0.59,-0.77,0.33
0.62,-0.78,0.33
0.63,-0.77,0.34
0.62,-0.74,0.36
0.6,-0.74,0.37
0.56,-0.76,0.39
0.53,-0.74,0.41
0.54,-0.74,0.41
0.56,-0.78,0.39
0.57,-0.77,0.41
0.6,-0.72,0.45
0.64,-0.69,0.46
0.66,-0.67,0.48
0.65,-0.66,0.49
0.63,-0.66,0.51
0.65,-0.64,0.55
0.68,-0.59,0.65
0.74,-0.51,0.75
0.87,-0.38,0.82
1.01,-0.26,0.89
1.07,-0.16,0.95
1.06,-0.14,1
1.02,-0.17,1.01
1.02,-0.15,0.98
1.03,-0.16,0.94
1.01,-0.19,0.92
0.97,-0.23,0.91
0.94,-0.29,0.9
0.92,-0.32,0.89
0.89,-0.34,0.88
0.84,-0.36,0.87
0.8,-0.36,0.86
0.78,-0.37,0.86
0.79,-0.36,0.85
0.8,-0.35,0.85
0.79,-0.35,0.84
0.79,-0.34,0.84
0.8,-0.34,0.84
0.81,-0.33,0.83
0.79,-0.32,0.82
0.79,-0.31,0.84
0.81,-0.3,0.88
0.82,-0.29,0.92
0.81,-0.28,0.93
0.81,-0.22,0.95
0.83,-0.18,0.94
0.86,-0.18,0.89
0.86,-0.14,0.83
0.88,-0.12,0.79
0.88,-0.09,0.76
0.83,-0.06,0.76
0.81,-0.03,0.76
0.83,-0.02,0.74
0.81,-0.01,0.71
0.76,0.03,0.7
0.72,0.06,0.68
0.7,0.07,0.65
0.67,0.13,0.67
0.64,0.16,0.69
0.6,0.19,0.68
0.58,0.23,0.67
0.57,0.24,0.65
0.57,0.24,0.64
0.56,0.27,0.63
0.53,0.29,0.61
0.51,0.32,0.62
0.48,0.35,0.64
0.43,0.38,0.65
0.38,0.39,0.63
0.37,0.39,0.61
0.36,0.4,0.59
0.38,0.41,0.56
0.38,0.42,0.57
0.36,0.45,0.61
0.35,0.47,0.6
0.35,0.49,0.6
0.31,0.51,0.61
0.3,0.52,0.57
0.3,0.53,0.52
0.27,0.58,0.51
0.25,0.58,0.51
0.26,0.55,0.51
0.25,0.59,0.54
0.22,0.63,0.54
0.23,0.62,0.52
0.21,0.64,0.52
0.2,0.65,0.53
0.18,0.66,0.54
0.15,0.7,0.54
0.14,0.68,0.52
0.16,0.66,0.49
0.16,0.71,0.49
0.14,0.72,0.49
0.14,0.73,0.51
0.14,0.72,0.5
0.14,0.73,0.5
0.12,0.76,0.51
0.11,0.77,0.5
0.1,0.79,0.47
0.08,0.94,0.44
0.05,1.07,0.43
0.07,1.1,0.51
0.11,1,0.61
0.12,0.83,0.61
0.12,0.76,0.52
0.12,0.76,0.41
0.09,0.77,0.35
0.05,0.81,0.34
0.03,0.87,0.38
0.07,0.93,0.48
0.08,0.94,0.47
0.08,0.93,0.44
0.07,0.9,0.42
0.06,0.88,0.4
0.06,0.89,0.37
0.06,0.91,0.35
0.06,0.92,0.37
0.06,0.91,0.38
0.06,0.91,0.38
0.05,0.91,0.37
0.05,0.91,0.36
0.04,0.91,0.36
0.02,0.9,0.35
0.01,0.91,0.34
0.03,0.92,0.33
0.04,0.92,0.32
0.04,0.91,0.32
0.04,0.91,0.33
0.03,0.91,0.33
0.02,0.91,0.34
0.02,0.93,0.34
0.01,0.93,0.35
0.01,0.91,0.36
0.05,0.93,0.35
0.05,0.92,0.35
0.03,0.95,0.36
0.04,0.94,0.36
0.01,0.91,0.37
0.02,0.92,0.36
0.03,0.92,0.35
0.05,0.93,0.33
0.04,0.91,0.33
0.03,0.9,0.33
0.04,0.93,0.33
0.04,0.93,0.32
0.05,0.92,0.32
0.05,0.92,0.32
0.04,0.92,0.33
0.03,0.93,0.33
0.03,0.93,0.33
0.03,0.93,0.34
0.02,0.92,0.34
0.02,0.92,0.34
0.02,0.92,0.34
0.02,0.92,0.35
0.03,0.92,0.35
0.03,0.92,0.35
0.02,0.92,0.35
0.02,0.92,0.35
0.01,0.92,0.35
0.02,0.92,0.35
0.01,0.92,0.35
0.02,0.92,0.35
0.02,0.92,0.35
0.02,0.92,0.36
0.01,0.92,0.36
0,0.92,0.35
0,0.92,0.35
0,0.92,0.34
0,0.92,0.35
0.01,0.92,0.35
0.01,0.92,0.35
0.01,0.92,0.35
0.01,0.91,0.34
0.01,0.91,0.34
0,0.91,0.34
0.01,0.92,0.35
0.01,0.92,0.35
0.01,0.92,0.35
0.01,0.92,0.35
0.01,0.92,0.36
0,0.92,0.36
0.01,0.91,0.36
0.01,0.91,0.37
0.01,0.91,0.37
0.01,0.91,0.37
0.01,0.91,0.37
0,0.91,0.37
0,0.91,0.37
0.01,0.91,0.37
0.01,0.91,0.37
0.01,0.91,0.37
0.01,0.91,0.36
0.02,0.91,0.36
0.02,0.91,0.37
0.02,0.91,0.37
0.01,0.91,0.37
0.01,0.91,0.38
0,0.91,0.38
-0.01,0.91,0.38
-0.01,0.91,0.38
-0.01,0.91,0.38
0,0.91,0.38
0,0.91,0.37
0.01,0.91,0.37
0.01,0.91,0.37
0.01,0.91,0.37
0.02,0.91,0.36
0.01,0.91,0.36
0.01,0.91,0.36
0,0.91,0.36
0,0.91,0.36
0,0.91,0.36
0,0.91,0.37
0.01,0.91,0.37
0.01,0.91,0.37
0.02,0.91,0.37
0.02,0.91,0.37
0.02,0.91,0.37
0.01,0.91,0.37
0.01,0.91,0.37
0.01,0.91,0.37
0.01,0.91,0.37
0,0.91,0.37
0,0.91,0.37
0.01,0.91,0.37
0.01,0.91,0.38
0.02,0.91,0.37
0.02,0.91,0.37
0.02,0.91,0.37
