Acc_x,Acc_y,Acc_z
0.53,-1.18,0.12
0.56,-1.15,0.12
0.59,-1.13,0.11
0.6,-1.1,0.13
0.59,-1.08,0.15
0.56,-1.08,0.15
0.56,-1.08,0.13
0.57,-1.08,0.12
0.58,-1.07,0.11
0.6,-1.06,0.11
0.62,-1.05,0.11
0.63,-1.04,0.11
0.62,-1.05,0.11
0.62,-1.05,0.12
0.62,-1.02,0.13
0.63,-1.01,0.13
0.65,-1,0.12
0.66,-0.99,0.13
0.66,-0.97,0.13
0.66,-0.95,0.14
0.67,-0.92,0.16
0.66,-0.89,0.17
0.67,-0.88,0.17
0.67,-0.87,0.18
0.68,-0.86,0.18
0.68,-0.85,0.18
0.67,-0.86,0.18
0.67,-0.86,0.18
0.69,-0.86,0.16
0.71,-0.86,0.16
0.7,-0.87,0.16
0.7,-0.88,0.16
0.71,-0.87,0.16
0.7,-0.88,0.15
0.67,-0.88,0.15
0.66,-0.89,0.15
0.65,-0.89,0.16
0.64,-0.89,0.17
0.65,-0.89,0.17
0.64,-0.88,0.18
0.63,-0.86,0.15
0.6,-0.85,0.14
0.58,-0.84,0.14
0.56,-0.83,0.15
0.55,-0.81,0.14
0.54,-0.78,0.12
0.52,-0.76,0.12
0.5,-0.74,0.12
0.48,-0.72,0.12
0.47,-0.71,0.13
0.46,-0.69,0.13
0.44,-0.68,0.13
0.43,-0.67,0.14
0.43,-0.66,0.15
0.42,-0.65,0.15
0.41,-0.65,0.16
0.39,-0.64,0.16
0.38,-0.64,0.17
0.37,-0.63,0.18
0.35,-0.63,0.19
0.32,-0.63,0.2
0.3,-0.62,0.2
0.29,-0.62,0.21
0.3,-0.63,0.21
0.3,-0.63,0.21
0.28,-0.64,0.21
0.26,-0.65,0.22
0.26,-0.68,0.23
0.26,-0.7,0.23
0.27,-0.76,0.23
0.28,-0.84,0.22
0.29,-0.92,0.21
0.3,-1,0.21
0.3,-1.05,0.21
0.3,-1.07,0.2
0.3,-1.08,0.21
0.31,-1.1,0.21
0.32,-1.13,0.21
0.32,-1.18,0.23
0.35,-1.23,0.24
0.41,-1.21,0.21
0.44,-1.18,0.18
0.33,-1.37,0.21
0.2,-1.57,0.22
0.28,-1.52,0.23
0.39,-1.37,0.23
0.37,-1.3,0.2
0.36,-1.31,0.17
0.4,-1.3,0.16
0.43,-1.26,0.15
0.39,-1.26,0.15
0.31,-1.26,0.18
0.3,-1.23,0.16
0.37,-1.25,0.15
0.34,-1.23,0.15
0.3,-1.19,0.16
0.29,-1.17,0.16
0.3,-1.15,0.14
0.29,-1.12,0.13
0.3,-1.09,0.12
0.32,-1.07,0.11
0.32,-1.05,0.11
0.32,-1.03,0.12
0.32,-1,0.12
0.34,-0.97,0.12
0.35,-0.94,0.11
0.36,-0.92,0.11
0.36,-0.89,0.1
0.37,-0.87,0.1
0.37,-0.85,0.1
0.37,-0.83,0.11
0.38,-0.82,0.13
0.38,-0.81,0.14
0.37,-0.79,0.15
0.34,-0.78,0.18
0.34,-0.78,0.18
0.34,-0.79,0.19
0.35,-0.82,0.2
0.34,-0.85,0.2
0.38,-0.84,0.2
0.4,-0.85,0.2
0.42,-0.85,0.2
0.43,-0.86,0.22
0.43,-0.86,0.23
0.42,-0.85,0.26
0.42,-0.84,0.27
0.44,-0.82,0.27
0.45,-0.82,0.28
0.47,-0.81,0.29
0.47,-0.8,0.3
0.47,-0.79,0.31
0.47,-0.79,0.31
0.46,-0.79,0.31
0.46,-0.8,0.31
0.46,-0.82,0.32
0.46,-0.86,0.34
0.47,-0.91,0.37
0.47,-0.97,0.39
0.46,-1.02,0.4
0.47,-1.08,0.42
0.48,-1.43,0.44
0.47,-1.37,0.41
0.43,-1.29,0.39
0.41,-1.21,0.36
0.39,-1.12,0.34
0.36,-0.96,0.28
0.38,-0.89,0.26
0.39,-0.85,0.23
0.4,-0.83,0.21
0.41,-0.84,0.19
0.43,-0.88,0.16
0.45,-0.93,0.13
0.47,-1,0.12
0.49,-1.06,0.11
0.49,-1.12,0.09
0.49,-1.19,0.09
0.48,-1.26,0.07
0.46,-1.32,0.04
0.41,-1.35,0.03
0.37,-1.33,0.03
0.37,-1.32,0.01
0.38,-1.28,0.01
0.38,-1.25,0.01
0.37,-1.23,0.02
0.35,-1.2,0.03
0.34,-1.17,0.04
0.34,-1.14,0.05
0.34,-1.1,0.05
0.34,-1.06,0.05
0.33,-1.03,0.05
0.33,-1,0.05
0.32,-0.97,0.05
0.31,-0.95,0.04
0.3,-0.92,0.03
0.3,-0.89,0.03
0.3,-0.86,0.03
0.31,-0.84,0.02
0.31,-0.81,0.01
0.31,-0.77,0.01
0.31,-0.73,0.01
0.31,-0.69,0.01
0.31,-0.65,0.03
0.31,-0.63,0.05
0.31,-0.61,0.07
0.32,-0.61,0.1
0.33,-0.62,0.14
0.34,-0.66,0.15
0.32,-0.68,0.16
0.33,-0.71,0.18
0.32,-0.75,0.19
0.3,-0.76,0.21
0.28,-0.76,0.25
0.26,-0.75,0.33
0.27,-0.74,0.35
0.28,-0.74,0.36
0.29,-0.75,0.39
0.3,-0.77,0.42
0.31,-0.79,0.42
0.33,-0.84,0.42
0.34,-0.92,0.4
0.33,-1,0.39
0.29,-1.07,0.4
0.25,-1.12,0.41
0.23,-1.15,0.42
0.22,-1.17,0.44
0.21,-1.2,0.44
0.19,-1.23,0.45
0.21,-1.18,0.42
0.24,-1.14,0.4
0.25,-1.11,0.39
0.28,-1.07,0.38
0.3,-1.01,0.37
0.32,-0.95,0.36
0.34,-0.89,0.35
0.36,-0.82,0.32
0.37,-0.77,0.29
0.37,-0.75,0.28
0.36,-0.76,0.28
0.38,-0.79,0.28
0.38,-0.83,0.29
0.37,-0.88,0.29
0.36,-0.92,0.3
0.34,-0.96,0.31
0.33,-1.01,0.31
0.33,-1.08,0.32
0.3,-1.15,0.33
0.29,-1.2,0.34
0.28,-1.23,0.35
0.28,-1.22,0.35
0.29,-1.17,0.35
0.31,-1.1,0.32
0.32,-1.02,0.3
0.32,-0.95,0.3
0.33,-0.9,0.31
0.36,-0.84,0.32
0.35,-0.82,0.33
0.34,-0.78,0.35
0.34,-0.75,0.35
0.32,-0.73,0.35
0.31,-0.71,0.35
0.29,-0.69,0.36
0.27,-0.69,0.36
0.24,-0.69,0.35
0.23,-0.68,0.35
0.23,-0.67,0.33
0.23,-0.66,0.33
0.22,-0.64,0.34
0.2,-0.6,0.35
0.19,-0.57,0.36
0.18,-0.54,0.37
0.18,-0.51,0.36
0.18,-0.5,0.34
0.17,-0.49,0.33
0.15,-0.48,0.32
0.14,-0.46,0.31
0.14,-0.44,0.31
0.13,-0.43,0.3
0.14,-0.42,0.29
0.15,-0.43,0.29
0.17,-0.48,0.31
0.23,-0.68,0.32
0.25,-0.77,0.32
0.25,-0.84,0.34
0.26,-0.9,0.34
0.23,-0.93,0.35
0.21,-0.98,0.35
0.18,-0.96,0.35
0.15,-0.98,0.33
0.15,-1.06,0.27
0.12,-1.02,0.26
0.1,-0.95,0.26
0.11,-0.95,0.26
0.12,-0.97,0.27
0.12,-0.98,0.28
0.13,-0.98,0.28
0.15,-0.97,0.27
0.15,-0.97,0.28
0.16,-0.96,0.27
0.19,-0.93,0.26
0.19,-0.94,0.24
0.2,-0.97,0.23
0.2,-1,0.24
0.17,-0.98,0.24
0.2,-0.96,0.27
0.18,-1,0.3
0.15,-1.04,0.34
0.16,-1.12,0.34
0.14,-1.14,0.36
0.11,-1.11,0.37
0.04,-1.13,0.39
0.03,-1.17,0.41
0.1,-1.12,0.45
0.14,-1.09,0.55
0.1,-1.13,0.56
0.03,-1.16,0.52
0.05,-1.14,0.56
0.07,-1.14,0.56
0.04,-1.14,0.52
0.01,-1.12,0.49
-0.01,-1.07,0.51
0.04,-1.07,0.52
0.03,-1.08,0.49
-0.05,-1.09,0.5
-0.07,-1.1,0.53
-0.18,-1.07,0.55
-0.16,-1,0.6
-0.2,-0.97,0.64
-0.24,-0.98,0.65
-0.24,-0.96,0.71
-0.27,-0.89,0.76
-0.27,-0.89,0.76
-0.29,-0.91,0.75
-0.26,-0.94,0.71
-0.28,-0.92,0.66
-0.28,-0.92,0.69
-0.29,-0.92,0.71
-0.32,-0.95,0.74
-0.31,-0.96,0.79
-0.25,-0.83,0.84
-0.38,-0.78,0.81
-0.5,-0.83,0.81
-0.5,-0.83,0.81
-0.45,-0.85,0.77
-0.33,-0.83,0.81
-0.32,-0.92,0.77
-0.3,-0.85,0.72
-0.3,-0.85,0.72
-0.24,-0.8,0.68
-0.11,-0.77,0.68
-0.05,-0.78,0.65
0.04,-0.8,0.76
0.04,-0.8,0.76
0.07,-0.87,0.79
0.08,-0.84,0.81
0.08,-0.77,0.86
0.09,-0.8,0.91
0.07,-0.86,0.94
-0.01,-0.88,0.95
-0.09,-0.83,0.96
-0.12,-0.81,0.97
-0.1,-0.85,1.01
-0.1,-0.87,1.06
-0.15,-0.82,1.11
-0.21,-0.82,1.12
-0.23,-0.83,1.12
-0.21,-0.85,1.14
-0.2,-0.82,1.13
-0.2,-0.81,1.13
-0.21,-0.81,1.13
-0.23,-0.79,1.1
-0.22,-0.74,1.03
-0.22,-0.78,0.97
-0.23,-0.85,0.92
-0.25,-0.76,0.82
-0.17,-0.81,0.86
-0.11,-0.77,0.8
-0.17,-0.82,0.73
-0.17,-0.9,0.67
-0.16,-0.82,0.67
-0.21,-0.77,0.63
-0.2,-0.78,0.58
-0.14,-0.75,0.53
-0.09,-0.71,0.26
-0.36,-1.03,-0.16
-0.19,-1.58,-0.44
0.22,-1.2,-0.48
0,-0.13,0.05
-0.38,0.22,1.2
-0.4,-0.49,2.59
0,-0.58,3.27
0.41,0.08,2.35
0.94,0.25,0.98
0.76,0.12,0.66
-0.53,0.02,1.14
-1.28,-0.06,1.4
-1.03,-0.04,1.31
-0.32,0.09,1.28
0.3,0.05,1.3
0.46,-0.09,1.34
0.37,-0.21,1.1
0.37,-0.25,0.88
0.45,-0.27,0.74
0.44,-0.27,0.66
0.34,-0.27,0.57
0.2,-0.25,0.49
0.11,-0.21,0.43
0.06,-0.16,0.41
0.04,-0.09,0.43
0.07,-0.04,0.47
0.15,-0.01,0.49
0.16,0.03,0.5
0.25,0.06,0.52
0.35,0.09,0.5
0.3,0.13,0.51
0.28,0.17,0.56
0.32,0.18,0.6
0.34,0.17,0.62
0.34,0.17,0.6
0.31,0.14,0.56
0.28,0.12,0.55
0.26,0.1,0.57
0.28,0.1,0.61
0.33,0.1,0.66
0.37,0.1,0.69
0.37,0.11,0.72
0.35,0.12,0.79
0.29,0.16,0.83
0.3,0.16,0.83
0.33,0.15,0.81
0.36,0.14,0.79
0.38,0.14,0.78
0.38,0.13,0.78
0.36,0.14,0.8
0.31,0.17,0.85
0.27,0.23,0.9
0.28,0.28,0.94
0.31,0.31,0.97
0.34,0.31,0.94
0.35,0.34,0.87
0.34,0.38,0.83
0.31,0.45,0.82
0.28,0.51,0.84
0.27,0.55,0.85
0.27,0.58,0.84
0.27,0.6,0.84
0.29,0.62,0.83
0.32,0.62,0.8
0.33,0.63,0.77
0.3,0.65,0.76
0.27,0.67,0.76
0.26,0.67,0.73
0.26,0.64,0.69
0.21,0.52,0.67
0.18,0.5,0.58
0.2,0.55,0.53
0.25,0.61,0.53
0.33,0.64,0.59
0.39,0.63,0.69
0.35,0.6,0.71
0.31,0.58,0.66
0.29,0.55,0.57
0.29,0.53,0.47
0.27,0.56,0.45
0.28,0.57,0.49
0.33,0.55,0.53
0.35,0.55,0.58
0.38,0.54,0.67
0.43,0.54,0.71
0.46,0.55,0.65
0.48,0.56,0.55
0.51,0.58,0.45
0.54,0.59,0.39
0.57,0.57,0.41
0.61,0.55,0.52
0.63,0.53,0.65
0.63,0.54,0.76
0.61,0.56,0.8
0.59,0.56,0.7
0.55,0.49,0.6
0.56,0.5,0.53
0.6,0.5,0.53
0.64,0.5,0.61
0.66,0.48,0.78
0.64,0.46,0.94
0.6,0.48,0.98
0.56,0.5,0.93
0.52,0.48,0.86
0.46,0.45,0.8
0.41,0.41,0.76
0.39,0.38,0.74
0.37,0.35,0.76
0.35,0.31,0.8
0.39,0.29,0.82
0.46,0.25,0.79
0.48,0.27,0.76
0.52,0.31,0.77
0.52,0.26,0.77
0.49,0.26,0.79
0.51,0.25,0.81
0.49,0.24,0.84
0.45,0.24,0.86
0.43,0.24,0.84
0.49,0.26,0.82
0.57,0.26,0.81
0.62,0.25,0.84
0.61,0.27,0.88
0.6,0.28,0.93
0.58,0.29,0.98
0.56,0.32,1.05
0.54,0.36,1.14
0.54,0.42,1.25
0.58,0.43,1.3
0.59,0.52,1.4
0.61,0.53,1.46
0.63,0.35,1.39
0.5,0.23,1.33
0.44,0.13,1.26
0.46,0.07,1.2
0.38,0.06,1.17
0.36,0.04,1.16
0.39,0.02,1.18
0.41,-0.02,1.22
0.46,-0.04,1.23
0.5,-0.07,1.22
0.5,-0.08,1.18
0.48,-0.07,1.13
0.45,-0.05,1.07
0.4,-0.03,1
0.37,-0.02,0.93
0.34,0,0.88
0.31,0.01,0.8
0.29,0.02,0.79
0.29,0.05,0.79
0.3,0.05,0.81
0.32,0.06,0.81
0.33,0.07,0.83
0.31,0.07,0.84
0.29,0.06,0.87
0.26,0.05,1
0.43,0.02,1.11
0.73,-0.04,1.15
0.79,-0.06,1.1
0.65,-0.02,0.98
0.55,0.02,0.89
0.48,0.02,0.85
0.4,0.02,0.85
0.34,0.02,0.86
0.32,0,0.87
0.31,0,0.9
0.3,0,0.95
0.3,-0.01,0.99
0.3,-0.03,1.03
0.31,-0.03,1.02
0.32,-0.03,0.98
0.33,-0.02,0.95
0.35,-0.01,0.92
0.37,-0.01,0.92
0.4,-0.01,0.93
0.42,0,0.93
0.42,0.01,0.92
0.38,0.02,0.93
0.36,0,0.94
0.38,-0.02,0.94
0.39,-0.01,0.94
0.39,-0.01,0.93
0.39,-0.02,0.93
0.39,-0.01,0.94
0.38,-0.01,0.93
0.38,-0.01,0.93
0.38,-0.01,0.93
0.37,-0.01,0.94
0.37,-0.01,0.94
0.36,-0.01,0.94
0.37,-0.01,0.94
0.37,0,0.94
0.38,0,0.94
0.38,-0.01,0.94
0.39,-0.01,0.93
0.39,-0.02,0.93
0.39,-0.01,0.93
0.39,-0.01,0.93
0.39,-0.01,0.93
0.39,0,0.93
0.39,-0.01,0.93
0.39,-0.01,0.93
0.38,-0.01,0.93
0.38,0,0.93
0.38,-0.01,0.92
0.38,-0.02,0.93
0.39,-0.01,0.93
0.4,-0.01,0.93
0.41,-0.01,0.93
0.4,0,0.93
0.39,-0.01,0.93
0.38,-0.01,0.93
0.38,-0.01,0.93
0.38,-0.01,0.93
0.39,-0.01,0.93
0.39,-0.01,0.93
0.4,0,0.93
0.4,-0.01,0.93
0.4,-0.01,0.92
0.4,-0.01,0.92
0.4,0,0.93
0.4,0,0.93
0.4,0,0.93
0.4,0,0.92
0.39,0,0.93
0.39,0,0.93
0.39,0,0.93
0.38,0,0.93
0.38,0,0.93
0.38,0,0.93
0.38,0,0.93
0.39,0,0.93
0.39,-0.01,0.93
0.4,0,0.92
0.4,0,0.93
0.4,0,0.93
0.39,0,0.93
0.39,0,0.93
0.38,0,0.93
0.37,-0.01,0.93
0.37,-0.01,0.94
0.38,-0.01,0.94
0.38,-0.01,0.94
0.39,-0.01,0.93
0.39,-0.01,0.93
0.4,-0.01,0.93
0.41,-0.02,0.93
0.41,-0.02,0.93
0.4,-0.01,0.93
0.39,-0.01,0.93
0.38,0,0.93
0.37,0,0.94
0.37,0,0.94
0.37,0,0.94
0.36,-0.01,0.94
0.37,-0.01,0.94
0.37,-0.01,0.94
0.38,-0.01,0.93
0.38,-0.01,0.93
0.38,-0.01,0.93
0.38,-0.01,0.93
0.38,-0.01,0.93
0.39,0,0.93
0.38,0,0.93
0.38,0,0.93
0.38,-0.01,0.93
0.38,-0.01,0.93
0.38,-0.01,0.93
0.38,-0.01,0.93
0.38,-0.01,0.94
0.37,-0.01,0.94
0.37,-0.01,0.93
0.37,-0.01,0.93
0.37,-0.01,0.93
0.37,-0.01,0.93
0.38,-0.01,0.93
0.39,-0.01,0.93
0.39,-0.01,0.93
0.39,-0.01,0.93
0.39,-0.01,0.93
0.38,-0.01,0.93
0.38,-0.01,0.93
0.39,-0.01,0.93
0.39,-0.01,0.93
0.39,-0.02,0.93
0.39,-0.02,0.93
0.39,-0.02,0.93
0.39,-0.02,0.93
0.39,-0.02,0.93
0.39,-0.02,0.93
0.39,-0.02,0.93
0.39,-0.03,0.93
0.38,-0.03,0.93
0.38,-0.02,0.93
0.39,-0.02,0.93
0.39,-0.01,0.92
0.39,-0.02,0.92
0.39,-0.02,0.92
0.4,-0.02,0.93
0.4,-0.02,0.93
0.39,-0.02,0.93
0.39,-0.02,0.93
0.39,-0.02,0.93
0.38,-0.02,0.93
0.38,-0.02,0.93
0.38,-0.02,0.93
0.38,-0.02,0.93
0.38,-0.02,0.93
0.38,-0.03,0.94
0.39,-0.02,0.94
0.39,0,0.91
0.38,-0.01,0.92
0.4,-0.04,0.96
0.39,-0.04,0.95
0.35,-0.03,0.93
0.36,-0.03,0.93
0.38,-0.04,0.93
0.38,-0.04,0.92
0.4,-0.03,0.92
0.42,-0.03,0.92
0.43,-0.04,0.92
0.43,-0.03,0.92
0.41,-0.04,0.92
0.4,-0.05,0.93
0.39,-0.05,0.93
0.38,-0.05,0.93
0.37,-0.05,0.94
0.37,-0.04,0.93
0.38,-0.03,0.92
0.38,-0.03,0.92
0.39,-0.02,0.92
0.4,-0.01,0.93
0.39,-0.01,0.93
0.38,-0.02,0.95
0.34,-0.01,0.95
0.34,0,0.94
0.36,-0.01,0.94
0.35,-0.02,0.95
0.36,-0.03,0.94
0.37,-0.04,0.94
0.36,-0.05,0.95
0.35,-0.05,0.97
0.34,-0.05,0.98
0.31,-0.04,0.99
0.29,-0.05,0.99
0.31,-0.06,0.99
0.32,-0.07,0.98
0.34,-0.08,0.98
0.35,-0.06,0.98
0.36,-0.04,0.99
0.37,-0.02,0.99
0.38,0.02,1
0.38,0.01,1.02
0.35,-0.08,1.05
0.31,-0.18,1.07
0.28,-0.24,1.04
0.3,-0.15,1.01
0.39,-0.13,0.98
0.42,-0.15,0.95
0.43,-0.15,0.93
0.42,-0.11,0.93
0.39,-0.1,0.95
0.38,-0.1,0.92
0.36,-0.1,0.91
0.36,-0.11,0.92
0.38,-0.13,0.94
0.37,-0.15,0.95
0.38,-0.15,0.9
0.41,-0.14,0.88
0.37,-0.14,0.92
0.31,-0.18,0.93
0.31,-0.25,0.95
0.3,-0.27,0.94
0.27,-0.29,0.86
0.25,-0.32,0.86
0.21,-0.33,0.87
0.18,-0.36,0.88
0.17,-0.42,0.91
0.18,-0.48,0.93
0.19,-0.52,0.93
0.17,-0.55,0.92
0.15,-0.56,0.93
0.12,-0.5,0.94
0.17,-0.5,0.98
0.14,-0.51,1.04
0.15,-0.49,1.02
0.2,-0.49,1.01
0.23,-0.54,1.01
0.21,-0.59,1
0.18,-0.63,1.04
0.15,-0.65,1.09
0.11,-0.66,1.09
0.09,-0.65,1.06
0.08,-0.64,1.05
0.07,-0.65,1.06
0.04,-0.67,1.07
0.01,-0.69,1.06
0,-0.69,1.05
0,-0.66,1.06
0,-0.63,1.08
-0.02,-0.62,1.08
-0.08,-0.6,1.09
-0.08,-0.59,1.07
-0.03,-0.56,1.02
0.03,-0.55,0.96
0.13,-0.54,0.95
0.2,-0.5,0.99
0.23,-0.49,1.02
0.24,-0.51,1.01
0.12,-0.52,1.03
0.03,-0.49,1.07
-0.04,-0.47,1.09
-0.09,-0.47,1.09
-0.1,-0.47,1.09
-0.08,-0.49,1.12
-0.05,-0.51,1.13
-0.01,-0.53,1.11
0.03,-0.53,1.11
0.06,-0.52,1.11
0.08,-0.51,1.08
0.08,-0.51,1.05
0.07,-0.5,1.02
0.09,-0.49,0.99
0.1,-0.48,0.95
0.11,-0.46,0.93
0.11,-0.43,0.95
0.11,-0.41,0.96
0.11,-0.4,0.96
0.12,-0.39,0.95
0.13,-0.38,0.92
0.12,-0.38,0.9
0.11,-0.38,0.89
0.1,-0.36,0.88
0.1,-0.35,0.85
0.09,-0.33,0.83
0.09,-0.3,0.83
0.08,-0.3,0.84
0.08,-0.33,0.83
0.05,-0.36,0.81
0.05,-0.31,0.83
0.03,-0.25,0.86
-0.08,-0.22,0.89
-0.11,-0.24,0.89
-0.05,-0.29,0.9
0,-0.3,0.92
0.02,-0.28,0.93
0.05,-0.22,0.86
0,-0.21,0.84
0,-0.24,0.82
0.01,-0.24,0.79
0,-0.22,0.77
-0.01,-0.22,0.76
-0.03,-0.21,0.74
-0.04,-0.19,0.75
-0.04,-0.17,0.75
-0.03,-0.15,0.74
-0.02,-0.14,0.73
-0.01,-0.13,0.72
0.01,-0.13,0.74
-0.01,-0.13,0.76
-0.04,-0.1,0.74
-0.05,-0.11,0.73
-0.05,-0.09,0.73
-0.07,-0.08,0.74
-0.1,-0.1,0.76
-0.1,-0.1,0.78
-0.11,-0.12,0.78
-0.13,-0.15,0.77
-0.16,-0.17,0.77
-0.17,-0.18,0.76
-0.18,-0.19,0.76
-0.2,-0.19,0.77
-0.21,-0.2,0.77
-0.22,-0.22,0.77
-0.23,-0.23,0.76
-0.25,-0.21,0.75
-0.25,-0.18,0.76
-0.26,-0.2,0.76
-0.23,-0.22,0.78
-0.24,-0.24,0.8
-0.28,-0.24,0.79
-0.29,-0.23,0.79
-0.31,-0.25,0.79
-0.36,-0.26,0.77
-0.38,-0.27,0.76
-0.37,-0.26,0.77
-0.38,-0.3,0.82
-0.39,-0.31,0.85
-0.41,-0.33,0.85
-0.43,-0.34,0.85
-0.44,-0.35,0.84
-0.44,-0.36,0.84
-0.45,-0.37,0.85
-0.45,-0.38,0.86
-0.46,-0.4,0.85
-0.45,-0.4,0.85
-0.44,-0.44,0.87
-0.45,-0.46,0.91
-0.44,-0.42,0.93
-0.45,-0.42,0.93
-0.46,-0.4,0.91
-0.47,-0.39,0.89
-0.46,-0.4,0.88
-0.42,-0.4,0.88
-0.36,-0.44,0.87
-0.35,-0.46,0.88
-0.35,-0.46,0.9
-0.32,-0.48,0.93
-0.31,-0.49,0.96
-0.31,-0.49,0.97
-0.31,-0.49,0.97
-0.31,-0.49,0.95
-0.32,-0.5,0.98
-0.31,-0.52,1.01
-0.33,-0.56,1.05
-0.37,-0.58,1.07
-0.43,-0.59,1.08
-0.48,-0.56,1.07
-0.5,-0.53,1.05
-0.5,-0.49,1.02
-0.48,-0.48,0.99
-0.46,-0.48,0.97
-0.45,-0.48,0.97
-0.43,-0.48,0.96
-0.42,-0.48,0.95
-0.39,-0.47,0.92
-0.37,-0.47,0.9
-0.35,-0.46,0.88
-0.33,-0.46,0.86
-0.33,-0.45,0.86
-0.34,-0.44,0.86
-0.33,-0.43,0.86
-0.32,-0.4,0.84
-0.32,-0.37,0.81
-0.32,-0.34,0.78
-0.31,-0.34,0.78
-0.31,-0.32,0.78
-0.3,-0.32,0.82
-0.3,-0.35,0.85
-0.31,-0.34,0.86
-0.36,-0.33,0.86
-0.36,-0.32,0.81
-0.38,-0.31,0.77
-0.39,-0.29,0.74
-0.37,-0.29,0.75
-0.34,-0.3,0.76
-0.33,-0.31,0.76
-0.32,-0.31,0.74
-0.31,-0.31,0.7
-0.31,-0.29,0.64
-0.31,-0.27,0.61
-0.3,-0.25,0.59
-0.28,-0.24,0.58
-0.27,-0.23,0.58
-0.25,-0.25,0.58
-0.23,-0.3,0.59
-0.2,-0.37,0.61
-0.2,-0.44,0.62
-0.24,-0.47,0.61
-0.29,-0.47,0.59
-0.31,-0.46,0.57
-0.3,-0.46,0.54
-0.27,-0.48,0.52
-0.24,-0.5,0.52
-0.25,-0.5,0.58
-0.25,-0.5,0.63
-0.23,-0.51,0.66
-0.2,-0.54,0.67
-0.17,-0.59,0.67
-0.16,-0.64,0.66
-0.09,-0.65,0.67
-0.12,-0.67,0.69
-0.2,-0.69,0.7
-0.2,-0.68,0.7
-0.21,-0.67,0.7
-0.23,-0.65,0.7
-0.24,-0.63,0.72
-0.23,-0.61,0.73
-0.2,-0.61,0.72
-0.17,-0.63,0.72
-0.14,-0.64,0.72
-0.09,-0.65,0.72
-0.05,-0.65,0.72
-0.03,-0.65,0.72
-0.03,-0.66,0.74
-0.02,-0.69,0.76
0.27,-0.98,0.82
0.32,-1.02,0.8
0.36,-1.05,0.78
0.4,-1.11,0.76
0.45,-1.13,0.73
0.49,-1.17,0.7
0.49,-1.24,0.69
0.52,-1.22,0.68
0.52,-1.25,0.67
0.45,-1.34,0.67
0.43,-1.39,0.67
0.42,-1.44,0.68
0.37,-1.45,0.7
0.34,-1.43,0.7
0.32,-1.49,0.7
0.31,-1.51,0.73
0.3,-1.46,0.72
0.27,-1.46,0.66
0.2,-1.51,0.63
0.21,-1.51,0.62
0.25,-1.45,0.58
0.25,-1.49,0.54
0.26,-1.53,0.54
0.28,-1.52,0.53
0.29,-1.47,0.51
0.27,-1.43,0.5
0.26,-1.38,0.52
0.25,-1.32,0.53
0.28,-1.23,0.48
0.28,-1.19,0.45
0.23,-1.21,0.44
0.22,-1.23,0.44
0.23,-1.2,0.42
0.21,-1.17,0.37
0.19,-1.14,0.32
0.17,-1.13,0.28
0.18,-1.12,0.27
0.19,-1.11,0.28
0.19,-1.09,0.3
0.21,-1.08,0.32
0.22,-1.07,0.34
0.23,-1.06,0.34
0.21,-1.04,0.34
0.2,-1.01,0.29
0.17,-0.96,0.26
0.16,-0.92,0.24
0.15,-0.87,0.22
0.14,-0.85,0.21
0.14,-0.82,0.2
0.14,-0.77,0.2
0.14,-0.74,0.2
0.16,-0.71,0.19
0.18,-0.68,0.19
0.19,-0.65,0.18
0.19,-0.62,0.19
0.19,-0.6,0.2
0.2,-0.57,0.19
0.2,-0.54,0.19
0.19,-0.51,0.18
0.19,-0.48,0.17
0.18,-0.46,0.17
0.17,-0.44,0.15
0.16,-0.44,0.15
0.16,-0.43,0.15
0.16,-0.43,0.15
0.14,-0.43,0.15
0.13,-0.44,0.15
0.13,-0.45,0.13
0.13,-0.45,0.11
0.15,-0.46,0.09
0.16,-0.52,0.09
0.17,-0.55,0.08
0.18,-0.58,0.08
0.19,-0.61,0.08
0.19,-0.64,0.08
0.18,-0.66,0.07
0.18,-0.69,0.05
0.19,-0.72,0.04
0.2,-0.75,0.02
0.21,-0.79,0.01
0.23,-0.83,0.01
0.25,-0.88,0.02
0.27,-1.03,-0.01
0.27,-1.06,-0.02
0.27,-1.09,-0.05
0.28,-1.09,-0.08
0.29,-1.08,-0.11
0.3,-1.08,-0.14
0.29,-1.08,-0.14
0.28,-1.08,-0.13
0.27,-1.08,-0.13
0.26,-1.07,-0.13
0.26,-1.06,-0.13
0.26,-1.04,-0.15
0.28,-0.97,-0.13
0.3,-0.93,-0.12
0.3,-0.92,-0.1
0.3,-0.91,-0.09
0.3,-0.9,-0.08
0.3,-0.9,-0.08
0.3,-0.89,-0.08
0.31,-0.89,-0.07
0.3,-1.08,0.03
0.3,-1.08,0.03
0.29,-1.04,0.05
0.27,-1,0.06
0.26,-0.98,0.07
0.21,-0.93,0.11
0.21,-0.93,0.11
0.19,-0.95,0.16
0.17,-0.97,0.17
0.17,-1,0.2
0.12,-1.05,0.26
0.12,-1.07,0.26
0.14,-1.09,0.25
0.16,-1.1,0.24
0.16,-1.12,0.23
0.16,-1.13,0.22
0.16,-1.13,0.22
0.17,-1.13,0.21
0.18,-1.12,0.21
0.18,-1.09,0.22
0.16,-1.07,0.22
0.15,-1.04,0.21
0.15,-1.02,0.19
0.17,-1,0.17
0.18,-0.99,0.16
0.18,-0.99,0.16
0.18,-0.98,0.16
0.16,-0.97,0.17
0.14,-0.97,0.16
0.13,-0.97,0.15
0.12,-0.96,0.15
0.11,-0.95,0.14
0.11,-0.95,0.15
0.12,-0.96,0.15
0.13,-0.96,0.16
0.13,-0.96,0.17
0.13,-0.96,0.18
0.14,-0.96,0.19
0.14,-0.96,0.19
0.13,-0.96,0.19
0.13,-0.96,0.2
0.14,-0.97,0.19
0.14,-0.97,0.19
0.14,-0.97,0.18
0.14,-0.97,0.17
0.14,-0.96,0.17
0.15,-0.95,0.17
0.15,-0.94,0.17
0.16,-0.94,0.17
0.16,-0.93,0.18
0.16,-0.93,0.18
0.15,-0.93,0.18
0.14,-0.92,0.17
0.14,-0.92,0.17
0.14,-0.92,0.17
0.14,-0.92,0.17
0.13,-0.92,0.17
0.13,-0.92,0.16
0.13,-0.93,0.15
0.14,-0.96,0.14
0.14,-0.97,0.13
0.14,-0.98,0.12
0.14,-0.99,0.11
0.14,-1,0.11
0.14,-1,0.11
0.13,-1.01,0.11
0.12,-1.01,0.11
0.11,-1.02,0.11
0.1,-1.02,0.11
0.1,-1.02,0.11
0.09,-1.01,0.1
0.09,-1,0.1
0.08,-1,0.09
0.06,-1,0.09
0.05,-0.99,0.09
0.04,-1,0.09
0.03,-1,0.09
0.03,-1,0.09
0.03,-1,0.09
0.02,-1.01,0.09
0.01,-1.02,0.09
0.01,-1.01,0.1
0,-1.01,0.1
0,-1.02,0.09
0,-1.03,0.11
0.01,-1.04,0.11
0.02,-1.04,0.12
0.02,-1.05,0.14
0.03,-1.07,0.14
0.02,-1.09,0.15
0.01,-1.1,0.15
0.01,-1.1,0.15
0.02,-1.1,0.16
0.02,-1.09,0.14
0.01,-1.07,0.13
0.01,-1.06,0.14
0.03,-1.05,0.14
0.05,-1.06,0.14
0.06,-1.05,0.16
0.07,-1.04,0.17
0.08,-1.03,0.16
0.08,-1.02,0.16
0.08,-1,0.16
0.08,-0.98,0.15
0.09,-0.96,0.15
0.1,-0.94,0.14
0.12,-0.93,0.14
0.13,-0.93,0.14
0.14,-0.94,0.14
0.14,-0.95,0.14
0.15,-0.96,0.12
0.19,-0.96,0.11
0.2,-0.96,0.11
0.2,-0.97,0.11
0.21,-0.97,0.11
0.22,-0.98,0.11
0.23,-0.99,0.11
0.23,-0.99,0.12
0.24,-0.99,0.11
0.26,-0.99,0.12
0.27,-1,0.11
0.28,-1,0.11
0.28,-1.02,0.11
0.28,-1.03,0.11
0.29,-1.04,0.1
0.29,-1.05,0.1
0.29,-1.05,0.1
0.3,-1.06,0.11
0.3,-1.06,0.11
0.29,-1.05,0.12
0.29,-1.04,0.12
0.29,-1.03,0.12
0.29,-1.03,0.12
0.29,-1.02,0.12
0.29,-1.01,0.12
0.28,-1.01,0.12
0.28,-1,0.12
0.29,-1.01,0.12
0.29,-1,0.13
0.28,-0.99,0.13
0.28,-0.99,0.14
0.27,-0.99,0.14
0.27,-0.99,0.14
0.27,-0.99,0.14
0.26,-0.99,0.14
0.26,-1,0.14
0.26,-1,0.15
0.26,-1.01,0.15
0.26,-1.01,0.15
0.27,-1.01,0.15
0.27,-1.01,0.16
0.27,-1,0.16
0.27,-0.99,0.17
0.26,-0.99,0.18
0.25,-0.99,0.19
0.25,-0.98,0.2
0.25,-0.97,0.2
0.25,-0.97,0.21
0.25,-0.99,0.23
0.25,-1.02,0.23
0.25,-1.05,0.24
0.25,-1.08,0.25
0.24,-1.1,0.25
0.24,-1.08,0.24
0.23,-1.03,0.23
0.22,-0.98,0.22
0.22,-0.93,0.21
0.23,-0.89,0.2
0.25,-0.87,0.2
0.25,-0.87,0.21
0.26,-0.89,0.21
0.26,-0.92,0.23
0.25,-0.96,0.24
0.23,-1.01,0.24
0.22,-1.06,0.23
0.19,-1.09,0.21
0.17,-1.1,0.17
0.16,-1.11,0.14
0.16,-1.11,0.11
0.18,-1.09,0.09
0.19,-1.07,0.09
0.21,-1.04,0.1
0.22,-1.04,0.1
0.22,-1.04,0.11
0.21,-1.04,0.11
0.22,-1.04,0.1
0.22,-1.03,0.08
0.22,-1.03,0.07
0.21,-1.02,0.06
0.2,-0.97,0.05
0.17,-0.96,0.04
0.15,-0.94,0.04
0.13,-0.93,0.02
0.13,-0.92,0.02
0.14,-0.9,0.02
0.16,-0.9,0.02
0.17,-0.9,0.02
0.19,-0.91,0.04
0.18,-0.92,0.04
0.17,-0.93,0.02
0.18,-0.94,0.01
0.17,-0.96,0.01
0.16,-0.98,0.01
0.16,-1,0.01
0.17,-1.01,0
0.17,-1.02,0
0.17,-1.03,0
0.2,-1.04,0.04
0.21,-1.03,0.04
0.21,-1.03,0.04
0.22,-1.02,0.05
0.22,-1.02,0.06
0.21,-1.06,0.16
0.21,-1.06,0.16
0.21,-1.07,0.15
0.22,-1.09,0.14
0.23,-1.12,0.14
0.24,-1.17,0.14
0.24,-1.17,0.14
0.25,-1.15,0.14
0.25,-1.11,0.15
0.26,-1.07,0.14
0.28,-1.01,0.13
0.29,-0.97,0.13
0.31,-0.94,0.14
0.31,-0.9,0.17
0.31,-0.87,0.2
0.32,-0.85,0.22
0.33,-0.83,0.25
0.32,-0.82,0.29
0.31,-0.82,0.33
0.29,-0.83,0.34
0.27,-0.85,0.34
0.26,-0.87,0.35
0.25,-0.89,0.35
0.24,-0.9,0.36
0.23,-0.92,0.37
0.23,-0.93,0.39
0.24,-0.93,0.4
0.25,-0.92,0.42
0.26,-0.89,0.45
0.28,-0.87,0.46
0.3,-0.84,0.45
0.32,-0.82,0.44
0.32,-0.82,0.43
0.32,-0.81,0.42
0.31,-0.8,0.41
0.32,-0.8,0.41
0.3,-0.8,0.41
0.25,-0.75,0.35
0.24,-0.73,0.34
0.23,-0.71,0.34
0.22,-0.7,0.33
0.21,-0.69,0.33
0.2,-0.68,0.31
0.19,-0.67,0.3
0.18,-0.67,0.28
0.17,-0.66,0.27
0.16,-0.67,0.26
0.16,-0.69,0.26
0.16,-0.69,0.26
0.16,-0.71,0.26
0.16,-0.73,0.26
0.16,-0.75,0.26
0.15,-0.76,0.25
0.15,-0.77,0.24
0.14,-0.77,0.23
0.13,-0.75,0.23
0.11,-0.74,0.22
0.11,-0.75,0.22
0.12,-0.76,0.21
0.13,-0.78,0.2
0.15,-0.79,0.2
0.16,-0.79,0.22
0.14,-0.79,0.23
0.11,-0.78,0.25
0.1,-0.79,0.27
0.12,-0.79,0.28
0.12,-0.79,0.29
0.12,-0.79,0.28
0.15,-0.79,0.26
0.17,-0.8,0.26
0.17,-0.78,0.29
0.18,-0.79,0.32
0.18,-0.81,0.38
0.16,-0.82,0.43
0.14,-0.83,0.45
0.12,-0.84,0.44
0.12,-0.84,0.43
0.17,-0.89,0.51
0.15,-0.89,0.5
0.15,-0.89,0.5
0.16,-0.91,0.47
0.17,-0.94,0.45
0.18,-0.96,0.54
0.19,-0.95,0.54
0.17,-0.96,0.52
0.17,-0.96,0.52
0.18,-0.98,0.53
0.16,-1.01,0.51
0.17,-1,0.5
0.19,-1.01,0.52
0.18,-1.03,0.52
0.17,-1.03,0.52
0.17,-1.03,0.5
0.17,-1.05,0.49
0.15,-1.09,0.49
0.16,-1.07,0.45
0.16,-1.04,0.43
0.12,-1.07,0.44
0.13,-1.07,0.42
0.15,-1.06,0.38
0.15,-1.08,0.37
0.14,-1.09,0.36
0.15,-1.09,0.36
0.14,-1.1,0.38
0.11,-1.11,0.41
0.09,-1.09,0.42
0.08,-1.07,0.42
0.05,-1.06,0.4
0.02,-1.05,0.37
-0.01,-1.06,0.35
-0.02,-1.06,0.33
-0.02,-1.06,0.31
0.01,-1.08,0.29
0.04,-1.08,0.28
0.04,-1.1,0.26
0.03,-1.14,0.21
0.05,-1.18,0.16
0.05,-1.22,0.1
0.03,-1.23,0.06
0.03,-1.24,-0.01
0.04,-1.27,-0.09
0.05,-1.29,-0.13
0.07,-1.29,-0.13
0.06,-1.28,-0.09
0.05,-1.29,-0.08
0.06,-1.31,-0.1
0.06,-1.35,-0.14
0.08,-1.36,-0.18
0.13,-1.35,-0.2
0.15,-1.37,-0.22
0.17,-1.39,-0.23
0.2,-1.4,-0.21
0.26,-1.39,-0.14
0.28,-1.4,0.03
0.26,-1.43,0.08
0.27,-1.43,0.07
0.29,-1.44,0.05
0.32,-1.46,0.06
0.39,-1.44,0.12
0.42,-1.48,0.12
0.37,-1.56,0.1
0.36,-1.54,0.08
0.36,-1.52,-0.01
0.37,-1.46,-0.05
0.38,-1.39,-0.02
0.38,-1.33,0.05
0.33,-1.27,0.13
0.3,-1.22,0.17
0.31,-1.19,0.18
0.29,-1.15,0.21
0.26,-1.09,0.24
0.22,-1.03,0.27
0.17,-0.95,0.27
0.13,-0.84,0.2
0.1,-0.76,0.1
0.13,-0.7,0.08
0.16,-0.67,0.13
0.1,-0.68,0.2
0.06,-0.69,0.25
0.02,-0.7,0.3
0.01,-0.68,0.25
-0.06,-0.69,0
-0.04,-0.78,-0.28
0.09,-0.85,-0.3
0.23,-0.9,-0.21
0.28,-0.98,-0.11
0.29,-1,-0.05
0.4,-0.97,-0.13
0.47,-0.93,-0.34
0.56,-0.94,-0.56
0.83,-1.07,-0.67
1.1,-1.26,-0.49
0.58,-1.4,-0.09
-0.09,-1.47,0.23
-0.17,-1.43,0.42
-0.29,-1.53,0.59
-0.17,-1.89,0.57
0.23,-1.99,0.21
0.36,-1.63,-0.01
0.17,-1.09,0.18
0.05,-0.75,0.37
0.06,-0.76,0.23
0.05,-0.98,-0.02
0.08,-1.18,-0.15
0.08,-1.14,-0.14
0.06,-1,0.08
0.02,-0.95,0.18
0.1,-1.02,0.21
0.13,-1.06,0.3
0.22,-1.1,0.32
0.25,-1.13,0.35
0.27,-1.1,0.34
0.28,-1.09,0.22
0.14,-1.05,0.17
0.05,-0.97,0.07
0,-0.98,-0.05
-0.03,-1.02,-0.11
0.1,-1.02,-0.15
0.17,-0.98,-0.15
0.17,-0.96,-0.21
0.21,-0.97,-0.21
0.23,-0.97,-0.1
0.21,-0.97,0
0.18,-1,0.08
0.17,-1.04,0.14
0.17,-1.07,0.15
0.19,-1.09,0.13
0.25,-1.07,0.11
0.3,-1.06,0.05
0.34,-1.05,0
0.41,-1.03,-0.01
0.5,-1,-0.01
0.31,-1.02,-0.02
0.11,-1.08,-0.01
-0.11,-0.99,0
-0.06,-0.98,-0.2
0.15,-1.06,-0.29
0.27,-0.99,-0.23
0.46,-0.91,-0.25
0.64,-0.9,-0.22
0.64,-0.9,-0.16
0.53,-0.86,-0.17
0.38,-0.85,-0.27
0.23,-0.82,-0.39
0.19,-0.8,-0.51
0.25,-0.8,-0.57
0.27,-0.78,-0.56
0.28,-0.76,-0.55
0.34,-0.77,-0.55
0.4,-0.78,-0.5
0.41,-0.82,-0.41
0.37,-0.86,-0.33
0.37,-0.9,-0.28
0.38,-0.93,-0.25
0.4,-0.95,-0.25
0.39,-0.94,-0.3
0.39,-0.91,-0.36
0.44,-0.87,-0.51
0.49,-0.76,-0.52
0.42,-0.75,-0.54
0.44,-0.74,-0.66
0.49,-0.75,-0.75
0.53,-0.78,-0.77
0.55,-0.79,-0.8
0.54,-0.8,-0.83
0.51,-0.8,-0.75
0.51,-0.8,-0.63
0.51,-0.8,-0.56
0.57,-0.78,-0.6
0.62,-0.75,-0.68
0.62,-0.75,-0.67
0.62,-0.76,-0.61
0.65,-0.72,-0.55
0.69,-0.7,-0.48
0.72,-0.68,-0.42
0.77,-0.62,-0.4
0.86,-0.56,-0.39
0.93,-0.5,-0.38
0.98,-0.44,-0.38
1.02,-0.37,-0.38
1.08,-0.32,-0.42
1.06,-0.31,-0.44
1.07,-0.26,-0.43
1.14,-0.19,-0.45
1.14,-0.05,-0.53
1.09,0,-0.48
1.03,0.04,-0.43
0.98,0.1,-0.44
1.04,0.17,-0.49
1.14,0.21,-0.61
1.16,0.19,-0.63
1.09,0.13,-0.56
1.01,0.05,-0.46
0.96,0,-0.41
0.95,-0.02,-0.42
0.99,-0.03,-0.46
1.05,-0.04,-0.48
1.08,-0.07,-0.47
1.1,-0.1,-0.46
1.09,-0.13,-0.47
1.08,-0.15,-0.48
1.05,-0.18,-0.46
1.02,-0.21,-0.4
0.98,-0.23,-0.33
0.94,-0.23,-0.3
0.92,-0.21,-0.31
0.92,-0.2,-0.32
0.92,-0.2,-0.31
0.9,-0.19,-0.29
0.88,-0.2,-0.24
0.87,-0.23,-0.12
0.83,-0.22,-0.06
0.8,-0.2,0.01
0.77,-0.18,0.05
0.75,-0.15,0.04
0.74,-0.12,-0.01
0.76,-0.09,-0.06
0.79,-0.04,-0.07
0.81,0.01,-0.02
0.82,0.07,0.07
0.81,0.11,0.15
0.78,0.13,0.22
0.75,0.16,0.27
0.71,0.22,0.28
0.68,0.27,0.24
0.68,0.33,0.2
0.69,0.39,0.15
0.7,0.43,0.1
0.73,0.45,0.1
0.78,0.49,0.12
0.79,0.51,0.15
0.76,0.52,0.18
0.73,0.51,0.2
0.7,0.49,0.21
0.7,0.48,0.2
0.72,0.48,0.17
0.77,0.52,0.14
0.83,0.55,0.15
0.83,0.55,0.17
0.83,0.53,0.19
0.82,0.5,0.2
0.82,0.47,0.21
0.83,0.45,0.22
0.83,0.44,0.23
0.8,0.42,0.24
0.76,0.41,0.25
0.78,0.39,0.23
0.82,0.37,0.22
0.82,0.35,0.23
0.8,0.36,0.26
0.78,0.37,0.28
0.75,0.4,0.31
0.73,0.42,0.32
0.73,0.47,0.33
0.75,0.51,0.31
0.78,0.5,0.27
0.8,0.48,0.26
0.8,0.48,0.27
0.79,0.5,0.26
0.78,0.52,0.31
0.74,0.53,0.41
0.72,0.54,0.45
0.72,0.53,0.49
0.68,0.48,0.48
0.7,0.47,0.43
0.68,0.48,0.36
0.63,0.46,0.36
0.62,0.44,0.42
0.66,0.46,0.48
0.65,0.45,0.46
0.65,0.45,0.46
0.64,0.41,0.49
0.64,0.39,0.54
0.68,0.38,0.56
0.73,0.37,0.59
0.73,0.37,0.63
0.73,0.36,0.66
0.72,0.34,0.65
0.7,0.33,0.63
0.7,0.35,0.62
0.7,0.35,0.63
0.73,0.34,0.65
0.77,0.33,0.67
0.77,0.32,0.7
0.76,0.3,0.73
0.73,0.28,0.82
0.74,0.27,0.86
0.7,0.26,0.9
0.71,0.24,0.9
0.72,0.15,0.93
0.74,0.15,0.92
0.6,0.13,0.93
0.51,0.08,0.96
0.54,0.05,0.96
0.57,0.04,0.93
0.53,0.05,0.93
0.48,0.04,0.95
0.46,0.05,0.95
0.45,0.05,0.96
0.44,0.04,0.96
0.47,0.02,0.92
0.51,0,0.89
0.59,-0.01,1.01
0.65,0.01,1.22
0.63,0.03,1.33
0.66,-0.02,1.28
0.58,-0.04,1.14
0.44,0.01,0.92
0.39,0.08,0.86
0.36,0.06,0.83
0.36,0.05,0.8
0.36,0.05,0.79
0.37,0.04,0.8
0.4,0.03,0.83
0.44,0.04,0.89
0.48,0.03,0.95
0.5,0.01,1
0.5,0,1
0.48,-0.01,0.97
0.45,0,0.93
0.43,0.03,0.91
0.41,0.03,0.9
0.41,0.02,0.89
0.42,0.02,0.89
0.43,0.02,0.9
0.45,0.01,0.9
0.46,0.01,0.9
0.47,0.01,0.9
0.48,0.02,0.9
0.48,0.02,0.89
0.48,0.03,0.89
0.48,0.03,0.89
0.47,0.02,0.89
0.47,0.02,0.9
0.46,0.02,0.89
0.46,0.03,0.9
0.46,0.02,0.9
0.46,0.02,0.9
0.46,0.02,0.9
0.46,0.02,0.9
0.46,0.02,0.9
0.46,0.02,0.9
0.46,0.02,0.9
0.46,0.02,0.89
0.46,0.02,0.9
0.46,0.02,0.9
0.46,0.02,0.9
0.46,0.02,0.9
0.46,0.02,0.9
0.46,0.02,0.9
0.46,0.02,0.9
0.46,0.02,0.9
0.46,0.02,0.9
0.46,0.02,0.9
0.46,0.02,0.9
0.46,0.02,0.89
0.46,0.02,0.9
0.46,0.02,0.9
0.46,0.02,0.9
0.46,0.02,0.9
0.45,0.01,0.89
0.45,0.02,0.9
0.46,0.02,0.9
0.47,0.02,0.9
0.47,0.02,0.9
0.47,0.02,0.89
0.47,0.02,0.89
0.48,0.02,0.89
0.48,0.02,0.89
0.48,0.02,0.89
0.48,0.02,0.88
0.48,0.02,0.88
0.48,0.03,0.89
0.48,0.03,0.89
0.48,0.03,0.88
0.48,0.03,0.89
0.48,0.03,0.89
0.48,0.02,0.89
0.47,0.02,0.89
0.47,0.02,0.89
0.47,0.02,0.89
0.47,0.02,0.89
0.47,0.02,0.89
0.47,0.02,0.89
0.47,0.02,0.89
0.47,0.02,0.89
0.47,0.02,0.89
0.48,0.02,0.89
0.47,0.02,0.89
0.47,0.02,0.89
0.47,0.02,0.89
0.47,0.02,0.89
0.46,0.02,0.9
0.46,0.02,0.9
0.47,0.02,0.89
0.47,0.02,0.89
0.47,0.02,0.89
0.48,0.02,0.89
0.48,0.02,0.89
0.48,0.02,0.89
0.48,0.03,0.89
0.48,0.03,0.88
0.48,0.03,0.88
0.48,0.03,0.89
0.48,0.02,0.89
0.48,0.02,0.89
0.48,0.02,0.89
0.47,0.02,0.89
0.47,0.02,0.89
0.47,0.03,0.89
0.47,0.03,0.89
0.47,0.03,0.89
0.47,0.03,0.89
0.48,0.03,0.89
0.48,0.02,0.89
0.48,0.02,0.89
0.48,0.02,0.89
0.47,0.03,0.89
0.47,0.03,0.89
0.47,0.02,0.89
0.48,0.02,0.89
0.47,0.02,0.89
0.47,0.02,0.89
0.48,0.02,0.89
0.48,0.02,0.88
0.48,0.02,0.88
0.48,0.02,0.88
0.48,0.02,0.88
0.48,0.02,0.89
0.48,0.02,0.89
0.48,0.02,0.89
0.48,0.03,0.89
0.49,0.04,0.88
0.47,0.02,0.9
0.47,0.02,0.9
0.47,0.02,0.9
0.47,0.01,0.9
0.47,0.01,0.9
0.47,0.01,0.89
0.47,0.02,0.89
0.48,0.02,0.89
0.48,0.02,0.89
0.49,0.02,0.89
0.49,0.02,0.88
0.49,0.02,0.88
0.49,0.02,0.88
0.49,0.02,0.88
0.49,0.02,0.88
0.49,0.02,0.88
0.49,0.02,0.88
0.49,0.02,0.88
0.48,0.02,0.88
0.48,0.02,0.89
0.48,0.02,0.89
0.48,0.02,0.89
0.48,0.02,0.89
0.49,0.02,0.89
0.48,0.02,0.88
0.48,0.02,0.88
0.49,0.02,0.88
0.49,0.02,0.88
0.5,0.02,0.88
0.5,0.02,0.88
0.5,0.02,0.88
0.5,0.02,0.88
0.49,0.02,0.88
0.49,0.02,0.88
0.49,0.02,0.88
0.48,0.02,0.88
0.48,0.02,0.88
0.48,0.02,0.88
0.49,0.02,0.88
0.49,0.02,0.88
0.49,0.02,0.88
0.49,0.02,0.88
0.5,0.02,0.88
0.5,0.02,0.88
0.5,0.02,0.88
0.5,0.02,0.87
0.49,0.02,0.88
0.49,0.02,0.88
0.49,0.02,0.88
0.49,0.02,0.88
0.49,0.02,0.88
0.49,0.02,0.88
0.49,0.02,0.88
0.49,0.02,0.88
0.49,0.02,0.88
0.49,0.02,0.88
0.49,0.02,0.88
0.5,0.02,0.88
0.5,0.02,0.88
0.5,0.02,0.88
0.5,0.01,0.88
0.49,0.02,0.88
0.49,0.02,0.88
0.49,0.02,0.88
0.49,0.02,0.88
0.5,0.02,0.88
0.5,0.02,0.88
0.5,0.02,0.88
0.5,0.02,0.88
0.5,0.02,0.88
0.5,0.02,0.87
0.5,0.02,0.87
0.5,0.02,0.88
0.5,0.02,0.88
0.5,0.02,0.88
0.5,0.02,0.87
0.5,0.02,0.88
0.5,0.02,0.88
0.5,0.02,0.88
0.5,0.02,0.88
0.5,0.02,0.88
0.5,0.02,0.87
0.5,0.02,0.88
0.5,0.02,0.88
0.5,0.02,0.88
0.5,0.02,0.88
0.5,0.02,0.88
0.5,0.02,0.88
0.5,0.02,0.88
0.5,0.02,0.88
0.5,0.02,0.88
0.5,0.02,0.88
0.5,0.02,0.87
0.51,0.02,0.87
0.51,0.02,0.88
0.5,0.02,0.88
0.5,0.01,0.88
0.5,0.02,0.88
0.49,0.02,0.88
0.49,0.01,0.88
0.49,0.02,0.88
0.5,0.02,0.88
0.5,0.02,0.88
0.51,0.02,0.87
0.51,0.02,0.87
0.51,0.02,0.87
0.51,0.02,0.87
0.51,0.02,0.87
0.5,0.02,0.87
0.5,0.02,0.88
0.5,0.01,0.88
0.5,0.02,0.88
0.5,0.02,0.88
0.5,0.02,0.88
0.5,0.02,0.88
0.5,0.02,0.88
0.5,0.02,0.88
0.5,0.02,0.88
0.5,0.02,0.88
0.51,0.02,0.87
0.5,0.02,0.87
0.51,0.02,0.87
0.5,0.02,0.88
0.5,0.02,0.88
0.5,0.02,0.88
0.5,0.02,0.87
0.5,0.02,0.87
0.5,0.02,0.88
0.5,0.01,0.88
0.5,0.02,0.88
0.5,0.02,0.88
0.5,0.01,0.87
0.5,0.02,0.87
0.5,0.02,0.88
0.5,0.02,0.88
0.5,0.02,0.87
0.5,0.02,0.87
0.5,0.02,0.88
0.5,0.02,0.88
0.5,0.02,0.87
0.5,0.02,0.87
0.5,0.02,0.87
0.5,0.02,0.88
0.5,0.02,0.88
0.5,0.02,0.88
0.5,0.02,0.87
0.5,0.02,0.87
0.5,0.02,0.87
0.5,0.02,0.87
0.5,0.02,0.88
0.5,0.02,0.88
0.5,0.02,0.87
0.5,0.02,0.87
0.5,0.02,0.87
0.5,0.02,0.87
0.5,0.02,0.88
0.5,0.02,0.87
0.51,0.02,0.87
0.51,0.02,0.87
0.51,0.02,0.87
0.5,0.02,0.87
0.5,0.02,0.88
0.5,0.02,0.88
0.49,0.02,0.88
0.49,0.02,0.88
0.5,0.02,0.88
0.5,0.02,0.87
0.51,0.02,0.87
0.52,0.02,0.87
0.51,0.02,0.87
0.51,0.02,0.87
0.5,0.02,0.88
0.5,0.02,0.88
0.49,0.02,0.88
0.49,0.02,0.88
0.49,0.02,0.88
0.5,0.02,0.88
0.5,0.02,0.88
0.5,0.02,0.88
0.51,0.02,0.87
0.51,0.02,0.87
0.5,0.02,0.87
0.5,0.02,0.87
0.5,0.02,0.87
0.5,0.02,0.88
0.5,0.02,0.88
0.51,0.02,0.87
0.5,0.02,0.87
0.5,0.02,0.88
0.5,0.02,0.88
0.5,0.02,0.88
0.5,0.02,0.88
0.5,0.02,0.88
0.5,0.02,0.88
0.5,0.02,0.88
0.5,0.02,0.88
0.5,0.02,0.88
0.5,0.02,0.88
0.5,0.02,0.88
0.5,0.02,0.88
0.5,0.02,0.88
0.5,0.02,0.87
0.5,0.02,0.87
0.51,0.02,0.87
0.5,0.02,0.87
0.5,0.02,0.87
0.5,0.02,0.88
0.5,0.02,0.88
0.51,0.02,0.88
0.51,0.02,0.88
0.5,0.02,0.87
0.5,0.02,0.87
0.5,0.02,0.87
0.5,0.02,0.88
0.5,0.02,0.88
0.5,0.02,0.88
0.5,0.02,0.88
0.51,0.02,0.87
0.51,0.02,0.87
0.51,0.02,0.87
0.5,0.02,0.87
0.5,0.02,0.87
0.5,0.02,0.87
0.5,0.02,0.88
0.5,0.01,0.88
0.5,0.02,0.88
0.5,0.02,0.88
0.5,0.02,0.88
0.5,0.02,0.88
0.49,0.02,0.88
0.49,0.02,0.88
0.5,0.02,0.88
0.5,0.02,0.88
0.51,0.02,0.88
0.51,0.02,0.87
0.51,0.02,0.87
0.51,0.02,0.87
0.5,0.02,0.88
0.49,0.02,0.88
0.49,0.01,0.88
0.49,0.02,0.88
0.49,0.02,0.88
0.5,0.02,0.88
0.5,0.02,0.87
0.5,0.02,0.87
0.5,0.02,0.87
0.5,0.02,0.88
0.5,0.02,0.88
0.5,0.02,0.88
0.49,0.02,0.88
0.49,0.02,0.88
0.5,0.02,0.88
0.5,0.01,0.88
0.5,0.02,0.88
0.5,0.02,0.88
0.5,0.02,0.88
0.5,0.02,0.88
0.5,0.01,0.87
0.5,0.02,0.87
0.5,0.02,0.87
0.51,0.01,0.87
0.5,0.02,0.88
0.5,0.02,0.87
0.5,0.01,0.87
0.5,0.02,0.87
0.5,0.02,0.88
0.5,0.02,0.88
0.5,0.02,0.88
0.5,0.02,0.88
0.5,0.02,0.88
0.5,0.02,0.87
0.5,0.02,0.88
0.5,0.02,0.88
0.5,0.02,0.88
0.5,0.02,0.88
0.5,0.02,0.88
0.5,0.01,0.88
0.5,0.01,0.88
0.5,0.02,0.88
0.5,0.02,0.88
0.5,0.02,0.88
0.5,0.02,0.88
0.5,0.01,0.88
0.5,0.01,0.88
0.5,0.02,0.88
0.5,0.02,0.88
0.5,0.02,0.88
0.51,0.02,0.88
0.5,0.02,0.88
0.5,0.02,0.87
0.5,0.02,0.87
0.51,0.02,0.87
0.51,0.02,0.87
0.51,0.02,0.87
0.51,0.02,0.87
0.51,0.02,0.87
0.51,0.02,0.86
0.5,0.02,0.87
0.5,0.02,0.88
0.53,0.01,0.87
0.54,0.01,0.86
0.52,0.01,0.86
0.52,0.01,0.86
0.52,0.01,0.86
0.52,0.01,0.87
0.52,0.01,0.87
0.51,0.02,0.87
0.51,0.02,0.87
0.51,0.02,0.87
0.51,0.02,0.87
0.51,0.02,0.87
0.51,0.02,0.87
0.51,0.01,0.87
0.51,0.01,0.87
0.51,0.02,0.87
0.51,0.02,0.87
0.51,0.02,0.87
0.52,0.02,0.87
0.52,0.02,0.87
0.52,0.02,0.87
0.51,0.02,0.87
0.52,0.02,0.87
0.52,0.02,0.87
0.52,0.02,0.87
0.52,0.02,0.87
0.52,0.02,0.87
0.52,0.02,0.87
0.52,0.02,0.87
0.52,0.02,0.87
0.52,0.02,0.87
0.52,0.02,0.87
0.52,0.02,0.87
0.52,0.02,0.87
0.52,0.02,0.86
0.52,0.02,0.86
0.52,0.02,0.86
0.52,0.01,0.87
0.52,0.02,0.87
0.52,0.02,0.86
0.52,0.02,0.87
0.52,0.02,0.87
0.52,0.02,0.87
0.52,0.01,0.87
0.52,0.01,0.87
0.51,0.01,0.87
0.51,0.02,0.87
0.52,0.02,0.87
0.51,0.02,0.87
0.51,0.02,0.87
0.51,0.02,0.87
0.51,0.02,0.87
0.52,0.02,0.87
0.52,0.02,0.86
0.52,0.01,0.86
0.52,0.01,0.87
0.52,0.02,0.87
0.52,0.02,0.87
0.52,0.02,0.87
0.52,0.02,0.87
0.52,0.02,0.87
0.52,0.02,0.87
0.51,0.02,0.87
0.51,0.02,0.87
0.51,0.02,0.87
0.51,0.02,0.87
0.51,0.02,0.87
0.52,0.02,0.87
0.52,0.02,0.87
0.53,0.02,0.86
0.53,0.02,0.86
0.53,0.02,0.86
0.52,0.02,0.87
0.51,0.02,0.87
0.51,0.02,0.87
0.51,0.02,0.87
0.51,0.02,0.87
0.51,0.02,0.87
0.51,0.02,0.87
0.52,0.02,0.87
0.52,0.02,0.87
0.52,0.02,0.87
0.52,0.02,0.87
0.52,0.02,0.86
0.52,0.02,0.86
0.52,0.02,0.87
0.52,0.02,0.87
0.52,0.02,0.87
0.52,0.02,0.87
0.52,0.02,0.87
0.51,0.02,0.87
0.51,0.02,0.87
0.51,0.02,0.87
0.52,0.02,0.87
0.52,0.02,0.87
0.51,0.02,0.87
0.51,0.02,0.87
0.52,0.02,0.87
0.52,0.01,0.87
0.52,0.01,0.87
0.52,0.02,0.86
0.52,0.02,0.87
0.52,0.02,0.87
0.52,0.02,0.87
0.51,0.02,0.87
0.51,0.02,0.87
0.52,0.02,0.87
0.52,0.01,0.87
0.52,0.01,0.87
0.52,0.01,0.87
0.52,0.01,0.87
0.52,0.01,0.87
0.52,0.01,0.87
0.52,0.02,0.87
0.52,0.01,0.87
0.52,0.01,0.86
0.51,0.01,0.87
0.51,0.02,0.87
0.51,0.02,0.87
0.51,0.01,0.87
0.51,0.02,0.87
0.52,0.02,0.87
0.52,0.02,0.87
0.52,0.01,0.86
0.52,0.02,0.87
0.52,0.02,0.87
0.52,0.02,0.87
0.52,0.02,0.87
0.52,0.01,0.87
0.52,0.01,0.87
0.51,0.02,0.87
0.51,0.02,0.87
0.51,0.01,0.87
0.51,0.02,0.87
0.51,0.02,0.87
0.52,0.02,0.87
0.53,0.02,0.86
0.53,0.02,0.86
0.53,0.01,0.86
0.52,0.01,0.86
0.52,0.02,0.86
0.51,0.02,0.87
0.51,0.02,0.87
0.51,0.02,0.87
0.51,0.01,0.87
0.51,0.01,0.87
0.51,0.01,0.87
0.52,0.02,0.86
0.52,0.02,0.87
0.52,0.02,0.87
0.52,0.02,0.87
0.51,0.01,0.87
0.51,0.01,0.87
0.52,0.02,0.87
0.52,0.01,0.87
0.52,0.01,0.87
0.52,0.01,0.86
0.52,0.01,0.86
0.52,0.01,0.87
0.51,0.02,0.87
0.52,0.02,0.87
0.52,0.02,0.87
0.52,0.01,0.87
0.52,0.01,0.87
0.52,0.01,0.87
0.52,0.01,0.87
0.52,0.01,0.87
0.52,0.02,0.87
0.51,0.02,0.87
0.51,0.02,0.87
0.51,0.02,0.87
0.52,0.02,0.87
0.52,0.02,0.86
0.52,0.02,0.87
0.52,0.01,0.87
0.52,0.01,0.87
0.51,0.02,0.87
0.52,0.02,0.87
0.52,0.02,0.87
0.52,0.02,0.87
0.51,0.02,0.87
0.52,0.02,0.87
0.52,0.02,0.87
0.52,0.02,0.87
0.52,0.02,0.87
0.52,0.02,0.87
0.52,0.02,0.87
0.52,0.02,0.87
0.52,0.02,0.87
0.52,0.02,0.87
0.51,0.02,0.87
0.51,0.02,0.87
0.51,0.02,0.87
0.51,0.02,0.87
0.51,0.02,0.87
0.52,0.01,0.87
0.52,0.02,0.87
0.52,0.02,0.86
0.52,0.02,0.86
0.52,0.02,0.87
0.52,0.02,0.87
0.52,0.02,0.87
0.52,0.02,0.87
0.52,0.01,0.87
0.52,0.01,0.87
0.52,0.01,0.86
0.52,0.02,0.86
0.52,0.01,0.86
0.52,0.02,0.86
0.52,0.02,0.86
0.52,0.02,0.86
0.52,0.02,0.86
0.53,0.02,0.86
0.53,0.02,0.86
0.53,0.02,0.86
0.53,0.02,0.86
0.52,0.01,0.86
0.51,0.02,0.86
0.52,0.02,0.86
0.52,0.02,0.87
0.52,0.02,0.87
0.52,0.02,0.87
0.52,0.02,0.87
0.52,0.02,0.86
0.52,0.02,0.86
0.52,0.02,0.86
0.52,0.02,0.86
0.52,0.02,0.86
0.52,0.02,0.86
0.52,0.02,0.86
0.52,0.02,0.86
0.52,0.02,0.86
0.52,0.02,0.86
0.52,0.02,0.87
0.52,0.02,0.87
0.52,0.02,0.87
0.52,0.02,0.87
0.52,0.02,0.87
0.52,0.01,0.87
0.52,0.01,0.86
0.52,0.02,0.86
0.52,0.02,0.86
0.52,0.02,0.86
0.52,0.02,0.87
0.52,0.02,0.87
0.52,0.01,0.87
0.52,0.01,0.87
0.51,0.01,0.87
0.52,0.01,0.87
0.52,0.02,0.87
0.52,0.02,0.86
0.52,0.01,0.87
0.54,0.01,0.86
0.53,0.01,0.86
0.52,0.01,0.86
0.52,0.02,0.86
0.54,0.01,0.86
0.56,0,0.86
0.57,0,0.86
0.56,0.01,0.85
0.55,0.02,0.85
0.55,0.02,0.85
0.53,0.01,0.86
0.52,0.01,0.88
0.54,0,0.87
0.55,-0.01,0.86
0.54,0,0.87
0.57,0.01,0.87
0.59,0.02,0.87
0.59,-0.01,0.89
0.6,-0.03,0.91
0.59,-0.03,0.91
0.55,-0.03,0.91
0.49,-0.04,0.9
0.47,-0.04,0.87
0.47,0,0.88
0.47,0.03,0.89
0.46,0.04,0.88
0.46,0.1,0.86
0.46,0.11,0.86
0.47,0.12,0.84
0.46,0.14,0.84
0.42,0.15,0.84
0.37,0.14,0.86
0.32,0.13,0.88
0.29,0.12,0.89
0.26,0.11,0.91
0.25,0.09,0.92
0.24,0.07,0.92
0.21,0.05,0.95
0.18,0.04,0.97
0.14,0.02,0.99
0.1,0,1.01
0.08,-0.02,1.03
0.05,-0.02,1.04
0.02,-0.02,1.05
0.03,-0.03,1.05
0.03,-0.02,1.05
0.02,-0.03,1.11
-0.09,-0.04,1.17
-0.16,-0.05,1.16
0,-0.05,1.1
0.17,-0.02,1.03
0.26,0,0.99
0.4,0.04,0.94
0.49,0.08,0.89
0.57,0.1,0.86
0.49,0.08,0.87
0.51,0.07,0.9
0.63,0.07,0.87
0.55,0.07,0.86
0.4,0.05,0.9
0.33,0.01,0.93
0.33,-0.01,0.94
0.39,0,0.91
0.45,0,0.87
0.48,0,0.87
0.46,0,0.85
0.45,-0.01,0.83
0.49,0,0.84
0.52,0,0.85
0.53,0.04,0.83
0.5,0.05,0.84
0.42,0.03,0.88
0.38,0.02,0.9
0.43,-0.04,0.92
0.46,-0.07,0.91
0.46,-0.08,0.89
0.49,-0.08,0.88
0.54,-0.04,0.87
0.69,-0.03,0.87
0.66,-0.04,0.85
0.62,-0.04,0.86
0.61,-0.04,0.89
0.6,-0.04,0.9
0.58,-0.04,0.92
0.54,-0.07,0.97
0.5,-0.1,0.94
0.47,-0.12,0.93
0.46,-0.17,0.93
0.42,-0.2,0.89
0.42,-0.19,0.92
0.51,-0.16,0.94
0.5,-0.15,0.92
0.45,-0.19,0.93
0.46,-0.21,0.95
0.44,-0.22,0.95
0.41,-0.22,0.94
0.41,-0.22,0.92
0.41,-0.24,0.87
0.44,-0.25,0.84
0.51,-0.27,0.83
0.56,-0.29,0.81
0.55,-0.3,0.78
0.54,-0.31,0.78
0.52,-0.33,0.8
0.5,-0.35,0.76
0.6,-0.35,0.78
0.64,-0.37,0.76
0.61,-0.41,0.73
0.6,-0.43,0.73
0.55,-0.43,0.68
0.49,-0.4,0.68
0.57,-0.38,0.75
0.63,-0.43,0.74
0.62,-0.5,0.7
0.59,-0.53,0.67
0.56,-0.53,0.66
0.53,-0.53,0.67
0.49,-0.57,0.65
0.45,-0.6,0.61
0.47,-0.58,0.62
0.54,-0.61,0.62
0.52,-0.62,0.6
0.5,-0.59,0.6
0.51,-0.6,0.61
0.49,-0.63,0.6
0.43,-0.66,0.57
0.39,-0.68,0.55
0.42,-0.69,0.57
0.46,-0.7,0.55
0.45,-0.72,0.52
0.48,-0.73,0.52
0.44,-0.72,0.49
0.51,-0.73,0.53
0.46,-0.76,0.54
0.42,-0.82,0.48
0.49,-0.88,0.39
0.48,-0.88,0.35
0.38,-0.84,0.34
0.32,-0.79,0.44
0.4,-0.81,0.51
0.5,-0.84,0.46
0.51,-0.84,0.49
0.48,-0.85,0.54
0.5,-0.83,0.54
0.49,-0.82,0.57
0.46,-0.84,0.62
0.44,-0.83,0.58
0.45,-0.84,0.52
0.46,-0.9,0.45
0.46,-0.97,0.38
0.45,-1,0.36
0.45,-1.04,0.4
0.53,-1.08,0.38
0.63,-1.13,0.28
0.64,-1.24,0.26
0.62,-1.32,0.24
0.65,-1.3,0.04
0.81,-1.22,0.01
0.84,-1.1,-0.01
0.87,-0.98,0.05
0.77,-0.87,0.1
0.6,-0.77,0.14
0.56,-0.65,0.17
0.53,-0.52,0.16
0.44,-0.38,0.16
0.41,-0.26,0.15
0.41,-0.19,0.16
0.36,-0.13,0.21
0.36,-0.09,0.27
0.42,-0.08,0.32
0.55,-0.13,0.24
0.59,-0.21,0.01
0.61,-0.29,-0.17
0.63,-0.36,-0.11
0.44,-0.4,-0.01
0.32,-0.43,-0.04
0.5,-0.43,-0.74
1.03,-1.24,-1.85
0.87,-2.21,-1.36
-0.04,-1.85,0.08
-0.31,-1.31,0.47
0.01,-1.29,0.13
0.34,-1.23,0.03
0.84,-0.97,0.09
0.88,-0.83,0.08
0.69,-0.7,-0.06
0.64,-0.64,-0.28
0.69,-0.67,-0.38
0.6,-0.7,-0.36
0.44,-0.71,-0.34
0.46,-0.79,-0.3
0.42,-0.91,-0.19
0.27,-0.99,-0.04
0.26,-1.04,0.02
0.15,-1.09,-0.07
-0.01,-1.06,-0.2
-0.08,-0.99,-0.31
0.03,-0.97,-0.39
0.15,-0.88,-0.43
0.24,-0.84,-0.48
0.42,-0.93,-0.41
0.47,-0.96,-0.14
0.36,-0.99,0.06
0.27,-1.09,0.12
0.21,-1.09,0.13
0.2,-1.04,0.04
0.22,-1.01,-0.09
0.2,-0.96,-0.15
0.22,-0.95,-0.12
0.26,-1.02,-0.01
0.28,-1.05,0.06
0.17,-1.06,0.05
0.14,-1.02,0.02
0.2,-0.98,0
0.08,-0.98,0.03
0.03,-0.98,0.04
0.07,-1.02,-0.02
0.05,-1.03,-0.07
0.03,-1.01,-0.09
0.02,-1.02,-0.07
0,-1,-0.04
0.03,-0.99,-0.08
0.06,-0.99,-0.11
-0.02,-0.98,-0.09
-0.14,-0.97,-0.07
-0.05,-0.98,-0.07
-0.02,-1.01,-0.02
-0.1,-1.03,0.03
-0.03,-1.02,-0.01
0.03,-1.02,-0.06
0.05,-1.03,-0.1
0.02,-1.02,-0.11
-0.06,-1.02,-0.08
-0.14,-1.05,-0.01
-0.18,-1.02,-0.1
0.02,-0.98,-0.12
0.12,-1.01,-0.11
0.11,-1.02,-0.1
0.02,-0.97,-0.13
-0.1,-1,-0.14
-0.28,-1.04,-0.07
-0.18,-1.01,-0.05
0.05,-1.02,-0.02
0.08,-1.07,0.04
0.06,-1.07,0
0.01,-1.07,-0.04
-0.18,-1.04,-0.02
-0.13,-1.03,-0.06
0.04,-1.07,-0.08
-0.01,-1.08,-0.04
-0.01,-1.05,-0.04
-0.03,-1.02,-0.05
-0.15,-1,-0.04
-0.19,-1.02,-0.06
-0.17,-1.06,-0.08
-0.22,-1.03,-0.05
-0.26,-0.98,-0.02
-0.21,-0.97,-0.04
-0.08,-1.01,-0.14
-0.03,-1.04,-0.29
-0.1,-1.01,-0.4
-0.15,-0.94,-0.24
-0.23,-0.97,-0.05
-0.2,-1.06,0.04
-0.13,-1.11,0.07
-0.13,-1.09,0.03
-0.17,-1.03,-0.09
-0.21,-0.98,-0.17
-0.3,-0.97,-0.29
-0.33,-0.95,-0.41
-0.3,-1,-0.43
-0.28,-1.08,-0.47
-0.34,-1.14,-0.49
-0.42,-1.13,-0.41
-0.24,-1.07,-0.29
-0.26,-1.02,-0.06
-0.55,-1.01,-0.01
-0.43,-0.95,-0.18
-0.29,-0.92,-0.29
-0.26,-0.92,-0.38
-0.2,-0.9,-0.37
-0.24,-0.93,-0.3
-0.22,-0.92,-0.24
-0.22,-0.88,-0.09
-0.23,-0.86,0.05
-0.16,-0.86,0.15
-0.14,-0.88,0.23
-0.16,-0.92,0.2
-0.42,-0.98,0.16
-0.46,-1.07,0.14
-0.33,-1.09,0.14
-0.41,-1.12,0.13
-0.44,-1.15,0.16
-0.4,-1.13,0.1
-0.34,-1.13,0.08
-0.24,-1.12,0.1
-0.2,-1.1,0.13
-0.17,-1.09,0.17
-0.21,-1.12,0.14
-0.25,-1.16,0.12
-0.3,-1.19,0.12
-0.35,-1.18,0.06
-0.33,-1.16,-0.03
-0.25,-1.17,-0.07
-0.21,-1.21,-0.08
-0.2,-1.23,-0.08
-0.16,-1.25,-0.08
0.15,-1.33,-0.17
0.15,-1.33,-0.17
0.13,-1.37,-0.15
0.04,-1.39,-0.13
0.04,-1.43,-0.13
0.16,-1.48,-0.09
0.23,-1.46,-0.03
0.26,-1.46,0.05
0.25,-1.47,0.1
0.22,-1.45,0.11
0.19,-1.44,0.13
0.18,-1.45,0.14
0.16,-1.48,0.13
0.13,-1.49,0.09
0.12,-1.49,0.05
0.13,-1.5,-0.01
0.15,-1.53,-0.08
0.19,-1.54,-0.17
0.21,-1.48,-0.2
0.2,-1.39,-0.19
0.18,-1.32,-0.15
0.18,-1.3,-0.12
0.21,-1.28,-0.11
0.23,-1.27,-0.12
0.22,-1.26,-0.1
0.24,-1.28,-0.07
0.25,-1.31,-0.07
0.24,-1.29,-0.05
0.25,-1.15,-0.06
0.23,-1.14,-0.06
0.23,-1.16,-0.07
0.23,-1.19,-0.07
0.23,-1.18,-0.07
0.23,-1.14,-0.06
0.22,-1.1,-0.04
0.21,-1.07,-0.03
0.2,-1.03,-0.02
0.21,-0.99,-0.02
0.21,-0.96,-0.02
0.22,-0.93,-0.02
0.23,-0.92,-0.03
0.25,-0.92,-0.02
0.26,-0.93,-0.01
0.27,-0.94,0
0.28,-0.94,0.01
0.27,-0.94,0.01
0.26,-0.92,0.02
0.24,-0.89,0.03
0.22,-0.88,0.04
0.21,-0.87,0.05
0.2,-0.86,0.06
0.2,-0.85,0.07
0.2,-0.82,0.07
0.21,-0.79,0.1
0.21,-0.74,0.11
0.21,-0.71,0.12
0.21,-0.71,0.12
0.21,-0.69,0.13
0.2,-0.69,0.14
0.17,-0.59,0.23
0.17,-0.59,0.23
0.15,-0.59,0.23
0.15,-0.59,0.22
0.16,-0.59,0.21
0.18,-0.57,0.2
0.2,-0.56,0.18
0.23,-0.56,0.17
0.25,-0.57,0.15
0.28,-0.6,0.16
0.46,-1.06,0.14
0.46,-1.06,0.14
0.46,-1.08,0.11
0.46,-1.07,0.09
0.48,-1.06,0.09
0.48,-1.08,0.09
0.5,-1.07,0.15
0.53,-1.07,0.22
0.51,-1.08,0.27
0.49,-1.09,0.31
0.54,-1.07,0.34
0.63,-1.06,0.35
0.66,-1.06,0.31
0.65,-1.05,0.24
0.63,-1.01,0.18
0.58,-0.97,0.14
0.54,-0.95,0.08
0.48,-0.89,0.06
0.44,-0.86,0.03
0.42,-0.83,0.01
0.53,-0.8,0.06
0.56,-0.79,0.07
0.56,-0.8,0.07
0.57,-0.8,0.07
0.56,-0.82,0.08
0.55,-0.84,0.09
0.56,-0.86,0.09
0.56,-0.88,0.11
0.57,-0.9,0.12
0.58,-0.91,0.13
0.58,-0.91,0.14
0.58,-0.91,0.13
0.57,-0.91,0.13
0.56,-0.91,0.13
0.54,-0.91,0.13
0.54,-0.9,0.13
0.54,-0.89,0.13
0.55,-0.86,0.12
0.56,-0.85,0.11
0.55,-0.85,0.1
0.54,-0.85,0.09
0.54,-0.84,0.08
0.53,-0.83,0.09
0.54,-0.83,0.09
0.53,-0.84,0.09
0.51,-0.84,0.08
0.5,-0.83,0.07
0.5,-0.82,0.06
0.49,-0.79,0.05
0.48,-0.78,0.04
0.47,-0.76,0.04
0.46,-0.76,0.05
0.44,-0.79,0.06
0.44,-0.84,0.05
0.43,-0.91,0.05
0.43,-1,0.03
0.45,-1.09,0
0.46,-1.14,-0.02
0.44,-1.14,-0.02
0.4,-1.12,0
0.37,-1.08,0.03
0.34,-1.06,0.06
0.31,-1.05,0.09
0.27,-1.06,0.11
0.24,-1.07,0.13
0.22,-1.15,0.12
0.15,-1.19,0.09
0.12,-1.22,0.07
0.1,-1.23,0.05
0.06,-1.23,0.05
0,-1.22,0.04
-0.09,-1.19,0.03
-0.16,-1.15,0.04
-0.19,-1.1,0.05
-0.21,-1.04,0.05
-0.2,-0.99,0.06
-0.17,-0.96,0.07
-0.17,-0.96,0.07
-0.16,-0.95,0.09
-0.17,-0.93,0.12
-0.21,-0.92,0.15
-0.21,-0.92,0.16
-0.2,-0.92,0.17
-0.2,-0.92,0.2
-0.2,-0.93,0.22
-0.22,-0.93,0.24
-0.21,-0.94,0.25
-0.18,-0.94,0.26
-0.14,-0.95,0.26
-0.09,-0.96,0.25
-0.03,-0.98,0.23
0.03,-0.98,0.17
0.12,-0.96,0.15
0.15,-0.94,0.16
0.17,-0.92,0.17
0.19,-0.9,0.18
0.23,-0.89,0.21
0.29,-0.9,0.24
0.36,-0.91,0.26
0.42,-0.92,0.28
0.49,-0.91,0.29
0.54,-0.9,0.3
0.57,-0.9,0.3
0.6,-0.87,0.3
0.62,-0.86,0.3
0.66,-0.84,0.3
0.7,-0.82,0.32
0.75,-0.79,0.35
0.82,-0.76,0.35
0.85,-0.79,0.34
0.85,-0.84,0.32
0.86,-0.89,0.3
0.85,-0.97,0.29
0.84,-1.05,0.29
0.85,-1.11,0.3
0.81,-1.18,0.31
0.75,-1.24,0.31
0.7,-1.28,0.28
0.6,-1.27,0.26
0.56,-1.23,0.23
0.52,-1.19,0.22
0.49,-1.15,0.21
0.48,-1.12,0.2
0.47,-1.08,0.19
0.48,-1.05,0.18
0.48,-1.02,0.17
0.48,-1.01,0.16
0.48,-0.99,0.14
0.48,-0.97,0.12
0.48,-0.96,0.1
0.46,-0.94,0.09
0.45,-0.93,0.09
0.43,-0.91,0.09
0.41,-0.89,0.08
0.38,-0.88,0.09
0.36,-0.87,0.09
0.35,-0.86,0.09
0.34,-0.85,0.08
0.32,-0.84,0.07
0.31,-0.84,0.07
0.31,-0.83,0.07
0.31,-0.82,0.06
0.3,-0.81,0.06
0.29,-0.81,0.06
0.29,-0.84,0.06
0.29,-0.84,0.05
0.29,-0.85,0.06
0.29,-0.86,0.07
0.29,-0.88,0.08
0.29,-0.9,0.08
0.29,-0.92,0.08
0.29,-0.92,0.07
0.28,-0.93,0.07
0.28,-0.94,0.08
0.28,-0.95,0.09
0.29,-0.98,0.1
0.29,-1.02,0.12
0.3,-1.08,0.13
0.31,-1.16,0.14
0.3,-1.26,0.13
0.29,-1.35,0.1
0.29,-1.43,0.06
0.29,-1.48,0.04
0.27,-1.48,0.04
0.25,-1.42,0.05
0.23,-1.34,0.07
0.2,-1.26,0.11
0.18,-1.22,0.16
0.18,-1.19,0.2
0.18,-1.15,0.25
0.16,-1.07,0.21
0.15,-1.09,0.14
0.14,-1.14,0.08
0.14,-1.17,0.05
0.15,-1.19,0.05
0.15,-1.19,0.06
0.13,-1.17,0.08
0.1,-1.15,0.1
0.08,-1.11,0.11
0.04,-1.03,0.04
-0.14,-1.03,0.1
0.07,-1.12,0.26
0.76,-1.09,0.21
1,-0.97,0.26
0.54,-0.83,0.52
0.02,-0.75,0.57
-0.03,-0.79,0.39
0.12,-0.81,0.2
0.19,-0.79,0.07
0.2,-0.77,0.01
0.19,-0.77,-0.02
0.19,-0.79,-0.04
0.23,-0.82,-0.05
0.3,-0.84,-0.04
0.35,-0.85,-0.01
0.38,-0.87,0.03
0.37,-0.94,0.1
0.37,-0.96,0.13
0.36,-0.97,0.15
0.37,-0.96,0.15
0.38,-0.94,0.14
0.37,-0.92,0.13
0.34,-0.91,0.13
0.33,-0.89,0.14
0.35,-0.88,0.16
0.37,-0.88,0.16
0.39,-0.86,0.17
0.4,-0.86,0.18
0.4,-0.87,0.19
0.41,-0.86,0.19
0.41,-0.85,0.19
0.42,-0.84,0.19
0.42,-0.84,0.19
0.39,-0.85,0.19
0.38,-0.86,0.18
0.37,-0.88,0.18
0.35,-0.9,0.19
0.33,-0.91,0.19
0.33,-0.92,0.2
0.32,-0.97,0.2
0.32,-1.07,0.21
0.32,-1.25,0.22
0.32,-1.64,0.29
0.23,-1.7,0.29
0.14,-1.63,0.23
0.05,-1.45,0.15
0,-1.28,0.08
-0.05,-1.2,0.03
-0.06,-1.17,0.02
-0.07,-1.18,0.02
-0.1,-1.21,0.04
-0.15,-1.24,0.04
-0.2,-1.25,0
-0.24,-1.24,-0.07
-0.27,-1.22,-0.11
-0.28,-1.2,-0.15
-0.28,-1.15,-0.2
-0.3,-1.08,-0.22
-0.31,-1.03,-0.22
-0.28,-0.97,-0.21
-0.26,-0.95,-0.19
-0.24,-0.91,-0.17
-0.23,-0.88,-0.15
-0.24,-0.87,-0.15
-0.22,-0.87,-0.17
-0.2,-0.85,-0.19
-0.18,-0.85,-0.22
-0.18,-0.84,-0.25
-0.17,-0.82,-0.31
-0.16,-0.81,-0.32
-0.14,-0.8,-0.33
-0.11,-0.8,-0.35
-0.11,-0.8,-0.35
-0.08,-0.82,-0.35
-0.03,-0.85,-0.34
0,-0.87,-0.34
0.03,-0.88,-0.33
0.05,-0.89,-0.34
0.08,-0.89,-0.35
0.1,-0.88,-0.36
0.11,-0.88,-0.37
0.13,-0.89,-0.38
0.15,-0.9,-0.39
0.17,-0.92,-0.39
0.18,-0.92,-0.38
0.19,-0.91,-0.36
0.21,-0.9,-0.35
0.24,-0.9,-0.35
0.25,-0.89,-0.36
0.26,-0.89,-0.37
0.27,-0.87,-0.36
0.29,-0.86,-0.35
0.29,-0.86,-0.34
0.3,-0.86,-0.32
0.32,-0.88,-0.34
0.3,-0.89,-0.34
0.31,-0.92,-0.34
0.32,-0.93,-0.33
0.31,-0.93,-0.32
0.31,-0.94,-0.32
0.34,-0.96,-0.3
0.36,-0.99,-0.29
0.36,-1.04,-0.29
0.35,-1.06,-0.26
0.31,-1.08,-0.25
0.27,-1.11,-0.25
0.27,-1.12,-0.21
0.29,-1.12,-0.15
0.29,-1.12,-0.09
0.27,-1.13,-0.07
0.26,-1.14,-0.08
0.22,-1.16,-0.09
0.22,-1.12,-0.09
0.22,-1.05,-0.07
0.3,-1.04,-0.11
0.27,-1.11,-0.01
-0.03,-1.06,0.1
