Acc_x,Acc_y,Acc_z
0.06,0.34,0.94
0.06,0.34,0.94
0.06,0.34,0.94
0.06,0.34,0.95
0.07,0.33,0.95
0.08,0.33,0.95
0.08,0.32,0.95
0.1,0.32,0.96
0.13,0.31,0.97
0.14,0.3,0.96
0.16,0.3,0.95
0.18,0.3,0.95
0.19,0.3,0.96
0.18,0.32,0.97
0.18,0.34,0.97
0.2,0.36,0.96
0.2,0.38,0.95
0.2,0.4,0.94
0.18,0.4,0.95
0.17,0.4,0.94
0.17,0.4,0.93
0.15,0.39,0.92
0.14,0.38,0.91
0.15,0.37,0.9
0.15,0.38,0.89
0.12,0.39,0.83
0.09,0.39,0.82
0.1,0.39,0.82
0.09,0.38,0.82
0.09,0.38,0.83
0.1,0.37,0.85
0.12,0.36,0.87
0.12,0.37,0.9
0.11,0.37,0.9
0.07,0.37,0.88
0.06,0.37,0.85
0.08,0.36,0.85
0.11,0.36,0.87
0.14,0.36,0.9
0.15,0.37,0.92
0.16,0.38,0.95
0.17,0.38,0.98
0.18,0.38,0.99
0.19,0.39,1.01
0.2,0.39,1.02
0.22,0.39,1.02
0.25,0.38,1.02
0.29,0.35,1.02
0.34,0.32,1.04
0.34,0.29,1.09
0.34,0.25,1.14
0.36,0.22,1.14
0.4,0.21,1.11
0.41,0.19,1.07
0.42,0.17,1.03
0.42,0.15,1
0.41,0.13,0.99
0.4,0.11,1.01
0.4,0.08,1.05
0.41,0.05,1.07
0.4,0.02,1.06
0.38,0,1.02
0.36,-0.01,0.95
0.34,-0.02,0.88
0.35,-0.04,0.85
0.41,-0.07,0.87
0.48,-0.11,0.91
0.52,-0.14,0.95
0.53,-0.16,0.96
0.51,-0.17,0.93
0.47,-0.17,0.87
0.46,-0.18,0.81
0.48,-0.19,0.78
0.51,-0.19,0.77
0.55,-0.19,0.77
0.58,-0.19,0.79
0.59,-0.19,0.79
0.58,-0.18,0.76
0.54,-0.16,0.73
0.52,-0.14,0.69
0.51,-0.14,0.67
0.52,-0.14,0.66
0.54,-0.14,0.65
0.55,-0.16,0.64
0.57,-0.18,0.63
0.6,-0.19,0.64
0.61,-0.21,0.65
0.62,-0.23,0.65
0.62,-0.24,0.65
0.63,-0.23,0.64
0.63,-0.22,0.63
0.62,-0.22,0.6
0.63,-0.23,0.59
0.67,-0.24,0.6
0.7,-0.26,0.62
0.72,-0.27,0.63
0.72,-0.28,0.63
0.71,-0.29,0.62
0.71,-0.3,0.61
0.71,-0.31,0.61
0.73,-0.31,0.61
0.74,-0.31,0.62
0.76,-0.3,0.64
0.76,-0.31,0.65
0.77,-0.31,0.66
0.78,-0.31,0.67
0.79,-0.31,0.68
0.79,-0.31,0.68
0.78,-0.3,0.68
0.78,-0.29,0.67
0.78,-0.28,0.67
0.77,-0.26,0.67
0.77,-0.26,0.66
0.77,-0.25,0.67
0.77,-0.25,0.68
0.77,-0.25,0.69
0.76,-0.24,0.68
0.74,-0.24,0.68
0.74,-0.25,0.67
0.74,-0.26,0.66
0.73,-0.26,0.64
0.72,-0.26,0.64
0.71,-0.25,0.63
0.72,-0.25,0.62
0.74,-0.24,0.62
0.74,-0.24,0.62
0.75,-0.25,0.63
0.77,-0.24,0.64
0.76,-0.23,0.63
0.72,-0.24,0.6
0.7,-0.24,0.59
0.72,-0.24,0.57
0.75,-0.25,0.58
0.77,-0.26,0.58
0.79,-0.27,0.59
0.81,-0.28,0.6
0.85,-0.29,0.6
0.87,-0.31,0.61
0.84,-0.33,0.61
0.83,-0.34,0.6
0.83,-0.38,0.59
0.84,-0.43,0.6
0.86,-0.44,0.61
0.84,-0.47,0.61
0.79,-0.53,0.6
0.77,-0.59,0.59
0.78,-0.6,0.59
0.75,-0.55,0.59
0.73,-0.54,0.58
0.76,-0.6,0.54
0.75,-0.62,0.48
0.7,-0.61,0.42
0.67,-0.63,0.36
0.66,-0.65,0.31
0.66,-0.68,0.3
0.68,-0.72,0.33
0.71,-0.78,0.33
0.69,-0.81,0.32
0.66,-0.83,0.31
0.63,-0.85,0.29
0.6,-0.86,0.25
0.6,-0.87,0.23
0.63,-0.89,0.2
0.65,-0.89,0.18
0.67,-0.86,0.18
0.68,-0.87,0.18
0.67,-0.89,0.18
0.65,-0.88,0.16
0.64,-0.86,0.14
0.62,-0.84,0.13
0.6,-0.84,0.13
0.6,-0.83,0.14
0.6,-0.81,0.15
0.6,-0.8,0.15
0.62,-0.8,0.16
0.61,-0.8,0.15
0.59,-0.82,0.14
0.62,-0.84,0.2
0.71,-0.84,0.26
0.76,-0.83,0.29
0.7,-0.84,0.33
0.62,-0.84,0.36
0.58,-0.85,0.33
0.57,-0.87,0.33
0.57,-0.87,0.35
0.57,-0.86,0.36
0.59,-0.87,0.35
0.61,-0.87,0.33
0.62,-0.86,0.31
0.6,-0.85,0.3
0.56,-0.85,0.28
0.52,-0.85,0.26
0.49,-0.85,0.24
0.47,-0.86,0.22
0.46,-0.84,0.22
0.44,-0.84,0.22
0.43,-0.86,0.2
0.44,-0.86,0.19
0.43,-0.85,0.18
0.41,-0.85,0.18
0.41,-0.87,0.17
0.41,-0.88,0.18
0.4,-0.87,0.18
0.39,-0.87,0.18
0.38,-0.87,0.18
0.36,-0.88,0.18
0.35,-0.88,0.18
0.33,-0.88,0.19
0.33,-0.89,0.21
0.33,-0.89,0.21
0.34,-0.89,0.22
0.33,-0.89,0.22
0.33,-0.89,0.23
0.32,-0.89,0.23
0.31,-0.9,0.23
0.31,-0.9,0.23
0.3,-0.9,0.23
0.28,-0.9,0.24
0.27,-0.9,0.24
0.25,-0.9,0.23
0.25,-0.91,0.22
0.26,-0.91,0.21
0.23,-0.91,0.21
0.21,-0.93,0.2
0.21,-0.95,0.2
0.21,-0.97,0.2
0.23,-0.99,0.21
0.27,-1.01,0.2
0.3,-1.02,0.19
0.33,-1.04,0.2
0.35,-1.07,0.2
0.37,-1.08,0.21
0.39,-1.09,0.22
0.41,-1.09,0.21
0.43,-1.11,0.2
0.46,-1.11,0.2
0.46,-1.09,0.23
0.47,-1.07,0.27
0.48,-1.04,0.3
0.49,-1.03,0.33
0.51,-1.03,0.36
0.54,-1.04,0.38
0.55,-1.05,0.45
0.51,-1.07,0.57
0.45,-1.09,0.69
0.41,-1.1,0.76
0.41,-1.1,0.77
0.45,-1.09,0.72
0.52,-1.06,0.7
0.54,-1.04,0.79
0.52,-1.04,0.98
0.47,-1.07,1.17
0.42,-1.1,1.23
0.42,-1.15,1.2
0.42,-1.2,1.16
0.4,-1.24,1.16
0.4,-1.29,1.21
0.39,-1.34,1.27
0.38,-1.38,1.31
0.37,-1.39,1.32
0.35,-1.38,1.3
0.31,-1.38,1.27
0.3,-1.39,1.23
0.29,-1.4,1.18
0.29,-1.38,1.14
0.3,-1.35,1.11
0.32,-1.32,1.07
0.33,-1.29,1.04
0.32,-1.27,1.03
0.29,-1.25,1.02
0.27,-1.22,1.01
0.27,-1.19,0.96
0.25,-1.17,0.87
0.25,-1.12,0.81
0.26,-1.05,0.77
0.22,-0.99,0.78
0.2,-0.94,0.77
0.23,-0.88,0.73
0.23,-0.83,0.69
0.23,-0.79,0.65
0.24,-0.69,0.62
0.19,-0.63,0.61
0.09,-0.58,0.59
0.09,-0.53,0.55
0.14,-0.52,0.51
0.14,-0.48,0.49
0.09,-0.44,0.47
0.01,-0.22,0.46
0.03,-0.17,0.43
0.06,-0.13,0.41
-0.01,-0.19,0.38
-0.03,-0.14,0.39
0,-0.1,0.38
0.05,-0.1,0.33
0.06,0.01,0.35
-0.01,0.05,0.4
-0.02,0.01,0.4
0,0.03,0.37
-0.01,0.07,0.38
-0.01,0.19,0.39
-0.02,0.26,0.4
-0.05,0.24,0.4
-0.07,0.26,0.42
-0.1,0.28,0.42
-0.1,0.31,0.45
-0.1,0.34,0.47
-0.11,0.35,0.49
-0.1,0.38,0.51
-0.09,0.38,0.52
-0.09,0.39,0.55
-0.08,0.42,0.56
-0.09,0.41,0.56
-0.11,0.4,0.59
-0.12,0.42,0.6
-0.12,0.43,0.6
-0.13,0.44,0.6
-0.14,0.43,0.6
-0.14,0.42,0.61
-0.13,0.42,0.6
-0.13,0.41,0.59
-0.12,0.41,0.59
-0.11,0.41,0.59
-0.1,0.41,0.59
-0.1,0.39,0.59
-0.1,0.38,0.58
-0.1,0.36,0.57
-0.09,0.35,0.55
-0.09,0.33,0.53
-0.08,0.32,0.5
-0.08,0.3,0.46
-0.07,0.28,0.41
-0.05,0.26,0.35
-0.04,0.24,0.3
-0.04,0.21,0.28
-0.03,0.19,0.29
-0.04,0.16,0.3
-0.05,0.13,0.32
-0.06,0.1,0.32
-0.05,0.09,0.31
-0.02,0.04,0.29
-0.02,0.02,0.29
-0.02,-0.01,0.27
-0.02,-0.05,0.25
-0.02,-0.1,0.24
-0.01,-0.14,0.25
0.01,-0.18,0.28
0.04,-0.23,0.35
0.04,-0.28,0.41
0.05,-0.31,0.48
0.06,-0.35,0.47
0.08,-0.4,0.41
0.12,-0.46,0.35
0.14,-0.54,0.25
0.19,-0.62,0.18
0.29,-0.68,0.22
0.39,-0.71,0.37
0.43,-0.82,0.57
0.43,-0.89,0.72
0.41,-0.95,0.73
0.42,-1.09,0.6
0.51,-1.14,0.39
0.62,-1.25,0.2
0.78,-1.45,0.2
0.97,-1.55,0.41
1.07,-1.64,1
0.93,-1.78,1.11
0.89,-1.87,1.06
0.88,-1.93,0.95
0.87,-1.97,0.86
0.85,-2,0.8
0.89,-2.03,0.8
0.95,-2.04,0.92
0.97,-1.99,1.15
0.93,-1.86,1.28
0.87,-1.75,1.25
0.83,-1.72,1.17
0.77,-1.73,1.16
0.03,-1.84,2.58
-0.01,-0.88,3.99
2.32,-1.59,2.38
3.57,-2.27,0.37
2.79,-1.02,-0.12
2.2,-0.99,-0.16
1.65,-1.08,0.01
1.04,-0.86,0.16
0.85,-0.66,0.1
1.01,-0.65,-0.11
0.99,-0.77,-0.34
0.7,-0.79,-0.46
0.45,-0.69,-0.48
0.31,-0.63,-0.47
0.09,-0.72,-0.33
0.17,-0.78,-0.28
0.29,-0.85,-0.25
0.35,-0.92,-0.22
0.37,-0.99,-0.15
0.37,-1.02,-0.06
0.37,-1.02,-0.02
0.37,-1.01,-0.02
0.36,-0.97,-0.05
0.33,-0.94,-0.08
0.3,-0.92,-0.1
0.27,-0.9,-0.11
0.26,-0.89,-0.12
0.26,-0.88,-0.11
0.28,-0.88,-0.11
0.34,-0.92,-0.12
0.38,-0.96,-0.12
0.36,-0.95,-0.01
0.31,-0.96,0.18
0.25,-0.96,0.39
0.17,-0.96,0.59
0.17,-0.97,0.64
0.3,-0.97,0.55
0.36,-0.95,0.43
0.28,-0.97,0.33
0.23,-0.99,0.24
0.25,-0.97,0.14
0.45,-0.96,0.1
0.5,-0.95,0.08
0.44,-0.95,0.1
0.43,-0.94,0.13
0.41,-0.91,0.13
0.38,-0.89,0.11
0.39,-0.89,0.08
0.39,-0.89,0.04
0.38,-0.89,0.01
0.37,-0.9,-0.01
0.35,-0.93,-0.02
0.34,-0.97,-0.03
0.33,-1.01,-0.02
0.31,-1.05,0
0.32,-1.09,0.02
0.34,-1.11,0.05
0.35,-1.1,0.09
0.34,-1.07,0.13
0.31,-1.04,0.15
0.3,-1,0.15
0.29,-0.97,0.15
0.3,-0.94,0.16
0.34,-0.91,0.15
0.37,-0.9,0.13
0.38,-0.91,0.12
0.38,-0.93,0.14
0.33,-0.94,0.15
0.31,-0.94,0.16
0.3,-0.96,0.16
0.31,-0.96,0.16
0.3,-0.96,0.14
0.31,-0.96,0.13
0.32,-0.95,0.11
0.35,-0.95,0.11
0.37,-0.95,0.11
0.38,-0.94,0.12
0.38,-0.94,0.13
0.38,-0.94,0.13
0.37,-0.93,0.14
0.36,-0.93,0.14
0.35,-0.92,0.14
0.33,-0.92,0.14
0.32,-0.92,0.13
0.32,-0.92,0.13
0.31,-0.92,0.12
0.3,-0.92,0.12
0.3,-0.92,0.12
0.31,-0.92,0.11
0.3,-0.92,0.11
0.3,-0.93,0.11
0.3,-0.95,0.1
0.3,-0.97,0.09
0.31,-1.03,0.08
0.31,-1.06,0.08
0.3,-1.09,0.09
0.29,-1.1,0.11
0.29,-1.09,0.12
0.28,-1.08,0.14
0.27,-1.06,0.15
0.27,-1.01,0.17
0.27,-0.97,0.19
0.27,-0.93,0.2
0.27,-0.91,0.22
0.27,-0.9,0.23
0.27,-0.89,0.23
0.28,-0.89,0.22
0.28,-0.89,0.21
0.28,-0.9,0.2
0.28,-0.9,0.19
0.28,-0.91,0.18
0.29,-0.92,0.17
0.3,-0.92,0.17
0.32,-0.93,0.16
0.34,-0.93,0.15
0.36,-0.93,0.15
0.39,-0.93,0.13
0.4,-0.92,0.13
0.38,-0.91,0.14
0.38,-0.92,0.13
0.39,-0.92,0.13
0.37,-0.92,0.12
0.37,-0.92,0.12
0.38,-0.92,0.12
0.37,-0.92,0.13
0.38,-0.93,0.13
0.4,-0.94,0.13
0.41,-0.94,0.14
0.43,-0.93,0.14
0.43,-0.93,0.16
0.46,-0.93,0.16
0.49,-0.92,0.19
0.52,-0.91,0.27
0.55,-0.91,0.39
0.57,-0.9,0.54
0.59,-0.89,0.64
0.57,-0.87,0.7
0.52,-0.95,0.77
0.54,-1.08,0.87
0.69,-1.07,0.91
0.79,-1,0.89
0.77,-1.04,0.95
0.74,-1.12,1.05
0.74,-1.17,1.11
0.75,-1.23,1.18
0.71,-1.28,1.24
0.72,-1.26,1.27
0.73,-1.28,1.3
0.72,-1.31,1.34
0.69,-1.34,1.36
0.68,-1.38,1.34
0.7,-1.42,1.3
0.71,-1.46,1.24
0.72,-1.49,1.2
0.72,-1.51,1.18
0.72,-1.54,1.15
0.7,-1.54,1.13
0.66,-1.52,1.14
0.61,-1.48,1.17
0.54,-1.46,1.21
0.47,-1.46,1.19
0.42,-1.45,1.1
0.4,-1.43,0.98
0.38,-1.4,0.89
0.4,-1.38,0.81
0.42,-1.33,0.74
0.44,-1.25,0.68
0.45,-1.18,0.62
0.45,-1.09,0.59
0.44,-1,0.56
0.41,-0.95,0.45
0.34,-0.84,0.38
0.34,-0.75,0.33
0.34,-0.72,0.31
0.32,-0.64,0.27
0.3,-0.55,0.25
0.3,-0.49,0.25
0.25,-0.47,0.22
0.19,-0.37,0.2
0.17,-0.3,0.23
0.11,-0.3,0.25
0.08,-0.19,0.26
0.05,-0.16,0.25
0.01,-0.14,0.23
0,-0.06,0.25
-0.01,-0.02,0.26
-0.02,0.03,0.28
-0.05,0.1,0.32
-0.08,0.12,0.32
-0.08,0.12,0.34
-0.1,0.18,0.37
-0.12,0.22,0.39
-0.13,0.26,0.4
-0.12,0.3,0.42
-0.12,0.32,0.43
-0.11,0.35,0.47
-0.1,0.36,0.53
-0.05,0.37,0.56
-0.07,0.37,0.58
-0.07,0.39,0.61
-0.08,0.34,0.62
-0.09,0.32,0.63
-0.1,0.36,0.66
-0.11,0.37,0.69
-0.1,0.37,0.72
-0.1,0.38,0.73
-0.12,0.39,0.75
-0.13,0.4,0.76
-0.13,0.4,0.76
-0.14,0.41,0.76
-0.14,0.4,0.75
-0.15,0.39,0.74
-0.16,0.38,0.72
-0.16,0.37,0.7
-0.15,0.36,0.67
-0.14,0.35,0.63
-0.13,0.34,0.59
-0.11,0.33,0.56
-0.1,0.33,0.52
-0.08,0.32,0.5
-0.06,0.3,0.47
-0.04,0.27,0.44
-0.03,0.26,0.4
-0.02,0.22,0.34
0.01,0.19,0.3
0.02,0.16,0.25
0.03,0.15,0.2
0.05,0.13,0.16
0.06,0.11,0.13
0.05,0.08,0.14
0.05,0.06,0.18
0.05,0.03,0.21
0.06,0,0.22
0.06,-0.04,0.19
0.06,-0.07,0.14
0.06,-0.12,0.07
0.09,-0.16,0.01
0.13,-0.19,-0.03
0.17,-0.25,-0.01
0.22,-0.33,0.05
0.25,-0.4,0.15
0.25,-0.49,0.27
0.27,-0.57,0.32
0.29,-0.7,0.31
0.31,-0.8,0.23
0.31,-0.87,0.06
0.39,-0.96,-0.1
0.6,-1.02,-0.16
0.77,-1.13,0.31
0.86,-1.37,0.54
0.91,-1.45,0.62
0.84,-1.47,0.61
0.75,-1.54,0.52
0.73,-1.68,0.35
0.77,-1.83,0.25
0.85,-1.97,0.34
1,-2.07,0.59
1.18,-2.09,0.93
1.26,-2.04,1.17
1.23,-2.05,1.21
1.18,-2.07,1.12
1.13,-2.04,1.02
1.02,-2.02,0.99
0.92,-2.04,0.98
0.94,-2.09,0.96
0.97,-2.11,0.95
0.4,-1.63,1.95
-0.83,-2.43,3.46
1.23,-3.19,2.37
3.98,-2.28,0.44
3.49,-1.23,-0.04
2.41,-0.71,-0.13
1.81,-0.96,0.12
1.32,-0.88,0.29
0.9,-0.61,0.22
1,-0.73,-0.17
0.82,-0.78,-0.27
0.57,-0.75,-0.29
0.41,-0.7,-0.31
0.28,-0.76,-0.29
0.16,-0.84,-0.21
0.16,-0.89,-0.12
0.28,-0.92,-0.07
0.36,-0.91,-0.06
0.38,-0.92,-0.06
0.39,-0.94,-0.06
0.38,-0.93,-0.05
0.35,-0.93,-0.06
0.34,-0.91,-0.08
0.32,-0.89,-0.08
0.3,-0.89,-0.08
0.29,-0.91,-0.09
0.29,-0.92,-0.08
0.3,-0.92,-0.08
0.31,-0.93,-0.07
0.33,-0.94,-0.07
0.34,-0.94,-0.06
0.35,-0.94,-0.05
0.36,-0.93,-0.04
0.37,-0.93,-0.03
0.38,-0.94,-0.03
0.43,-0.98,-0.06
0.49,-1.01,0.06
0.47,-0.99,0.34
0.23,-0.96,0.7
0.1,-0.97,0.9
0.23,-0.97,0.88
0.25,-0.98,0.79
0.17,-1,0.63
0.12,-0.98,0.45
0.14,-0.95,0.33
0.23,-0.94,0.25
0.29,-0.96,0.21
0.35,-0.97,0.19
0.37,-0.96,0.18
0.36,-0.97,0.17
0.38,-0.96,0.13
0.36,-0.93,0.11
0.33,-0.91,0.1
0.33,-0.9,0.09
0.34,-0.89,0.07
0.34,-0.87,0.05
0.34,-0.87,0.04
0.34,-0.89,0.04
0.34,-0.92,0.04
0.34,-0.95,0.05
0.33,-0.99,0.07
0.33,-1.02,0.1
0.33,-1.04,0.11
0.32,-1.04,0.12
0.31,-1.02,0.12
0.3,-1,0.11
0.28,-0.97,0.11
0.27,-0.93,0.11
0.27,-0.89,0.11
0.27,-0.88,0.11
0.27,-0.87,0.11
0.28,-0.88,0.11
0.3,-0.9,0.1
0.32,-0.92,0.1
0.33,-0.94,0.09
0.32,-0.96,0.11
0.33,-0.97,0.15
0.33,-0.97,0.21
0.32,-0.98,0.23
0.33,-0.98,0.22
0.35,-0.98,0.21
0.35,-0.97,0.21
0.35,-0.96,0.2
0.36,-0.96,0.2
0.38,-0.94,0.2
0.38,-0.93,0.2
0.38,-0.93,0.2
0.38,-0.92,0.18
0.36,-0.91,0.19
0.36,-0.9,0.19
0.36,-0.9,0.19
0.36,-0.9,0.19
0.35,-0.91,0.19
0.35,-0.93,0.18
0.35,-0.96,0.17
0.34,-0.99,0.16
0.34,-1.02,0.16
0.33,-1.05,0.15
0.32,-1.08,0.16
0.3,-1.09,0.17
0.29,-1.09,0.18
0.28,-1.08,0.19
0.27,-1.06,0.2
0.26,-1.03,0.2
0.25,-1,0.2
0.24,-0.97,0.19
0.25,-0.95,0.19
0.26,-0.94,0.18
0.27,-0.93,0.17
0.27,-0.93,0.16
0.25,-0.94,0.15
0.24,-0.94,0.14
0.23,-0.95,0.12
0.23,-0.96,0.1
0.27,-0.98,0.09
0.27,-0.98,0.09
0.27,-0.98,0.09
0.27,-0.98,0.09
0.27,-0.97,0.1
0.29,-0.95,0.1
0.3,-0.94,0.12
0.3,-0.92,0.13
0.3,-0.91,0.14
0.3,-0.91,0.15
0.29,-0.91,0.16
0.29,-0.92,0.17
0.28,-0.92,0.18
0.28,-0.93,0.18
0.27,-0.93,0.19
0.25,-0.94,0.2
0.26,-0.95,0.2
0.3,-0.95,0.18
0.31,-0.96,0.18
0.31,-0.97,0.17
0.31,-0.97,0.17
0.31,-0.98,0.17
0.31,-0.99,0.16
0.31,-1.01,0.16
0.3,-1.02,0.16
0.3,-1.03,0.16
0.29,-1.04,0.17
0.27,-1.04,0.16
0.26,-1.03,0.16
0.27,-1.02,0.17
0.28,-0.99,0.17
0.29,-0.97,0.17
0.29,-0.96,0.17
0.28,-0.95,0.18
0.29,-0.94,0.19
0.29,-0.94,0.18
0.29,-0.93,0.17
0.29,-0.93,0.17
0.29,-0.94,0.17
0.29,-0.94,0.16
0.29,-0.94,0.16
0.29,-0.95,0.15
0.29,-0.96,0.15
0.3,-0.95,0.15
0.32,-0.95,0.14
0.32,-0.94,0.14
0.34,-0.94,0.14
0.35,-0.94,0.14
0.34,-0.94,0.14
0.32,-0.94,0.15
0.32,-0.94,0.15
0.32,-0.94,0.14
0.31,-0.95,0.13
0.32,-0.95,0.13
0.32,-0.95,0.13
0.31,-0.95,0.13
0.3,-0.95,0.13
0.29,-0.95,0.14
0.28,-0.95,0.14
0.28,-0.95,0.14
0.28,-0.95,0.14
0.29,-0.94,0.14
0.29,-0.94,0.15
0.29,-0.94,0.15
0.3,-0.94,0.15
0.3,-0.94,0.15
0.3,-0.95,0.15
0.3,-0.97,0.15
0.3,-0.98,0.15
0.3,-1,0.16
0.3,-1.02,0.16
0.3,-1.04,0.16
0.3,-1.05,0.16
0.29,-1.05,0.17
0.28,-1.04,0.17
0.28,-1.02,0.16
0.29,-1,0.16
0.31,-0.98,0.17
0.31,-0.94,0.19
0.3,-0.94,0.2
0.31,-0.93,0.2
0.31,-0.93,0.2
0.31,-0.93,0.2
0.31,-0.94,0.19
0.31,-0.95,0.18
0.31,-0.95,0.18
0.32,-0.94,0.17
0.32,-0.94,0.16
0.33,-0.94,0.16
0.34,-0.93,0.16
0.35,-0.93,0.16
0.36,-0.93,0.16
0.36,-0.93,0.16
0.33,-0.94,0.16
0.31,-0.95,0.16
0.31,-0.96,0.16
0.32,-0.97,0.15
0.32,-0.98,0.15
0.32,-0.98,0.15
0.32,-0.97,0.15
0.32,-0.97,0.15
0.32,-0.96,0.15
0.31,-0.96,0.14
0.3,-0.97,0.14
0.3,-0.97,0.13
0.29,-0.96,0.13
0.28,-0.96,0.13
0.28,-0.96,0.13
0.28,-0.96,0.13
0.27,-0.95,0.13
0.28,-0.95,0.13
0.28,-0.95,0.13
0.29,-0.95,0.13
0.29,-0.94,0.13
0.3,-0.95,0.13
0.3,-0.95,0.14
0.3,-0.94,0.14
0.3,-0.94,0.14
0.31,-0.94,0.14
0.31,-0.95,0.14
0.31,-0.95,0.14
0.32,-0.95,0.13
0.33,-0.95,0.13
0.33,-0.95,0.13
0.35,-0.95,0.13
0.37,-0.95,0.13
0.4,-0.95,0.15
0.43,-0.95,0.17
0.46,-0.96,0.21
0.47,-0.98,0.27
0.47,-0.99,0.38
0.46,-1.01,0.43
0.47,-0.98,0.45
0.52,-0.96,0.47
0.57,-0.97,0.54
0.63,-1,0.66
0.72,-1.01,0.75
0.77,-1,0.75
0.83,-0.98,0.73
0.83,-0.98,0.75
0.78,-1,0.82
0.76,-1,0.93
0.76,-1.02,1
0.78,-1.07,1.02
0.81,-1.11,1.04
0.82,-1.14,1.08
0.82,-1.17,1.13
0.83,-1.2,1.17
0.85,-1.22,1.18
0.86,-1.25,1.18
0.86,-1.3,1.17
0.85,-1.35,1.15
0.83,-1.41,1.12
0.82,-1.46,1.09
0.8,-1.49,1.08
0.77,-1.51,1.1
0.73,-1.53,1.07
0.66,-1.55,1
0.63,-1.53,0.94
0.61,-1.51,0.9
0.6,-1.47,0.89
0.59,-1.42,0.92
0.58,-1.36,0.94
0.55,-1.3,0.92
0.52,-1.25,0.85
0.49,-1.2,0.77
0.46,-1.14,0.7
0.43,-1.08,0.65
0.41,-1.03,0.6
0.4,-0.95,0.56
0.34,-0.92,0.55
0.29,-0.87,0.54
0.31,-0.75,0.52
0.32,-0.71,0.51
0.31,-0.7,0.47
0.29,-0.58,0.44
0.27,-0.47,0.39
0.24,-0.51,0.34
0.24,-0.38,0.32
0.26,-0.28,0.27
0.2,-0.37,0.24
0.11,-0.36,0.24
0.1,-0.2,0.16
0.09,-0.14,0.19
0.09,-0.05,0.19
0.05,0.05,0.18
0.02,0.07,0.18
0.01,0.1,0.18
-0.01,0.14,0.2
-0.05,0.12,0.23
-0.02,0.19,0.26
-0.02,0.24,0.28
-0.03,0.3,0.31
-0.02,0.35,0.34
-0.03,0.36,0.36
-0.04,0.36,0.38
-0.03,0.39,0.4
-0.02,0.41,0.41
-0.07,0.4,0.42
-0.08,0.39,0.43
-0.07,0.4,0.43
-0.09,0.4,0.43
-0.1,0.42,0.43
-0.09,0.44,0.43
-0.08,0.43,0.43
-0.07,0.42,0.42
-0.06,0.41,0.4
-0.05,0.4,0.39
-0.04,0.39,0.39
-0.02,0.36,0.38
-0.02,0.34,0.38
-0.01,0.33,0.38
0,0.31,0.36
0.01,0.28,0.33
0.02,0.24,0.29
0.02,0.2,0.25
0.04,0.16,0.2
0.05,0.12,0.15
0.06,0.07,0.12
0.07,0.02,0.09
0.07,-0.02,0.07
0.07,-0.05,0.08
0.08,-0.07,0.09
0.09,-0.1,0.11
0.1,-0.15,0.12
0.1,-0.19,0.12
0.1,-0.25,0.09
0.1,-0.29,0.05
0.12,-0.31,0.03
0.13,-0.37,0.02
0.18,-0.45,0
0.25,-0.53,0.02
0.32,-0.64,0.08
0.41,-0.76,0.16
0.48,-0.88,0.22
0.52,-1.14,0.26
0.55,-1.26,0.19
0.63,-1.33,0.19
0.73,-1.44,0.29
0.85,-1.56,0.41
0.93,-1.68,0.54
0.93,-1.79,0.7
0.86,-1.87,0.89
0.84,-1.84,0.98
0.82,-1.81,0.92
0.73,-1.88,0.77
0.6,-1.98,0.61
0.53,-2.07,0.52
0.58,-2.12,0.54
0.74,-2.12,0.73
0.87,-2.08,0.98
0.94,-2.03,1.06
0.95,-2.01,0.95
0.99,-1.99,0.76
1.01,-1.97,0.63
1.11,-1.98,0.53
1.13,-1.95,1.01
0.08,-1.84,2.76
1.14,-1.76,2.27
3.57,-2.13,0.13
4,-1.5,-0.51
2.69,-0.81,-0.18
1.3,-0.93,-0.04
1.22,-0.77,-0.13
1.33,-0.74,-0.27
1.28,-0.73,-0.39
0.94,-0.77,-0.52
0.6,-0.78,-0.55
0.39,-0.74,-0.43
0.19,-0.74,-0.27
0.06,-0.76,-0.2
0.11,-0.82,-0.23
0.26,-0.9,-0.28
0.37,-0.95,-0.29
0.41,-0.97,-0.25
0.41,-0.99,-0.2
0.4,-0.99,-0.16
0.39,-0.98,-0.14
0.35,-0.97,-0.14
0.31,-0.98,-0.14
0.28,-0.98,-0.13
0.27,-0.98,-0.11
0.27,-0.99,-0.11
0.28,-1.01,-0.13
0.32,-1.03,-0.14
0.35,-1.02,-0.12
0.32,-1.02,-0.06
0.3,-1.03,0.12
0.18,-1,0.25
0.1,-0.98,0.38
0.07,-0.98,0.45
0.04,-0.98,0.48
0.07,-0.97,0.46
0.12,-0.95,0.41
0.12,-0.96,0.36
0.12,-0.96,0.3
0.14,-0.96,0.26
0.16,-0.96,0.23
0.19,-0.97,0.21
0.23,-0.98,0.19
0.27,-0.98,0.17
0.29,-0.98,0.15
0.3,-0.98,0.13
0.3,-0.98,0.1
0.29,-0.98,0.08
0.29,-0.97,0.07
0.29,-0.97,0.05
0.31,-0.95,0.05
0.32,-0.94,0.05
0.32,-0.93,0.05
0.32,-0.92,0.05
0.33,-0.93,0.05
0.33,-0.93,0.06
0.33,-0.94,0.05
0.33,-0.97,0.06
0.33,-0.98,0.06
0.33,-1.01,0.06
0.33,-1.03,0.07
0.33,-1.05,0.08
0.33,-1.05,0.11
0.32,-1.04,0.13
0.3,-1.03,0.15
0.29,-1.01,0.17
0.28,-0.99,0.19
0.32,-0.96,0.2
0.36,-0.94,0.2
0.36,-0.92,0.19
0.33,-0.91,0.18
0.29,-0.92,0.16
0.28,-0.92,0.14
0.26,-0.93,0.13
0.25,-0.94,0.12
0.24,-0.95,0.12
0.25,-0.96,0.12
0.25,-0.96,0.11
0.25,-0.96,0.12
0.27,-0.96,0.11
0.29,-0.96,0.1
0.3,-0.96,0.1
0.31,-0.95,0.11
0.33,-0.95,0.12
0.32,-0.96,0.13
0.32,-0.97,0.14
0.31,-0.98,0.16
0.31,-0.98,0.17
0.31,-0.99,0.18
0.31,-1,0.18
0.32,-1,0.18
0.32,-1,0.17
0.33,-1,0.16
0.33,-0.99,0.16
0.33,-0.98,0.15
0.33,-0.97,0.15
0.32,-0.96,0.14
0.3,-0.95,0.13
0.29,-0.95,0.13
0.27,-0.95,0.13
0.27,-0.96,0.13
0.25,-0.95,0.14
0.24,-0.95,0.14
0.25,-0.95,0.14
0.26,-0.97,0.13
0.26,-0.98,0.13
0.27,-0.99,0.13
0.27,-0.98,0.13
0.28,-0.98,0.13
0.31,-0.96,0.12
0.32,-0.96,0.11
0.33,-0.96,0.12
0.33,-0.97,0.12
0.33,-0.97,0.12
0.33,-0.98,0.12
0.32,-0.98,0.11
0.32,-0.97,0.12
0.32,-0.97,0.11
0.32,-0.97,0.12
0.31,-0.96,0.12
0.3,-0.96,0.12
0.3,-0.96,0.12
0.3,-0.96,0.12
0.29,-0.96,0.12
0.29,-0.95,0.12
0.29,-0.95,0.14
0.29,-0.96,0.16
0.28,-0.96,0.18
0.29,-0.96,0.17
0.29,-0.97,0.17
0.29,-0.97,0.15
0.3,-0.97,0.15
0.3,-0.96,0.15
0.3,-0.96,0.15
0.3,-0.96,0.14
0.3,-0.95,0.14
0.3,-0.96,0.14
0.29,-0.96,0.14
0.29,-0.96,0.14
0.29,-0.97,0.14
0.29,-0.97,0.14
0.29,-0.97,0.13
0.3,-0.98,0.13
0.3,-0.98,0.13
0.3,-0.97,0.13
0.3,-0.97,0.13
0.3,-0.97,0.13
0.3,-0.96,0.13
0.3,-0.97,0.13
0.3,-0.97,0.13
0.29,-0.96,0.13
0.29,-0.96,0.14
0.29,-0.96,0.14
0.29,-0.96,0.14
0.29,-0.96,0.14
0.29,-0.96,0.14
0.29,-0.96,0.14
0.29,-0.97,0.14
0.29,-0.97,0.14
0.29,-0.97,0.14
0.29,-0.97,0.14
0.29,-0.97,0.14
0.29,-0.97,0.14
0.29,-0.97,0.14
0.29,-0.97,0.14
0.3,-0.96,0.14
0.3,-0.97,0.14
0.29,-0.97,0.14
0.29,-0.97,0.14
0.29,-0.97,0.14
0.29,-0.97,0.14
0.29,-0.97,0.14
0.29,-0.97,0.14
0.3,-0.97,0.14
0.29,-0.97,0.14
0.29,-0.97,0.14
0.29,-0.97,0.14
0.29,-0.97,0.14
0.29,-0.97,0.14
0.29,-0.97,0.14
0.29,-0.97,0.14
0.3,-0.97,0.14
0.3,-0.97,0.14
0.3,-0.97,0.14
0.3,-0.97,0.14
0.3,-0.97,0.14
0.3,-0.97,0.14
0.3,-0.97,0.13
0.3,-0.97,0.14
0.3,-0.97,0.14
0.29,-0.97,0.14
0.29,-0.97,0.14
0.3,-0.97,0.14
0.3,-0.97,0.14
0.3,-0.97,0.14
0.31,-0.97,0.14
0.32,-0.96,0.14
0.34,-0.94,0.15
0.36,-0.94,0.17
0.39,-0.94,0.19
0.41,-0.95,0.2
0.41,-0.96,0.21
0.41,-0.95,0.24
0.42,-0.94,0.29
0.46,-0.93,0.35
0.54,-0.93,0.39
0.6,-0.94,0.44
0.65,-0.96,0.49
0.67,-0.97,0.56
0.69,-0.98,0.63
0.71,-0.97,0.65
0.72,-0.97,0.66
0.69,-0.99,0.71
0.68,-1.04,0.84
0.8,-1.06,0.91
0.86,-1.09,1.01
0.86,-1.11,1.09
0.83,-1.15,1.12
0.79,-1.2,1.12
0.79,-1.23,1.12
0.8,-1.27,1.13
0.8,-1.31,1.12
0.81,-1.35,1.11
0.81,-1.37,1.1
0.79,-1.4,1.11
0.75,-1.43,1.12
0.71,-1.45,1.1
0.69,-1.48,1.07
0.66,-1.5,1.06
0.63,-1.51,1.02
0.6,-1.49,0.99
0.58,-1.46,0.99
0.58,-1.44,0.98
0.57,-1.41,0.95
0.54,-1.37,0.91
0.52,-1.34,0.87
0.51,-1.29,0.85
0.5,-1.22,0.84
0.47,-1.16,0.82
0.42,-1.09,0.77
0.38,-1.03,0.73
0.36,-1,0.68
0.34,-0.93,0.65
0.32,-0.85,0.61
0.32,-0.76,0.58
0.31,-0.71,0.58
0.28,-0.7,0.57
0.26,-0.63,0.54
0.23,-0.57,0.5
0.22,-0.52,0.47
0.2,-0.46,0.46
0.2,-0.38,0.41
0.18,-0.36,0.35
0.13,-0.41,0.32
0.13,-0.34,0.34
0.13,-0.24,0.38
0.11,-0.17,0.38
0.11,-0.13,0.32
0.08,-0.05,0.26
0.03,0.01,0.25
0.01,0.04,0.25
0.02,0.11,0.25
0.02,0.14,0.26
-0.04,0.12,0.26
-0.06,0.13,0.23
-0.07,0.17,0.26
-0.14,0.27,0.28
-0.16,0.3,0.32
-0.15,0.34,0.34
-0.13,0.36,0.33
-0.14,0.37,0.34
-0.13,0.37,0.34
-0.15,0.34,0.33
-0.17,0.32,0.31
-0.18,0.31,0.28
-0.18,0.32,0.26
-0.18,0.35,0.26
-0.16,0.37,0.26
-0.16,0.35,0.26
-0.17,0.34,0.25
-0.16,0.34,0.24
-0.14,0.34,0.23
-0.12,0.33,0.23
-0.1,0.32,0.23
-0.09,0.3,0.24
-0.08,0.28,0.24
-0.06,0.25,0.24
-0.05,0.21,0.23
-0.05,0.16,0.21
-0.05,0.12,0.18
-0.03,0.07,0.16
-0.02,0.02,0.07
0.04,-0.05,0.05
0.06,-0.06,0.06
0.07,-0.09,0.1
0.09,-0.13,0.15
0.1,-0.18,0.2
0.12,-0.25,0.23
0.16,-0.31,0.21
0.18,-0.38,0.15
0.22,-0.42,0.06
0.26,-0.48,-0.01
0.33,-0.55,-0.07
0.43,-0.58,-0.07
0.46,-0.65,0.05
0.43,-0.76,0.23
0.49,-0.88,0.39
0.6,-0.99,0.44
0.6,-1.17,0.36
0.6,-1.34,0.23
0.72,-1.39,0.1
0.86,-1.46,0.1
0.98,-1.56,0.28
1.03,-1.7,0.59
1.09,-1.76,0.92
1.11,-1.75,1.07
1.04,-1.78,1.04
1.01,-1.84,0.64
0.94,-1.99,0.54
0.98,-2.06,0.55
1.11,-2.15,0.68
1.23,-2.16,0.92
1.27,-2.13,1.11
1.21,-2.03,1.25
1.08,-1.87,1.32
1,-1.81,1.24
0.87,-1.76,1.33
-0.45,-1.85,2.74
0.47,-0.77,3.89
2.75,-1.44,2.11
3.24,-2.11,0.09
3.23,-0.81,-0.27
2.35,-1.03,-0.13
1.71,-1.22,0.12
1.17,-0.93,0.28
0.69,-0.67,0.25
0.74,-0.72,0.03
0.81,-0.81,-0.21
0.71,-0.78,-0.36
0.46,-0.72,-0.37
0.22,-0.73,-0.29
0.12,-0.76,-0.2
0.12,-0.79,-0.14
0.18,-0.8,-0.11
0.36,-0.81,-0.14
0.38,-0.84,-0.16
0.36,-0.87,-0.12
0.36,-0.87,-0.09
0.37,-0.87,-0.08
0.38,-0.87,-0.08
0.36,-0.87,-0.09
0.35,-0.88,-0.1
0.34,-0.88,-0.1
0.31,-0.88,-0.09
0.3,-0.89,-0.08
0.3,-0.9,-0.08
0.31,-0.92,-0.08
0.33,-0.93,-0.07
0.33,-0.94,-0.05
0.37,-0.95,-0.04
0.38,-0.98,-0.04
0.41,-0.99,-0.04
0.48,-0.98,0
0.49,-0.97,0.06
0.36,-0.97,0.29
0.18,-0.99,0.66
0.23,-1.01,0.8
0.42,-1.01,0.82
0.39,-1.06,0.81
0.29,-1.12,0.51
0.26,-1.01,0.39
0.3,-0.97,0.3
0.33,-0.97,0.21
0.38,-0.97,0.15
0.41,-0.96,0.12
0.42,-0.94,0.12
0.4,-0.94,0.14
0.37,-0.96,0.15
0.36,-0.95,0.14
0.35,-0.93,0.11
0.34,-0.92,0.08
0.33,-0.92,0.06
0.32,-0.91,0.04
0.31,-0.91,0.04
0.29,-0.92,0.04
0.29,-0.92,0.05
0.29,-0.92,0.07
0.29,-0.91,0.08
0.3,-0.91,0.08
0.32,-0.92,0.07
0.33,-0.92,0.06
0.34,-0.93,0.05
0.35,-0.94,0.05
0.36,-0.94,0.06
0.36,-0.94,0.07
0.36,-0.94,0.08
0.35,-0.94,0.1
0.34,-0.94,0.11
0.34,-0.94,0.12
0.34,-0.95,0.14
0.34,-0.95,0.17
0.35,-0.95,0.18
0.37,-0.95,0.17
0.38,-0.95,0.16
0.38,-0.97,0.16
0.37,-0.98,0.16
0.37,-0.99,0.17
0.35,-1.01,0.18
0.34,-1.04,0.2
0.34,-1.05,0.21
0.34,-1.06,0.22
0.33,-1.05,0.23
0.32,-1.03,0.23
0.33,-1.01,0.24
0.33,-0.99,0.23
0.34,-0.96,0.22
0.34,-0.95,0.21
0.34,-0.93,0.2
0.32,-0.92,0.19
0.31,-0.93,0.18
0.3,-0.94,0.17
0.29,-0.94,0.16
0.28,-0.94,0.14
0.28,-0.95,0.13
0.28,-0.94,0.12
0.29,-0.94,0.11
0.31,-0.94,0.1
0.31,-0.94,0.09
0.32,-0.94,0.09
0.33,-0.94,0.09
0.34,-0.94,0.1
0.35,-0.94,0.11
0.34,-0.94,0.11
0.34,-0.94,0.12
0.34,-0.94,0.13
0.33,-0.94,0.14
0.31,-0.94,0.15
0.3,-0.94,0.16
0.3,-0.94,0.16
0.29,-0.94,0.16
0.28,-0.94,0.16
0.28,-0.94,0.16
0.28,-0.94,0.16
0.27,-0.95,0.16
0.27,-0.94,0.16
0.29,-0.94,0.15
0.3,-0.94,0.15
0.31,-0.94,0.14
0.32,-0.95,0.14
0.32,-0.95,0.14
0.32,-0.97,0.14
0.32,-0.99,0.14
0.31,-1.01,0.13
0.31,-1.04,0.13
0.3,-1.06,0.14
0.3,-1.06,0.15
0.31,-1.05,0.16
0.31,-1.03,0.17
0.31,-1.01,0.18
0.32,-0.98,0.18
0.33,-0.97,0.18
0.33,-0.95,0.19
0.33,-0.93,0.2
0.34,-0.92,0.2
0.34,-0.92,0.19
0.33,-0.92,0.18
0.32,-0.93,0.18
0.32,-0.94,0.18
0.32,-0.95,0.17
0.32,-0.96,0.16
0.33,-0.96,0.15
0.34,-0.96,0.15
0.35,-0.95,0.14
0.36,-0.94,0.13
0.38,-0.93,0.11
0.37,-0.92,0.11
0.35,-0.91,0.11
0.35,-0.92,0.11
0.35,-0.93,0.11
0.33,-0.93,0.11
0.33,-0.93,0.11
0.32,-0.93,0.12
0.3,-0.93,0.12
0.29,-0.93,0.13
0.29,-0.93,0.13
0.29,-0.93,0.13
0.3,-0.93,0.13
0.3,-0.94,0.13
0.31,-0.94,0.13
0.32,-0.95,0.13
0.32,-0.96,0.13
0.32,-0.99,0.14
0.31,-1.01,0.14
0.31,-1.03,0.15
0.3,-1.05,0.15
0.3,-1.07,0.16
0.29,-1.08,0.17
0.29,-1.07,0.19
0.29,-1.04,0.19
0.29,-1.01,0.2
0.3,-0.98,0.21
0.31,-0.94,0.21
0.32,-0.93,0.21
0.33,-0.93,0.2
0.32,-0.92,0.2
0.31,-0.93,0.19
0.31,-0.94,0.18
0.31,-0.94,0.17
0.31,-0.94,0.15
0.31,-0.94,0.14
0.31,-0.94,0.13
0.33,-0.94,0.11
0.35,-0.93,0.1
0.36,-0.93,0.1
0.34,-0.92,0.1
0.35,-0.92,0.1
0.35,-0.91,0.1
0.34,-0.91,0.11
0.34,-0.91,0.12
0.34,-0.92,0.12
0.34,-0.93,0.12
0.35,-0.93,0.13
0.35,-0.93,0.14
0.34,-0.93,0.14
0.33,-0.94,0.13
0.33,-0.94,0.13
0.32,-0.95,0.13
0.32,-0.96,0.13
0.32,-0.96,0.13
0.32,-0.97,0.14
0.32,-0.99,0.14
0.32,-1.02,0.15
0.3,-1.04,0.16
0.29,-1.05,0.16
0.28,-1.06,0.17
0.28,-1.05,0.18
0.28,-1.03,0.19
0.28,-1.01,0.19
0.29,-0.99,0.18
0.3,-0.97,0.18
0.31,-0.95,0.18
0.31,-0.95,0.18
0.32,-0.95,0.19
0.32,-0.94,0.19
0.32,-0.94,0.18
0.31,-0.95,0.18
0.32,-0.96,0.17
0.32,-0.96,0.16
0.33,-0.96,0.15
0.34,-0.96,0.15
0.35,-0.95,0.15
0.38,-0.94,0.14
0.39,-0.93,0.14
0.34,-0.92,0.15
0.33,-0.92,0.14
0.32,-0.92,0.14
0.32,-0.93,0.13
0.32,-0.94,0.13
0.32,-0.94,0.13
0.32,-0.94,0.13
0.31,-0.94,0.13
0.29,-0.94,0.13
0.29,-0.94,0.13
0.28,-0.94,0.13
0.28,-0.94,0.13
0.29,-0.94,0.13
0.29,-0.94,0.12
0.3,-0.94,0.13
0.3,-0.95,0.13
0.31,-0.96,0.12
0.31,-0.98,0.13
0.31,-1,0.13
0.31,-1.02,0.13
0.31,-1.04,0.13
0.3,-1.05,0.14
0.3,-1.05,0.14
0.28,-1.04,0.15
0.27,-1.02,0.16
0.28,-1,0.17
0.27,-0.95,0.2
0.26,-0.93,0.23
0.26,-0.92,0.23
0.26,-0.92,0.24
0.26,-0.92,0.24
0.26,-0.93,0.24
0.27,-0.94,0.23
0.28,-0.94,0.21
0.3,-0.95,0.2
0.31,-0.95,0.19
0.32,-0.95,0.18
0.34,-0.94,0.15
0.38,-0.94,0.14
0.41,-0.93,0.14
0.42,-0.92,0.15
0.42,-0.92,0.15
0.41,-0.91,0.15
0.4,-0.91,0.14
0.43,-0.92,0.15
0.48,-0.93,0.16
0.52,-0.93,0.2
0.55,-0.91,0.25
0.58,-0.89,0.32
0.6,-0.88,0.42
0.6,-0.89,0.51
0.57,-0.9,0.55
0.56,-0.98,0.56
0.65,-1.01,0.64
0.76,-0.98,0.73
0.84,-0.95,0.78
0.83,-0.98,0.85
0.8,-0.99,0.96
0.79,-0.99,1.06
0.79,-1.04,1.12
0.81,-1.13,1.18
0.81,-1.17,1.24
0.79,-1.19,1.29
0.77,-1.22,1.32
0.76,-1.26,1.32
0.78,-1.31,1.32
0.8,-1.38,1.3
0.82,-1.44,1.26
0.82,-1.49,1.22
0.81,-1.52,1.15
0.79,-1.55,1.06
0.76,-1.54,0.99
0.74,-1.53,0.95
0.71,-1.5,0.91
0.68,-1.47,0.89
0.66,-1.44,0.88
0.65,-1.39,0.88
0.62,-1.34,0.86
0.58,-1.26,0.77
0.5,-1.22,0.71
0.47,-1.15,0.67
0.44,-1.09,0.65
0.4,-1.06,0.63
0.37,-1.02,0.63
0.37,-0.95,0.62
0.35,-0.9,0.6
0.35,-0.83,0.57
0.31,-0.75,0.55
0.26,-0.72,0.54
0.26,-0.67,0.53
0.26,-0.59,0.5
0.27,-0.49,0.46
0.26,-0.44,0.44
0.21,-0.46,0.45
0.19,-0.37,0.42
0.2,-0.27,0.38
0.18,-0.32,0.35
0.19,-0.33,0.3
0.19,-0.2,0.27
0.22,-0.04,0.22
0.25,-0.03,0.19
0.22,-0.09,0.19
0.18,0,0.2
0.14,0.08,0.19
0.06,0.06,0.19
0.02,0.1,0.17
0,0.19,0.15
-0.01,0.27,0.14
-0.06,0.2,0.16
-0.1,0.15,0.15
-0.09,0.22,0.12
-0.13,0.24,0.1
-0.13,0.25,0.09
-0.12,0.28,0.1
-0.13,0.29,0.09
-0.12,0.28,0.08
-0.11,0.28,0.07
-0.1,0.27,0.07
-0.09,0.26,0.07
-0.06,0.25,0.07
-0.05,0.25,0.08
-0.03,0.26,0.09
0,0.25,0.1
0.02,0.21,0.11
0.03,0.17,0.13
0.05,0.13,0.14
0.07,0.08,0.14
0.09,0.02,0.11
0.1,-0.03,0.09
0.1,-0.08,0.07
0.12,-0.12,0.06
0.17,-0.2,0.1
0.18,-0.25,0.18
0.2,-0.31,0.26
0.22,-0.37,0.3
0.24,-0.47,0.28
0.25,-0.56,0.23
0.29,-0.64,0.15
0.37,-0.81,0.1
0.5,-0.91,0.16
0.61,-0.94,0.32
0.69,-1.02,0.49
0.76,-1.12,0.57
0.78,-1.21,0.57
0.75,-1.28,0.54
0.73,-1.37,0.45
0.73,-1.49,0.37
0.71,-1.61,0.43
0.74,-1.6,0.61
0.81,-1.59,0.69
0.86,-1.67,0.66
0.87,-1.77,0.61
0.89,-1.89,0.57
0.93,-1.99,0.56
0.99,-2,0.58
1.02,-2.01,0.61
1.06,-1.96,0.75
1.15,-1.81,0.84
1.12,-1.79,0.85
1.09,-1.76,0.82
1.06,-1.78,0.79
0.54,-1.35,2.19
-0.92,-1.98,3.8
0.06,-2.39,3
2.98,-1.93,0.84
3.85,-1.19,-0.36
3.14,-0.55,-0.24
2.15,-1.14,-0.03
1.71,-1.35,0.14
1.33,-1.02,0.23
0.75,-0.65,0.24
0.57,-0.63,0.1
0.7,-0.74,-0.16
0.68,-0.72,-0.33
0.47,-0.71,-0.36
0.25,-0.79,-0.3
0.12,-0.85,-0.2
0.08,-0.88,-0.11
0.12,-0.89,-0.05
0.23,-0.91,-0.05
0.36,-0.91,-0.09
0.42,-0.9,-0.12
0.37,-0.9,-0.1
0.34,-0.92,-0.09
0.36,-0.89,-0.08
0.33,-0.89,-0.08
0.32,-0.88,-0.07
0.31,-0.89,-0.08
0.31,-0.88,-0.09
0.3,-0.87,-0.08
0.3,-0.89,-0.08
0.3,-0.9,-0.08
0.32,-0.9,-0.08
0.33,-0.91,-0.07
0.33,-0.92,-0.06
0.33,-0.93,-0.05
0.32,-0.94,-0.04
0.32,-0.95,-0.02
0.33,-0.97,-0.01
0.34,-0.97,0.01
0.35,-0.98,0.02
0.36,-0.99,0.04
0.38,-1.01,0.06
0.38,-1.02,0.07
0.37,-1.02,0.14
0.18,-0.92,0.54
0.11,-0.89,0.84
0.47,-1.06,0.91
0.69,-1.14,0.77
0.31,-1.09,0.51
0.31,-1.02,0.36
0.24,-0.96,0.27
0.25,-0.97,0.23
0.33,-0.98,0.19
0.43,-0.94,0.17
0.44,-0.9,0.22
0.31,-0.88,0.29
0.21,-0.88,0.29
0.23,-0.89,0.23
0.32,-0.88,0.16
0.34,-0.88,0.1
0.31,-0.88,0.07
0.29,-0.88,0.06
0.28,-0.89,0.06
0.28,-0.89,0.07
0.28,-0.9,0.07
0.29,-0.91,0.08
0.29,-0.92,0.08
0.3,-0.93,0.08
0.3,-0.94,0.09
0.3,-0.96,0.09
0.31,-0.98,0.1
0.32,-0.99,0.1
0.32,-1,0.1
0.31,-1,0.09
0.31,-1.01,0.08
0.31,-1,0.08
0.32,-0.99,0.08
0.32,-0.98,0.08
0.32,-0.97,0.09
0.32,-0.97,0.09
0.32,-0.96,0.09
0.32,-0.96,0.09
0.32,-0.97,0.08
0.32,-0.97,0.08
0.32,-0.98,0.08
0.32,-0.99,0.08
0.31,-0.99,0.08
0.31,-0.99,0.07
0.33,-0.98,0.11
0.36,-0.96,0.22
0.34,-0.95,0.32
0.32,-0.95,0.35
0.34,-0.93,0.34
0.37,-0.92,0.32
0.39,-0.93,0.29
0.42,-0.93,0.27
0.46,-0.91,0.24
0.45,-0.91,0.22
0.42,-0.92,0.2
0.4,-0.93,0.16
0.37,-0.94,0.15
0.33,-0.93,0.15
0.33,-0.95,0.15
0.34,-0.98,0.14
0.33,-1.01,0.14
0.32,-1.02,0.13
0.31,-1.03,0.13
0.3,-1.03,0.13
0.29,-1.03,0.13
0.29,-1.02,0.14
0.27,-1.02,0.15
0.26,-1.01,0.15
0.24,-1.01,0.15
0.23,-1,0.14
0.22,-1,0.14
0.22,-1,0.14
0.22,-0.99,0.14
0.22,-0.99,0.14
0.23,-0.98,0.13
0.24,-0.98,0.12
0.23,-0.97,0.12
0.23,-0.96,0.12
0.24,-0.95,0.11
0.25,-0.95,0.11
0.25,-0.94,0.11
0.24,-0.94,0.13
0.26,-0.95,0.13
0.29,-0.95,0.13
0.3,-0.96,0.13
0.31,-0.96,0.14
0.31,-0.98,0.15
0.31,-0.98,0.16
0.31,-0.97,0.17
0.31,-0.97,0.18
0.3,-0.97,0.18
0.3,-0.97,0.17
0.29,-0.96,0.16
0.28,-0.96,0.16
0.26,-0.96,0.16
0.25,-0.96,0.16
0.25,-0.96,0.16
0.25,-0.96,0.15
0.25,-0.97,0.14
0.24,-0.98,0.13
0.25,-0.98,0.12
0.29,-0.98,0.12
0.31,-0.97,0.11
0.31,-0.97,0.11
0.31,-0.96,0.12
0.3,-0.96,0.12
0.3,-0.96,0.12
0.3,-0.96,0.13
0.31,-0.96,0.14
0.31,-0.97,0.15
0.31,-0.98,0.15
0.31,-0.99,0.15
0.31,-1.01,0.15
0.3,-1.03,0.15
0.27,-1.04,0.16
0.26,-1.05,0.18
0.26,-1.05,0.19
0.27,-1.03,0.2
0.27,-1.01,0.21
0.27,-0.99,0.21
0.28,-0.97,0.21
0.28,-0.95,0.21
0.27,-0.94,0.21
0.27,-0.95,0.2
0.27,-0.94,0.19
0.26,-0.94,0.17
0.26,-0.94,0.16
0.26,-0.94,0.15
0.26,-0.95,0.14
0.27,-0.95,0.13
0.28,-0.94,0.12
0.29,-0.94,0.12
0.29,-0.94,0.11
0.3,-0.94,0.1
0.31,-0.94,0.1
0.29,-0.93,0.11
0.29,-0.93,0.11
0.29,-0.93,0.12
0.3,-0.93,0.12
0.3,-0.93,0.13
0.3,-0.93,0.13
0.3,-0.93,0.14
0.3,-0.93,0.14
0.31,-0.94,0.14
0.31,-0.95,0.15
0.31,-0.96,0.15
0.31,-0.97,0.15
0.31,-0.99,0.16
0.3,-1.01,0.16
0.3,-1.04,0.17
0.29,-1.05,0.17
0.29,-1.06,0.18
0.28,-1.06,0.18
0.28,-1.06,0.18
0.29,-1.04,0.19
0.29,-1.01,0.21
0.28,-0.98,0.22
0.26,-0.96,0.23
0.26,-0.95,0.23
0.26,-0.94,0.23
0.26,-0.93,0.22
0.24,-0.93,0.21
0.24,-0.94,0.2
0.25,-0.94,0.19
0.26,-0.94,0.19
0.27,-0.94,0.18
0.29,-0.94,0.17
0.3,-0.94,0.17
0.31,-0.94,0.16
0.32,-0.94,0.15
0.34,-0.95,0.15
0.35,-0.94,0.14
0.35,-0.94,0.14
0.34,-0.94,0.14
0.33,-0.94,0.14
0.33,-0.95,0.14
0.34,-0.95,0.15
0.33,-0.95,0.15
0.32,-0.95,0.15
0.3,-0.95,0.15
0.29,-0.95,0.15
0.29,-0.95,0.15
0.29,-0.95,0.15
0.28,-0.95,0.15
0.28,-0.94,0.15
0.28,-0.94,0.16
0.28,-0.93,0.15
0.29,-0.93,0.15
0.29,-0.93,0.15
0.3,-0.92,0.15
0.31,-0.93,0.15
0.31,-0.93,0.15
0.32,-0.95,0.15
0.32,-0.97,0.15
0.32,-1,0.15
0.32,-1.04,0.15
0.31,-1.08,0.16
0.31,-1.11,0.16
0.3,-1.12,0.17
0.28,-1.1,0.17
0.27,-1.06,0.18
0.26,-1.02,0.17
0.26,-0.99,0.16
0.28,-0.97,0.15
0.31,-0.94,0.17
0.3,-0.92,0.21
0.27,-0.9,0.24
0.25,-0.91,0.24
0.24,-0.92,0.25
0.24,-0.93,0.26
0.23,-0.94,0.25
0.24,-0.94,0.24
0.26,-0.95,0.22
0.32,-0.94,0.16
0.38,-0.94,0.12
0.46,-0.93,0.1
0.51,-0.91,0.14
0.55,-0.9,0.24
0.6,-0.88,0.37
0.64,-0.87,0.52
0.62,-0.88,0.63
0.61,-0.9,0.65
0.66,-0.94,0.61
0.7,-0.99,0.62
0.73,-1.01,0.72
0.88,-0.99,0.82
1.03,-0.95,0.91
1.04,-0.96,0.95
0.96,-1,1
0.82,-1.02,1.08
0.72,-1.05,1.12
0.75,-1.1,1.15
0.84,-1.16,1.18
0.89,-1.21,1.24
0.91,-1.26,1.26
0.91,-1.33,1.25
0.88,-1.42,1.2
0.88,-1.49,1.14
0.88,-1.53,1.1
0.89,-1.54,1.04
0.89,-1.52,1.02
0.88,-1.49,1
0.85,-1.45,0.99
0.81,-1.4,0.98
0.78,-1.37,0.94
0.76,-1.35,0.89
0.73,-1.33,0.84
0.71,-1.28,0.82
0.7,-1.26,0.8
0.68,-1.22,0.78
0.66,-1.16,0.77
0.63,-1.1,0.77
0.59,-1.05,0.75
0.54,-1,0.7
0.49,-0.95,0.67
0.45,-0.89,0.65
0.41,-0.82,0.63
0.41,-0.73,0.6
0.4,-0.68,0.58
0.38,-0.64,0.58
0.3,-0.65,0.66
0.23,-0.61,0.68
0.26,-0.47,0.58
0.23,-0.42,0.51
0.17,-0.46,0.43
0.17,-0.17,0.33
0.15,-0.18,0.36
0.05,-0.23,0.35
0.01,-0.21,0.37
0.07,-0.11,0.37
0.07,0.01,0.35
-0.01,-0.03,0.34
-0.05,-0.07,0.33
-0.05,-0.01,0.28
-0.09,0.05,0.23
-0.09,0.08,0.21
-0.05,0.15,0.18
-0.05,0.18,0.16
-0.05,0.19,0.13
-0.03,0.27,0.11
-0.05,0.28,0.1
-0.1,0.23,0.07
-0.11,0.23,0.05
-0.11,0.32,0.06
-0.13,0.35,0.05
-0.14,0.35,0.03
-0.14,0.35,0.01
-0.14,0.34,0
-0.15,0.34,-0.01
-0.15,0.34,-0.02
-0.13,0.35,-0.02
-0.11,0.37,0.01
-0.09,0.38,0.04
-0.08,0.38,0.08
-0.07,0.36,0.11
-0.06,0.31,0.14
-0.06,0.25,0.14
-0.05,0.19,0.12
-0.02,0.13,0.07
0.01,0.09,0.01
0.03,0.04,-0.03
0.04,0,-0.03
0.06,-0.04,0
0.08,-0.07,0.06
0.1,-0.13,0.12
0.12,-0.19,0.18
0.13,-0.26,0.21
0.15,-0.34,0.18
0.19,-0.42,0.11
0.24,-0.49,0.04
0.27,-0.64,0.03
0.33,-0.72,0.1
0.41,-0.72,0.19
0.53,-0.79,0.27
0.58,-0.91,0.35
0.58,-1.01,0.39
0.61,-1.12,0.37
0.65,-1.23,0.26
0.81,-1.37,0.27
0.96,-1.41,0.29
1.07,-1.51,0.36
1.15,-1.62,0.5
1.17,-1.76,0.7
1.16,-1.86,0.95
1.12,-1.87,1.15
1.06,-1.82,1.14
1.02,-1.83,0.95
0.94,-1.89,0.8
0.84,-1.95,0.75
0.85,-2.03,0.76
0.94,-2.13,0.81
1.01,-2.18,0.87
1.08,-2.09,0.96
1.17,-1.94,1.03
1.27,-1.85,1.05
1.32,-1.79,1.04
0.64,-1.52,2.51
-0.52,-1.43,3.99
0.62,-2.01,2.49
3.1,-1.92,0.51
3.55,-1,-0.2
2.5,-0.84,-0.22
1.58,-1.13,0.14
1.29,-1,0.18
1.07,-0.76,0.04
0.94,-0.83,-0.09
0.75,-0.87,-0.19
0.53,-0.83,-0.24
0.38,-0.78,-0.23
0.2,-0.8,-0.19
0.09,-0.86,-0.14
0.07,-0.87,-0.1
0.11,-0.87,-0.09
0.21,-0.85,-0.09
0.27,-0.84,-0.11
0.31,-0.86,-0.12
0.33,-0.87,-0.09
0.31,-0.87,-0.08
0.32,-0.86,-0.07
0.33,-0.86,-0.09
0.34,-0.83,-0.12
0.31,-0.83,-0.12
0.3,-0.86,-0.12
0.29,-0.84,-0.11
0.3,-0.84,-0.11
0.3,-0.86,-0.11
0.31,-0.88,-0.11
0.32,-0.9,-0.1
0.32,-0.91,-0.08
0.33,-0.93,-0.06
0.38,-0.97,-0.05
0.4,-0.99,-0.05
0.42,-1.01,-0.04
0.45,-1.01,-0.01
0.48,-1.04,0.06
0.35,-1.07,0.43
0.1,-1.1,0.85
0.27,-1.09,0.91
0.48,-1.03,0.86
0.32,-1.08,0.77
0.22,-1.09,0.58
0.2,-1,0.4
0.23,-0.95,0.27
0.28,-0.96,0.21
0.34,-0.98,0.18
0.37,-0.98,0.18
0.4,-0.98,0.19
0.42,-0.98,0.19
0.4,-0.98,0.17
0.35,-0.97,0.15
0.32,-0.95,0.13
0.31,-0.94,0.1
0.3,-0.94,0.07
0.28,-0.94,0.06
0.27,-0.94,0.06
0.25,-0.93,0.08
0.24,-0.93,0.09
0.24,-0.93,0.08
0.25,-0.93,0.08
0.26,-0.93,0.09
0.28,-0.93,0.09
0.29,-0.93,0.09
0.31,-0.93,0.08
0.32,-0.94,0.08
0.33,-0.95,0.07
0.33,-0.95,0.07
0.33,-0.95,0.07
0.33,-0.96,0.06
0.32,-0.97,0.06
0.33,-0.98,0.07
0.34,-0.98,0.09
0.34,-0.98,0.1
0.35,-0.99,0.13
0.34,-0.99,0.15
0.33,-0.99,0.19
0.31,-0.97,0.26
0.29,-0.97,0.29
0.31,-0.97,0.29
0.33,-0.96,0.28
0.31,-0.96,0.27
0.29,-0.95,0.27
0.28,-0.95,0.25
0.27,-0.94,0.24
0.27,-0.94,0.23
0.27,-0.95,0.22
0.26,-0.95,0.2
0.25,-0.95,0.19
0.26,-0.95,0.18
0.27,-0.96,0.17
0.28,-0.96,0.16
0.28,-0.96,0.15
0.28,-0.96,0.14
0.29,-0.96,0.14
0.28,-0.97,0.14
0.28,-0.97,0.13
0.28,-0.97,0.13
0.28,-0.97,0.13
0.29,-0.98,0.13
0.3,-0.98,0.13
0.3,-0.99,0.13
0.3,-0.99,0.12
0.3,-0.99,0.12
0.3,-1,0.12
0.29,-1,0.12
0.28,-1,0.13
0.27,-1,0.14
0.26,-0.99,0.15
0.27,-0.98,0.16
0.27,-0.97,0.18
0.27,-0.96,0.2
0.27,-0.96,0.2
0.27,-0.96,0.2
0.27,-0.96,0.21
0.27,-0.95,0.22
0.28,-0.95,0.22
0.29,-0.95,0.22
0.3,-0.95,0.21
0.31,-0.95,0.21
0.31,-0.95,0.19
0.32,-0.95,0.18
0.32,-0.95,0.17
0.33,-0.95,0.15
0.34,-0.95,0.15
0.34,-0.95,0.14
0.33,-0.95,0.13
0.32,-0.95,0.13
0.32,-0.94,0.13
0.32,-0.94,0.14
0.3,-0.94,0.14
0.3,-0.94,0.14
0.3,-0.94,0.14
0.3,-0.93,0.14
0.29,-0.94,0.14
0.29,-0.96,0.13
0.28,-0.98,0.13
0.28,-0.97,0.14
0.29,-0.98,0.14
0.31,-1.01,0.16
0.31,-1.04,0.2
0.32,-1.06,0.22
0.33,-1.06,0.23
0.32,-1.04,0.24
0.31,-1.02,0.24
0.31,-1,0.23
0.31,-0.97,0.21
0.3,-0.95,0.2
0.28,-0.93,0.18
0.28,-0.92,0.16
0.27,-0.91,0.14
0.25,-0.91,0.13
0.23,-0.92,0.13
0.23,-0.93,0.12
0.24,-0.94,0.12
0.25,-0.94,0.12
0.26,-0.94,0.11
0.28,-0.94,0.11
0.3,-0.94,0.1
0.3,-0.94,0.1
0.3,-0.94,0.11
0.29,-0.94,0.11
0.29,-0.94,0.11
0.3,-0.92,0.12
0.3,-0.93,0.12
0.29,-0.93,0.13
0.29,-0.94,0.13
0.29,-0.95,0.13
0.29,-0.97,0.14
0.29,-0.98,0.14
0.29,-1,0.15
0.29,-1.02,0.16
0.27,-1.02,0.18
0.27,-1.02,0.19
0.27,-1.02,0.2
0.27,-1.01,0.22
0.26,-1,0.24
0.25,-0.98,0.25
0.26,-0.97,0.24
0.27,-0.96,0.24
0.27,-0.96,0.23
0.28,-0.95,0.23
0.29,-0.95,0.22
0.3,-0.96,0.21
0.3,-0.96,0.2
0.31,-0.96,0.2
0.32,-0.96,0.19
0.32,-0.96,0.18
0.34,-0.96,0.17
0.36,-0.94,0.16
0.36,-0.94,0.15
0.35,-0.93,0.14
0.34,-0.92,0.14
0.35,-0.92,0.13
0.35,-0.92,0.13
0.33,-0.92,0.13
0.31,-0.92,0.13
0.31,-0.93,0.13
0.31,-0.93,0.12
0.32,-0.94,0.12
0.32,-0.94,0.12
0.31,-0.94,0.13
0.31,-0.94,0.13
0.3,-0.93,0.13
0.3,-0.93,0.13
0.3,-0.93,0.13
0.3,-0.93,0.13
0.31,-0.94,0.14
0.31,-0.94,0.14
0.31,-0.96,0.14
0.31,-0.98,0.14
0.31,-1,0.15
0.31,-1.03,0.15
0.3,-1.05,0.16
0.29,-1.06,0.18
0.3,-1.06,0.21
0.3,-1.04,0.22
0.3,-1.01,0.23
0.3,-0.99,0.24
0.31,-0.96,0.24
0.32,-0.95,0.23
0.32,-0.95,0.23
0.33,-0.95,0.23
0.33,-0.95,0.22
0.33,-0.95,0.22
0.32,-0.96,0.21
0.32,-0.96,0.21
0.32,-0.97,0.19
0.33,-0.96,0.17
0.35,-0.95,0.16
0.36,-0.93,0.15
0.36,-0.93,0.14
0.35,-0.93,0.13
0.34,-0.92,0.13
0.33,-0.92,0.13
0.33,-0.92,0.12
0.33,-0.93,0.12
0.33,-0.93,0.12
0.33,-0.94,0.12
0.34,-0.94,0.12
0.34,-0.94,0.13
0.33,-0.94,0.14
0.33,-0.93,0.15
0.34,-0.93,0.15
0.35,-0.93,0.16
0.36,-0.92,0.17
0.37,-0.93,0.18
0.37,-0.93,0.2
0.38,-0.92,0.22
0.41,-0.92,0.26
0.46,-0.93,0.31
0.51,-0.95,0.4
0.57,-0.97,0.53
0.61,-0.99,0.62
0.65,-1.03,0.7
0.66,-1.08,0.8
0.73,-1.09,0.86
0.85,-1.06,0.94
0.9,-1.05,1.05
0.89,-1.08,1.17
0.84,-1.1,1.28
0.78,-1.12,1.35
0.76,-1.2,1.34
0.76,-1.27,1.33
0.77,-1.29,1.35
0.79,-1.33,1.38
0.81,-1.37,1.37
0.82,-1.46,1.32
0.81,-1.49,1.25
0.81,-1.51,1.2
0.82,-1.53,1.15
0.81,-1.54,1.11
0.79,-1.53,1.07
0.74,-1.51,1.02
0.71,-1.48,0.97
0.68,-1.46,0.95
0.65,-1.43,0.96
0.63,-1.39,0.94
0.59,-1.37,0.9
0.55,-1.35,0.85
0.52,-1.29,0.78
0.49,-1.21,0.72
0.45,-1.14,0.71
0.43,-1.09,0.71
0.41,-1.01,0.74
0.39,-0.95,0.76
0.37,-0.93,0.7
0.35,-0.88,0.65
0.31,-0.84,0.6
0.25,-0.8,0.53
0.24,-0.7,0.51
0.26,-0.57,0.47
0.25,-0.51,0.43
0.25,-0.47,0.4
0.13,-0.42,0.36
0.14,-0.32,0.32
0.12,-0.23,0.32
0.07,-0.24,0.28
0.13,-0.15,0.24
0.14,-0.04,0.2
0.13,-0.02,0.17
0.1,-0.02,0.17
0.06,0.04,0.17
0.02,0.08,0.18
-0.02,0.12,0.2
-0.05,0.2,0.22
-0.07,0.23,0.21
-0.09,0.28,0.22
-0.12,0.33,0.24
-0.08,0.33,0.21
-0.09,0.34,0.22
-0.11,0.38,0.26
-0.11,0.38,0.28
-0.12,0.4,0.29
-0.12,0.42,0.31
-0.12,0.41,0.32
-0.1,0.41,0.32
-0.11,0.39,0.32
-0.13,0.38,0.31
-0.13,0.37,0.25
-0.11,0.36,0.23
-0.11,0.37,0.22
-0.1,0.38,0.21
-0.09,0.38,0.21
-0.09,0.37,0.22
-0.08,0.36,0.22
-0.06,0.34,0.21
-0.05,0.3,0.18
-0.03,0.27,0.14
-0.02,0.25,0.1
-0.01,0.22,0.06
-0.01,0.2,0.04
0.01,0.17,0.02
0.02,0.13,0
0.03,0.07,0
0.04,0.01,0.02
0.06,-0.04,0.02
0.08,-0.07,0.02
0.11,-0.12,0.01
0.14,-0.16,0.01
0.16,-0.21,0
0.19,-0.29,0
0.23,-0.35,0.03
0.25,-0.44,0.07
0.26,-0.52,0.12
0.29,-0.72,0.15
0.42,-0.83,0.16
0.49,-0.97,0.21
0.57,-1.12,0.28
0.69,-1.26,0.4
0.77,-1.36,0.51
0.78,-1.44,0.53
0.77,-1.47,0.5
0.77,-1.52,0.45
0.83,-1.62,0.38
0.93,-1.73,0.41
0.95,-1.85,0.66
0.92,-1.9,0.96
0.93,-1.89,1.05
0.93,-1.95,1.01
0.83,-2.05,1
0.82,-2.02,0.95
0.89,-2.02,0.84
0.89,-2.16,0.75
0.94,-2.2,0.73
1.1,-2.12,0.82
1.2,-2.02,0.92
1.19,-1.94,0.95
1.15,-1.88,0.91
0.65,-1.53,1.94
-1.68,-2.57,3.5
0.21,-3.26,0.62
3.86,-1.24,-0.25
2.85,-0.51,-0.44
1.73,-1.02,-0.19
1.5,-0.98,0.11
1.3,-0.7,0.14
1.22,-0.69,0.01
1.05,-0.73,-0.16
0.77,-0.75,-0.31
0.58,-0.7,-0.35
0.38,-0.64,-0.24
0.15,-0.67,-0.12
0.12,-0.72,-0.11
0.21,-0.77,-0.15
0.29,-0.81,-0.17
0.35,-0.84,-0.16
0.39,-0.86,-0.15
0.38,-0.9,-0.12
0.4,-0.94,-0.1
0.41,-0.95,-0.07
0.38,-0.95,-0.05
0.35,-0.94,-0.04
0.34,-0.93,-0.04
0.33,-0.93,-0.04
0.3,-0.94,-0.05
0.29,-0.94,-0.05
0.29,-0.95,-0.04
0.31,-0.96,-0.03
0.37,-0.98,-0.05
0.45,-1,-0.04
0.44,-1,0.01
0.37,-1,0.1
0.31,-0.98,0.2
0.23,-0.97,0.35
0.09,-0.99,0.54
0.09,-1,0.62
0.2,-0.99,0.58
0.21,-0.99,0.53
0.2,-1.01,0.46
0.19,-1.01,0.38
0.16,-0.99,0.31
0.19,-0.96,0.26
0.26,-0.95,0.22
0.32,-0.96,0.19
0.34,-0.97,0.17
0.35,-0.97,0.16
0.35,-0.97,0.14
0.36,-0.96,0.13
0.37,-0.96,0.11
0.36,-0.95,0.09
0.34,-0.94,0.08
0.33,-0.95,0.08
0.34,-0.95,0.09
0.32,-0.95,0.1
0.3,-0.95,0.1
0.3,-0.94,0.1
0.3,-0.94,0.1
0.3,-0.94,0.09
0.3,-0.95,0.08
0.31,-0.96,0.08
0.32,-0.96,0.07
0.33,-0.96,0.07
0.35,-0.96,0.08
0.35,-0.95,0.08
0.36,-0.95,0.08
0.36,-0.96,0.08
0.36,-0.96,0.09
0.36,-0.96,0.09
0.36,-0.97,0.1
0.36,-0.97,0.11
0.35,-0.97,0.12
0.35,-0.98,0.13
0.36,-0.99,0.14
0.38,-0.99,0.16
0.39,-0.98,0.18
0.38,-0.98,0.19
0.37,-0.98,0.2
0.36,-0.98,0.21
0.34,-0.98,0.23
0.33,-0.96,0.23
0.33,-0.96,0.23
0.31,-0.96,0.22
0.29,-0.97,0.21
0.28,-0.97,0.21
0.27,-0.97,0.2
0.27,-0.97,0.19
0.26,-0.98,0.18
0.26,-0.98,0.18
0.25,-0.98,0.17
0.25,-0.98,0.17
0.25,-0.98,0.16
0.27,-0.99,0.16
0.29,-0.99,0.16
0.29,-0.98,0.16
0.28,-0.98,0.15
0.28,-0.97,0.14
0.28,-0.97,0.14
0.28,-0.97,0.14
0.28,-0.97,0.13
0.27,-0.97,0.13
0.27,-0.97,0.14
0.27,-0.97,0.14
0.27,-0.97,0.14
0.27,-0.97,0.14
0.27,-0.96,0.15
0.26,-0.96,0.16
0.25,-0.96,0.17
0.24,-0.96,0.18
0.23,-0.96,0.19
0.22,-0.96,0.19
0.22,-0.96,0.21
0.23,-0.96,0.22
0.24,-0.96,0.22
0.24,-0.96,0.22
0.25,-0.96,0.22
0.27,-0.97,0.21
0.28,-0.97,0.21
0.27,-0.96,0.21
0.28,-0.96,0.21
0.29,-0.97,0.21
0.29,-0.97,0.2
0.29,-0.97,0.2
0.3,-0.97,0.2
0.3,-0.96,0.2
0.3,-0.96,0.2
0.3,-0.96,0.2
0.31,-0.96,0.2
0.31,-0.96,0.21
0.32,-0.96,0.22
0.32,-0.95,0.23
0.32,-0.94,0.23
0.33,-0.94,0.24
0.35,-0.94,0.25
0.36,-0.93,0.25
0.36,-0.93,0.25
0.36,-0.93,0.25
0.36,-0.93,0.25
0.36,-0.92,0.26
0.35,-0.92,0.27
0.35,-0.93,0.27
0.35,-0.94,0.28
0.36,-0.94,0.27
0.37,-0.95,0.26
0.36,-0.96,0.25
0.35,-0.96,0.25
0.35,-0.94,0.26
0.34,-0.92,0.27
0.33,-0.89,0.27
0.31,-0.87,0.28
0.3,-0.85,0.3
0.28,-0.84,0.31
0.27,-0.83,0.31
0.28,-0.82,0.31
0.29,-0.82,0.31
0.31,-0.82,0.3
0.33,-0.83,0.29
0.36,-0.84,0.27
0.4,-0.86,0.24
0.44,-0.87,0.22
0.44,-0.87,0.21
0.42,-0.88,0.2
0.41,-0.89,0.18
0.39,-0.89,0.19
0.38,-0.89,0.23
0.38,-0.89,0.24
0.4,-0.89,0.24
0.4,-0.88,0.24
0.4,-0.88,0.25
0.42,-0.89,0.23
0.45,-0.89,0.22
0.45,-0.89,0.23
0.45,-0.9,0.23
0.46,-0.9,0.23
0.46,-0.91,0.23
0.45,-0.94,0.22
0.43,-0.96,0.21
0.41,-0.99,0.21
0.41,-1.02,0.2
0.42,-1.05,0.17
0.43,-1.08,0.14
0.46,-1.11,0.11
0.45,-1.11,0.1
0.41,-1.11,0.1
0.39,-1.05,0.1
0.37,-1,0.1
0.33,-0.95,0.11
0.26,-0.91,0.11
0.23,-0.9,0.11
0.23,-0.9,0.09
0.25,-0.9,0.07
0.26,-0.9,0.06
0.26,-0.91,0.05
0.27,-0.92,0.05
0.27,-0.93,0.04
0.3,-0.94,0.03
0.31,-0.96,0.02
0.29,-0.99,0.02
0.29,-1,0.01
0.32,-1.01,0
0.37,-1.01,-0.02
0.41,-1.01,-0.05
0.46,-0.99,-0.06
0.51,-0.96,-0.05
0.56,-0.94,-0.01
0.61,-0.93,0.11
0.67,-0.94,0.29
0.7,-0.96,0.47
0.67,-0.95,0.63
0.63,-0.96,0.69
0.63,-1.01,0.77
0.93,-1.02,0.8
0.92,-1.05,0.83
0.86,-1.14,0.88
0.91,-1.21,0.91
1.01,-1.23,0.95
1.04,-1.25,0.99
0.98,-1.29,1.02
0.88,-1.32,1.08
0.83,-1.33,1.16
0.83,-1.36,1.21
0.83,-1.42,1.22
0.82,-1.48,1.18
0.8,-1.54,1.12
0.8,-1.59,1.03
0.81,-1.63,0.94
0.82,-1.64,0.86
0.82,-1.63,0.81
0.8,-1.6,0.79
0.76,-1.55,0.78
0.72,-1.51,0.77
0.67,-1.47,0.74
0.63,-1.43,0.69
0.6,-1.38,0.65
0.57,-1.33,0.61
0.55,-1.25,0.6
0.51,-1.17,0.58
0.48,-1.04,0.57
0.46,-1.01,0.58
0.45,-0.94,0.57
0.42,-0.88,0.54
0.38,-0.82,0.48
0.35,-0.76,0.47
0.32,-0.72,0.51
0.29,-0.65,0.51
0.25,-0.62,0.5
0.23,-0.58,0.48
0.26,-0.47,0.45
0.29,-0.39,0.41
0.25,-0.35,0.39
0.19,-0.37,0.41
0.17,-0.37,0.41
0.18,-0.27,0.39
0.19,-0.22,0.35
0.15,-0.21,0.32
0.13,-0.07,0.3
0.13,-0.04,0.31
0.16,-0.01,0.35
0.13,0.02,0.36
0.12,0,0.36
0.14,0.12,0.37
0.09,0.15,0.39
0.05,0.13,0.41
0.09,0.22,0.41
0.06,0.24,0.42
0.03,0.28,0.43
0.04,0.3,0.42
0.03,0.31,0.44
0.01,0.31,0.45
0,0.31,0.44
0,0.33,0.43
0,0.32,0.42
0.01,0.32,0.4
0.01,0.3,0.39
-0.01,0.31,0.39
0,0.34,0.39
0.02,0.35,0.38
0.04,0.35,0.37
0.04,0.34,0.37
0.04,0.34,0.38
0.05,0.35,0.39
0.07,0.35,0.4
0.08,0.34,0.4
0.09,0.32,0.4
0.1,0.29,0.38
0.1,0.26,0.37
0.1,0.25,0.37
0.11,0.24,0.37
0.13,0.2,0.33
0.16,0.1,0.3
0.16,0.05,0.27
0.17,-0.01,0.23
0.19,-0.05,0.19
0.21,-0.09,0.15
0.23,-0.12,0.12
0.24,-0.14,0.14
0.28,-0.16,0.18
0.33,-0.2,0.22
0.36,-0.23,0.24
0.37,-0.27,0.26
0.37,-0.32,0.25
0.39,-0.36,0.2
0.41,-0.43,0.15
0.43,-0.47,0.12
0.49,-0.51,0.13
0.54,-0.57,0.19
0.57,-0.64,0.28
0.6,-0.74,0.35
0.64,-0.83,0.38
0.67,-0.9,0.36
0.71,-0.93,0.29
0.77,-1,0.21
0.82,-1.11,0.21
0.85,-1.24,0.29
0.96,-1.29,0.41
1.04,-1.48,0.59
1.01,-1.58,0.6
1.05,-1.59,0.55
1.06,-1.66,0.5
1.04,-1.77,0.52
1.03,-1.88,0.6
1.06,-1.92,0.67
1.12,-1.9,0.72
1.14,-1.9,0.74
1.11,-1.93,0.76
1.11,-1.98,0.75
1.14,-1.97,0.76
0.76,-1.59,2.04
-1.81,-2.14,3.65
-0.02,-3.52,2.81
2.65,-3.36,-0.66
2.67,-1.55,-2.18
3.81,-0.39,-0.99
2.47,-0.84,-0.34
1.1,-1.13,0.18
0.62,-0.72,0.5
0.6,-0.56,0.33
0.97,-0.74,0.05
0.99,-0.8,-0.14
0.78,-0.76,-0.27
0.59,-0.69,-0.33
0.42,-0.68,-0.16
0.27,-0.7,-0.02
0.36,-0.75,0.04
0.47,-0.8,0.01
0.55,-0.83,-0.05
0.54,-0.84,-0.08
0.5,-0.86,-0.09
0.48,-0.87,-0.07
0.48,-0.88,-0.05
0.47,-0.89,-0.03
0.47,-0.9,-0.03
0.47,-0.91,-0.02
0.47,-0.92,-0.01
0.46,-0.92,-0.01
0.44,-0.91,-0.02
0.42,-0.91,-0.02
0.41,-0.92,-0.03
0.4,-0.91,-0.03
0.4,-0.91,-0.04
0.38,-0.91,-0.04
0.37,-0.91,-0.03
0.37,-0.91,-0.03
0.37,-0.9,-0.04
0.37,-0.89,-0.05
0.38,-0.88,-0.06
0.39,-0.88,-0.06
0.4,-0.87,-0.05
0.42,-0.88,-0.04
0.42,-0.89,-0.03
0.42,-0.9,-0.01
0.42,-0.91,0.02
0.42,-0.93,0.03
0.41,-0.95,0.04
0.41,-1,0.04
0.41,-1.05,0.04
0.4,-1.12,0.03
0.41,-1.18,0.04
0.41,-1.21,0.05
0.41,-1.22,0.06
0.41,-1.19,0.07
0.4,-1.15,0.09
0.41,-1.11,0.1
0.41,-1.06,0.12
0.42,-1.01,0.15
0.43,-0.98,0.18
0.43,-0.97,0.27
0.37,-0.98,0.45
0.22,-1.01,0.71
0.04,-1.04,0.8
0.12,-1.11,0.72
0.54,-1.16,0.57
0.79,-1.11,0.35
0.75,-1.06,0.23
0.55,-1.06,0.24
0.46,-1.05,0.24
0.38,-1.03,0.25
0.31,-1,0.25
0.25,-0.97,0.26
0.18,-0.98,0.27
0.13,-1.02,0.28
0.11,-1.07,0.28
0.12,-1.09,0.28
0.15,-1.11,0.25
0.18,-1.12,0.22
0.22,-1.13,0.18
0.23,-1.13,0.14
0.21,-1.14,0.12
0.21,-1.15,0.09
0.2,-1.14,0.08
0.21,-1.11,0.07
0.22,-1.06,0.06
0.22,-1.02,0.07
0.21,-0.98,0.08
0.22,-0.93,0.1
0.22,-0.89,0.11
0.24,-0.84,0.11
0.25,-0.8,0.11
0.26,-0.78,0.12
0.26,-0.75,0.14
0.25,-0.73,0.15
0.26,-0.72,0.17
0.26,-0.71,0.18
0.26,-0.72,0.19
0.24,-0.72,0.2
0.23,-0.73,0.2
0.23,-0.74,0.24
0.22,-0.74,0.31
0.18,-0.75,0.38
0.19,-0.76,0.41
0.23,-0.77,0.44
0.29,-0.78,0.44
0.32,-0.79,0.39
0.36,-0.8,0.34
0.4,-0.82,0.31
0.41,-0.84,0.28
0.44,-0.85,0.25
0.47,-0.85,0.24
0.47,-0.83,0.25
0.46,-0.82,0.25
0.43,-0.81,0.28
0.4,-0.81,0.31
0.4,-0.8,0.32
0.4,-0.79,0.32
0.4,-0.78,0.33
0.37,-0.77,0.34
0.31,-0.8,0.35
0.31,-0.8,0.37
0.31,-0.8,0.37
0.3,-0.8,0.39
0.29,-0.81,0.4
0.26,-0.85,0.41
0.24,-0.87,0.44
0.24,-0.88,0.47
0.23,-0.87,0.5
0.23,-0.87,0.52
0.24,-0.88,0.52
0.24,-0.87,0.51
0.24,-0.88,0.51
0.25,-0.88,0.5
0.26,-0.88,0.49
0.27,-0.88,0.49
0.26,-0.87,0.49
0.25,-0.87,0.48
0.24,-0.86,0.46
0.22,-0.86,0.45
0.2,-0.86,0.43
0.21,-0.86,0.41
0.26,-0.87,0.4
0.3,-0.89,0.39
0.33,-0.92,0.39
0.32,-0.94,0.41
0.25,-0.96,0.38
0.22,-0.96,0.29
0.21,-0.97,0.21
0.2,-0.98,0.17
0.22,-0.97,0.14
0.25,-0.95,0.1
0.28,-0.93,0.08
0.28,-0.89,0.07
0.28,-0.87,0.04
0.32,-0.87,-0.05
0.37,-0.89,-0.12
0.36,-0.92,-0.14
0.33,-0.95,-0.13
0.34,-0.95,-0.11
0.33,-0.94,-0.09
0.29,-0.91,-0.07
0.27,-0.9,-0.1
0.35,-0.91,-0.17
0.4,-0.94,-0.22
0.43,-0.97,-0.23
0.47,-0.99,-0.19
0.49,-0.98,-0.15
0.48,-0.94,-0.12
0.47,-0.9,-0.11
0.5,-0.87,-0.11
0.54,-0.83,-0.09
0.47,-0.75,-0.03
0.43,-0.71,-0.02
0.44,-0.7,-0.03
0.52,-0.72,-0.03
0.62,-0.75,-0.01
0.66,-0.78,0.06
0.61,-0.8,0.16
0.53,-0.79,0.25
0.49,-0.77,0.29
0.5,-0.77,0.3
0.55,-0.79,0.27
0.59,-0.82,0.25
0.61,-0.83,0.26
0.62,-0.85,0.27
0.6,-0.87,0.31
0.58,-0.89,0.36
0.62,-0.89,0.41
0.65,-0.91,0.48
0.68,-0.98,0.5
0.74,-1.09,0.53
0.82,-1.2,0.64
0.82,-1.29,0.77
