Acc_x,Acc_y,Acc_z
0.23,0.37,0.86
0.2,0.36,0.85
0.18,0.36,0.84
0.18,0.36,0.82
0.19,0.36,0.81
0.2,0.37,0.82
0.19,0.37,0.82
0.19,0.38,0.83
0.2,0.38,0.83
0.18,0.39,0.82
0.17,0.4,0.84
0.19,0.39,0.85
0.21,0.39,0.87
0.24,0.38,0.88
0.27,0.37,0.9
0.3,0.38,0.91
0.35,0.37,0.93
0.38,0.36,0.97
0.41,0.34,1
0.43,0.32,1.03
0.46,0.29,1.05
0.48,0.27,1.06
0.49,0.24,1.06
0.49,0.21,1.04
0.49,0.18,1.02
0.48,0.16,1.01
0.48,0.13,1
0.48,0.08,1.01
0.48,0.04,1.01
0.48,0.01,1
0.48,-0.01,0.99
0.46,-0.02,0.97
0.44,-0.04,0.95
0.45,-0.07,0.95
0.5,-0.11,0.98
0.57,-0.15,1.01
0.61,-0.18,1.03
0.64,-0.2,1.02
0.65,-0.21,0.98
0.64,-0.2,0.92
0.62,-0.2,0.86
0.61,-0.19,0.81
0.67,-0.21,0.84
0.71,-0.22,0.86
0.71,-0.22,0.85
0.69,-0.21,0.83
0.65,-0.18,0.79
0.61,-0.15,0.73
0.59,-0.13,0.67
0.59,-0.12,0.62
0.62,-0.12,0.61
0.66,-0.14,0.63
0.68,-0.16,0.65
0.68,-0.16,0.65
0.68,-0.15,0.64
0.67,-0.14,0.61
0.64,-0.13,0.55
0.61,-0.13,0.51
0.61,-0.14,0.49
0.64,-0.16,0.49
0.69,-0.18,0.5
0.73,-0.2,0.53
0.78,-0.22,0.57
0.8,-0.23,0.6
0.78,-0.23,0.6
0.75,-0.23,0.58
0.74,-0.25,0.54
0.75,-0.26,0.51
0.81,-0.27,0.51
0.84,-0.27,0.52
0.85,-0.28,0.54
0.88,-0.28,0.56
0.88,-0.29,0.58
0.87,-0.29,0.58
0.85,-0.29,0.57
0.84,-0.29,0.56
0.83,-0.3,0.57
0.84,-0.31,0.58
0.85,-0.31,0.58
0.85,-0.32,0.58
0.85,-0.3,0.57
0.84,-0.29,0.56
0.83,-0.27,0.55
0.83,-0.26,0.55
0.81,-0.24,0.56
0.8,-0.23,0.55
0.78,-0.23,0.56
0.78,-0.24,0.58
0.79,-0.24,0.59
0.8,-0.23,0.59
0.8,-0.21,0.59
0.81,-0.19,0.58
0.82,-0.17,0.57
0.83,-0.15,0.58
0.85,-0.16,0.6
0.86,-0.17,0.62
0.84,-0.19,0.62
0.82,-0.2,0.61
0.82,-0.2,0.58
0.8,-0.2,0.54
0.79,-0.2,0.51
0.78,-0.2,0.49
0.78,-0.2,0.49
0.76,-0.2,0.49
0.76,-0.22,0.49
0.76,-0.22,0.51
0.76,-0.23,0.52
0.75,-0.23,0.52
0.74,-0.23,0.53
0.72,-0.24,0.53
0.7,-0.24,0.52
0.68,-0.25,0.5
0.69,-0.27,0.49
0.71,-0.32,0.49
0.71,-0.38,0.49
0.71,-0.45,0.48
0.71,-0.48,0.45
0.72,-0.5,0.42
0.72,-0.52,0.41
0.7,-0.54,0.44
0.67,-0.59,0.44
0.63,-0.62,0.43
0.6,-0.67,0.41
0.59,-0.74,0.39
0.6,-0.81,0.37
0.6,-0.9,0.37
0.58,-0.95,0.36
0.6,-0.97,0.34
0.57,-1.03,0.3
0.54,-1.02,0.24
0.55,-0.97,0.18
0.54,-0.99,0.18
0.54,-1.03,0.17
0.56,-1.06,0.17
0.58,-1.03,0.2
0.59,-1.04,0.2
0.59,-1.09,0.21
0.6,-1.06,0.22
0.62,-1.02,0.22
0.63,-1.04,0.21
0.63,-1.03,0.2
0.63,-1,0.19
0.64,-0.99,0.19
0.65,-0.98,0.19
0.65,-0.96,0.18
0.66,-0.94,0.19
0.68,-0.9,0.2
0.69,-0.87,0.21
0.7,-0.85,0.21
0.72,-0.83,0.21
0.73,-0.83,0.18
0.75,-0.84,0.17
0.72,-0.84,0.17
0.67,-0.85,0.18
0.64,-0.87,0.25
0.6,-0.88,0.35
0.59,-0.89,0.4
0.64,-0.88,0.41
0.65,-0.87,0.41
0.63,-0.87,0.38
0.64,-0.86,0.31
0.66,-0.85,0.23
0.67,-0.86,0.16
0.66,-0.88,0.11
0.66,-0.88,0.08
0.65,-0.89,0.05
0.63,-0.89,0.05
0.6,-0.89,0.06
0.58,-0.87,0.06
0.56,-0.87,0.04
0.55,-0.87,0.02
0.53,-0.85,0.03
0.5,-0.82,0.03
0.47,-0.8,0.05
0.44,-0.78,0.07
0.43,-0.76,0.09
0.42,-0.74,0.09
0.42,-0.73,0.09
0.41,-0.72,0.1
0.42,-0.71,0.09
0.43,-0.71,0.09
0.44,-0.71,0.09
0.44,-0.73,0.09
0.43,-0.74,0.1
0.43,-0.76,0.1
0.43,-0.77,0.11
0.42,-0.79,0.12
0.42,-0.81,0.13
0.41,-0.83,0.14
0.4,-0.85,0.15
0.39,-0.86,0.16
0.39,-0.87,0.17
0.39,-0.89,0.17
0.39,-0.9,0.17
0.39,-0.93,0.17
0.4,-0.95,0.17
0.41,-0.98,0.17
0.42,-1.02,0.18
0.42,-1.06,0.19
0.42,-1.07,0.2
0.42,-1.09,0.21
0.43,-1.11,0.22
0.44,-1.15,0.22
0.45,-1.2,0.22
0.46,-1.22,0.24
0.48,-1.21,0.26
0.5,-1.15,0.29
0.52,-1.06,0.31
0.55,-0.99,0.33
0.57,-0.94,0.36
0.56,-0.9,0.42
0.55,-0.87,0.51
0.55,-0.88,0.58
0.52,-0.9,0.65
0.51,-0.9,0.71
0.54,-0.91,0.71
0.57,-0.92,0.71
0.61,-0.93,0.73
0.64,-0.96,0.81
0.62,-1,0.92
0.59,-1.03,0.98
0.59,-1.06,1.02
0.59,-1.09,1.07
0.58,-1.14,1.12
0.54,-1.24,1.15
0.53,-1.26,1.14
0.54,-1.28,1.16
0.53,-1.31,1.17
0.51,-1.35,1.17
0.48,-1.39,1.16
0.46,-1.42,1.15
0.45,-1.43,1.14
0.44,-1.42,1.15
0.42,-1.41,1.17
0.42,-1.4,1.17
0.43,-1.38,1.12
0.44,-1.36,1.07
0.44,-1.33,1.03
0.41,-1.29,0.99
0.39,-1.23,0.94
0.37,-1.17,0.9
0.36,-1.13,0.86
0.34,-1.09,0.83
0.33,-1.05,0.8
0.32,-1.01,0.76
0.3,-0.94,0.74
0.28,-0.89,0.71
0.28,-0.85,0.66
0.26,-0.81,0.62
0.25,-0.75,0.59
0.23,-0.62,0.53
0.22,-0.6,0.47
0.14,-0.57,0.45
0.12,-0.51,0.42
0.16,-0.37,0.38
0.21,-0.27,0.34
0.18,-0.21,0.36
0.12,-0.15,0.42
0.12,-0.13,0.44
0.09,-0.12,0.43
0.08,-0.07,0.44
0.11,-0.04,0.43
0.07,-0.08,0.44
0.04,-0.08,0.48
0.03,-0.03,0.44
-0.01,0.01,0.43
-0.07,-0.01,0.47
-0.08,-0.01,0.51
-0.07,0.08,0.51
-0.08,0.13,0.49
-0.08,0.11,0.44
-0.1,0.16,0.44
-0.14,0.15,0.47
-0.17,0.18,0.43
-0.15,0.24,0.41
-0.14,0.24,0.39
-0.15,0.23,0.37
-0.17,0.27,0.35
-0.17,0.33,0.33
-0.17,0.35,0.32
-0.16,0.37,0.3
-0.16,0.39,0.3
-0.15,0.4,0.3
-0.13,0.4,0.32
-0.14,0.38,0.34
-0.15,0.37,0.34
-0.15,0.34,0.31
-0.14,0.31,0.29
-0.14,0.29,0.27
-0.13,0.27,0.24
-0.11,0.25,0.23
-0.09,0.22,0.22
-0.07,0.19,0.22
-0.06,0.15,0.22
-0.06,0.11,0.22
-0.07,0.07,0.21
-0.06,0.04,0.19
-0.04,0,0.14
-0.02,-0.01,0.1
0,-0.03,0.08
0.01,-0.06,0.1
0.01,-0.11,0.13
0.06,-0.23,0.14
0.12,-0.3,0.11
0.14,-0.37,0.07
0.2,-0.45,0.03
0.3,-0.48,0.01
0.37,-0.59,0.04
0.4,-0.72,0.15
0.48,-0.82,0.31
0.55,-0.93,0.44
0.54,-1.05,0.55
0.52,-1.18,0.55
0.6,-1.28,0.39
0.73,-1.34,0.22
0.86,-1.45,0.17
0.97,-1.53,0.38
1.04,-1.57,0.76
1.05,-1.62,1.08
1,-1.62,1.24
0.94,-1.63,1.22
0.89,-1.67,1.03
0.84,-1.7,0.83
0.76,-1.75,0.75
0.8,-1.82,0.76
0.9,-1.88,0.85
0.91,-1.92,1.07
0.88,-1.94,1.3
0.9,-1.91,1.26
0.89,-1.85,1.18
0.51,-1.52,2
-1.9,-2.31,3.41
-0.37,-2.26,3.59
2.72,-2.15,1.81
2.89,-2.05,-0.14
2.95,-0.88,-0.51
2.06,-1.05,-0.1
1.47,-1.08,0.18
1.12,-0.8,0.22
1.05,-0.73,0.07
0.9,-0.79,-0.15
0.63,-0.76,-0.34
0.41,-0.65,-0.43
0.19,-0.57,-0.42
0.03,-0.6,-0.34
0,-0.68,-0.27
0.03,-0.72,-0.21
0.12,-0.73,-0.19
0.22,-0.77,-0.18
0.28,-0.81,-0.15
0.31,-0.81,-0.11
0.36,-0.81,-0.08
0.38,-0.84,-0.08
0.37,-0.86,-0.1
0.37,-0.9,-0.12
0.36,-0.97,-0.11
0.35,-0.99,-0.1
0.39,-1.02,-0.07
0.41,-1.05,-0.01
0.38,-1.07,0.12
0.3,-1.06,0.34
0.21,-1.04,0.58
0.24,-1.04,0.69
0.34,-1.05,0.64
0.38,-1.06,0.54
0.37,-1.07,0.41
0.34,-1.06,0.29
0.31,-1.02,0.22
0.29,-0.99,0.18
0.32,-0.99,0.16
0.36,-0.99,0.14
0.39,-0.99,0.13
0.43,-0.98,0.12
0.41,-0.98,0.13
0.36,-0.98,0.13
0.35,-0.96,0.12
0.34,-0.95,0.1
0.33,-0.94,0.08
0.33,-0.93,0.06
0.33,-0.92,0.04
0.32,-0.92,0.04
0.29,-0.91,0.05
0.29,-0.91,0.06
0.29,-0.91,0.07
0.29,-0.91,0.07
0.3,-0.92,0.07
0.31,-0.92,0.07
0.32,-0.93,0.07
0.34,-0.92,0.07
0.35,-0.92,0.07
0.36,-0.92,0.08
0.38,-0.92,0.08
0.39,-0.94,0.09
0.4,-0.95,0.11
0.41,-0.96,0.14
0.41,-0.96,0.16
0.41,-0.96,0.17
0.42,-0.96,0.18
0.42,-0.97,0.18
0.42,-0.97,0.18
0.43,-0.97,0.17
0.43,-0.97,0.17
0.43,-0.97,0.17
0.44,-0.97,0.18
0.43,-0.96,0.17
0.42,-0.96,0.17
0.41,-0.95,0.15
0.39,-0.94,0.14
0.38,-0.94,0.12
0.36,-0.94,0.12
0.36,-0.95,0.11
0.35,-0.95,0.11
0.34,-0.94,0.11
0.33,-0.94,0.1
0.33,-0.94,0.1
0.32,-0.93,0.1
0.33,-0.93,0.1
0.33,-0.93,0.1
0.33,-0.93,0.1
0.33,-0.93,0.1
0.33,-0.94,0.1
0.33,-0.95,0.1
0.33,-0.97,0.1
0.33,-0.99,0.1
0.34,-1.01,0.1
0.34,-1.02,0.11
0.33,-1.04,0.11
0.31,-1.04,0.13
0.3,-1.04,0.14
0.29,-1.02,0.16
0.28,-1,0.17
0.28,-0.98,0.19
0.27,-0.96,0.19
0.26,-0.94,0.21
0.26,-0.94,0.21
0.27,-0.94,0.2
0.27,-0.94,0.2
0.28,-0.95,0.2
0.29,-0.96,0.2
0.29,-0.95,0.19
0.3,-0.96,0.18
0.3,-0.96,0.17
0.32,-0.95,0.16
0.35,-0.94,0.15
0.36,-0.93,0.14
0.36,-0.93,0.13
0.37,-0.93,0.13
0.37,-0.94,0.12
0.36,-0.94,0.12
0.35,-0.95,0.12
0.35,-0.95,0.11
0.34,-0.95,0.12
0.33,-0.94,0.13
0.33,-0.94,0.13
0.33,-0.94,0.12
0.32,-0.94,0.12
0.32,-0.93,0.12
0.31,-0.93,0.13
0.31,-0.93,0.12
0.31,-0.94,0.12
0.31,-0.93,0.13
0.31,-0.93,0.13
0.32,-0.93,0.13
0.32,-0.92,0.13
0.33,-0.91,0.13
0.33,-0.91,0.13
0.33,-0.91,0.13
0.33,-0.91,0.13
0.33,-0.93,0.13
0.32,-0.95,0.13
0.33,-0.99,0.13
0.33,-1.03,0.12
0.33,-1.07,0.13
0.32,-1.1,0.14
0.31,-1.12,0.15
0.3,-1.11,0.16
0.28,-1.09,0.17
0.28,-1.05,0.16
0.29,-1.02,0.18
0.31,-0.98,0.2
0.31,-0.94,0.21
0.31,-0.92,0.21
0.32,-0.92,0.22
0.32,-0.92,0.22
0.31,-0.92,0.21
0.3,-0.93,0.2
0.3,-0.93,0.19
0.31,-0.93,0.17
0.32,-0.93,0.15
0.34,-0.92,0.13
0.37,-0.92,0.1
0.42,-0.92,0.08
0.44,-0.91,0.07
0.44,-0.89,0.08
0.47,-0.88,0.11
0.48,-0.89,0.17
0.49,-0.9,0.23
0.5,-0.9,0.29
0.51,-0.9,0.33
0.51,-0.9,0.37
0.51,-0.89,0.41
0.54,-0.88,0.42
0.59,-0.88,0.43
0.61,-0.93,0.5
0.63,-0.97,0.61
0.7,-0.94,0.67
0.75,-0.91,0.67
0.75,-0.93,0.72
0.72,-0.96,0.84
0.72,-0.99,0.96
0.74,-1.11,1.13
0.75,-1.2,1.15
0.76,-1.28,1.16
0.75,-1.32,1.19
0.72,-1.34,1.23
0.7,-1.37,1.27
0.67,-1.39,1.29
0.65,-1.39,1.28
0.65,-1.38,1.25
0.65,-1.37,1.23
0.64,-1.38,1.21
0.64,-1.4,1.18
0.64,-1.41,1.15
0.64,-1.42,1.13
0.62,-1.42,1.1
0.61,-1.43,1.08
0.59,-1.43,1.05
0.58,-1.41,1
0.56,-1.38,0.95
0.54,-1.35,0.91
0.53,-1.31,0.89
0.51,-1.27,0.87
0.49,-1.23,0.83
0.48,-1.17,0.81
0.48,-1.1,0.79
0.46,-1.08,0.75
0.43,-1.04,0.68
0.41,-0.91,0.64
0.39,-0.86,0.58
0.39,-0.8,0.54
0.38,-0.75,0.54
0.32,-0.73,0.46
0.31,-0.6,0.41
0.31,-0.5,0.41
0.27,-0.51,0.42
0.26,-0.47,0.45
0.25,-0.33,0.43
0.26,-0.31,0.35
0.24,-0.39,0.27
0.19,-0.17,0.3
0.16,-0.03,0.31
0.16,-0.13,0.31
0.15,-0.12,0.33
0.13,0,0.32
0.11,0.05,0.31
0.07,0.11,0.31
0.06,0.14,0.28
0.03,0.13,0.23
0.05,0.22,0.22
0.03,0.28,0.27
0.01,0.24,0.3
-0.01,0.26,0.3
-0.03,0.32,0.34
0,0.42,0.36
-0.01,0.41,0.37
-0.02,0.39,0.38
-0.02,0.4,0.39
-0.03,0.43,0.41
-0.03,0.46,0.44
-0.01,0.5,0.45
0.03,0.54,0.45
-0.02,0.51,0.48
0,0.47,0.51
0.04,0.47,0.55
-0.01,0.48,0.58
0.01,0.49,0.6
0,0.48,0.63
-0.01,0.49,0.66
-0.01,0.5,0.67
-0.01,0.48,0.69
-0.01,0.47,0.71
-0.01,0.46,0.74
0,0.46,0.75
0.01,0.46,0.76
0.01,0.45,0.76
0,0.45,0.75
0,0.45,0.75
0,0.44,0.74
0,0.44,0.74
0.01,0.43,0.72
0.01,0.42,0.7
0.01,0.41,0.67
0.01,0.39,0.63
0.01,0.37,0.59
0,0.35,0.55
0,0.33,0.53
0,0.31,0.5
0.01,0.3,0.45
0.02,0.28,0.4
0.04,0.26,0.36
0.06,0.24,0.34
0.08,0.21,0.32
0.08,0.18,0.31
0.08,0.14,0.31
0.08,0.1,0.29
0.07,0.06,0.27
0.06,0.02,0.26
0.06,-0.02,0.22
0.09,-0.04,0.16
0.12,-0.04,0.12
0.15,-0.06,0.12
0.17,-0.12,0.13
0.19,-0.19,0.16
0.22,-0.25,0.2
0.22,-0.32,0.23
0.23,-0.46,0.2
0.26,-0.5,0.17
0.28,-0.55,0.15
0.32,-0.62,0.14
0.37,-0.77,0.2
0.45,-0.9,0.31
0.55,-0.95,0.42
0.58,-1.05,0.45
0.56,-1.13,0.46
0.53,-1.26,0.42
0.57,-1.32,0.32
0.71,-1.32,0.2
0.82,-1.38,0.18
0.86,-1.47,0.38
0.91,-1.59,0.65
0.94,-1.7,0.82
0.97,-1.74,0.83
0.97,-1.74,0.78
0.97,-1.82,0.73
0.96,-1.88,0.62
0.97,-1.91,0.58
1.02,-1.89,0.77
1.06,-1.84,1.05
1.08,-1.8,1.21
1.03,-1.74,1.26
0.91,-1.69,1.24
0.8,-1.78,1.18
0.76,-1.66,1.87
-1.5,-1.87,3.26
0.13,-0.96,3.99
3.05,-1.28,2.01
3.03,-2.12,-0.08
3.51,-1.12,-0.26
2.34,-0.9,-0.2
1.42,-0.89,0.17
0.7,-0.72,0.48
0.41,-0.6,0.42
0.87,-0.72,0.14
0.89,-0.79,-0.1
0.66,-0.76,-0.24
0.43,-0.75,-0.3
0.2,-0.76,-0.23
0.15,-0.8,-0.14
0.21,-0.83,-0.09
0.26,-0.84,-0.06
0.32,-0.86,-0.06
0.37,-0.88,-0.08
0.4,-0.89,-0.05
0.39,-0.9,-0.01
0.37,-0.88,0.01
0.38,-0.87,0
0.38,-0.88,-0.03
0.38,-0.9,-0.08
0.33,-0.91,-0.08
0.32,-0.91,-0.08
0.32,-0.92,-0.08
0.34,-0.92,-0.07
0.35,-0.93,-0.06
0.36,-0.93,-0.04
0.36,-0.93,-0.02
0.36,-0.94,-0.01
0.36,-0.94,-0.01
0.36,-0.93,0
0.36,-0.94,0.01
0.36,-0.94,0.02
0.36,-0.95,0.04
0.36,-0.95,0.05
0.37,-0.96,0.08
0.37,-0.97,0.1
0.38,-0.96,0.13
0.4,-0.98,0.13
0.4,-1,0.13
0.4,-0.96,0.34
0.27,-0.83,0.79
0.31,-0.88,1.13
0.49,-1.02,1.16
0.36,-1.07,0.91
0.18,-1.1,0.59
0.16,-0.95,0.33
0.32,-0.96,0.27
0.4,-0.98,0.25
0.44,-0.95,0.25
0.43,-0.93,0.25
0.38,-0.94,0.23
0.35,-0.94,0.18
0.34,-0.94,0.14
0.32,-0.94,0.09
0.32,-0.93,0.07
0.32,-0.93,0.05
0.31,-0.93,0.04
0.3,-0.94,0.05
0.3,-0.93,0.06
0.31,-0.93,0.06
0.31,-0.93,0.07
0.3,-0.93,0.08
0.3,-0.92,0.09
0.31,-0.93,0.09
0.31,-0.93,0.09
0.31,-0.94,0.1
0.32,-0.94,0.1
0.32,-0.94,0.1
0.33,-0.94,0.09
0.33,-0.94,0.09
0.34,-0.95,0.09
0.34,-0.95,0.1
0.34,-0.95,0.1
0.34,-0.95,0.11
0.35,-0.95,0.11
0.35,-0.94,0.1
0.35,-0.95,0.1
0.35,-0.95,0.12
0.37,-0.95,0.15
0.38,-0.96,0.18
0.35,-0.95,0.25
0.31,-0.96,0.32
0.32,-0.96,0.33
0.37,-0.97,0.31
0.42,-0.96,0.29
0.43,-0.96,0.27
0.42,-0.95,0.25
0.4,-0.95,0.23
0.39,-0.94,0.22
0.36,-0.94,0.21
0.34,-0.94,0.21
0.34,-0.95,0.21
0.34,-0.95,0.21
0.35,-0.96,0.2
0.35,-0.96,0.19
0.34,-0.97,0.18
0.34,-0.98,0.17
0.33,-1,0.16
0.32,-1.03,0.15
0.31,-1.04,0.15
0.3,-1.04,0.16
0.29,-1.04,0.16
0.28,-1.02,0.16
0.28,-1,0.17
0.28,-0.98,0.16
0.27,-0.96,0.15
0.27,-0.94,0.15
0.28,-0.92,0.14
0.28,-0.92,0.13
0.29,-0.92,0.12
0.29,-0.92,0.13
0.27,-0.93,0.14
0.26,-0.94,0.15
0.26,-0.95,0.16
0.26,-0.95,0.17
0.25,-0.95,0.18
0.26,-0.94,0.19
0.27,-0.94,0.19
0.28,-0.93,0.19
0.3,-0.93,0.19
0.31,-0.94,0.19
0.32,-0.94,0.19
0.34,-0.94,0.2
0.34,-0.94,0.21
0.34,-0.92,0.21
0.33,-0.92,0.2
0.32,-0.92,0.19
0.32,-0.93,0.18
0.32,-0.92,0.17
0.31,-0.92,0.17
0.31,-0.92,0.16
0.34,-0.91,0.15
0.35,-0.91,0.15
0.34,-0.91,0.15
0.33,-0.92,0.15
0.32,-0.93,0.15
0.32,-0.94,0.15
0.32,-0.96,0.15
0.32,-0.98,0.15
0.33,-1.01,0.15
0.32,-1.04,0.16
0.32,-1.07,0.17
0.31,-1.08,0.17
0.3,-1.08,0.17
0.29,-1.06,0.17
0.29,-1.03,0.17
0.28,-1.01,0.16
0.27,-0.98,0.15
0.27,-0.96,0.14
0.29,-0.94,0.17
0.33,-0.92,0.19
0.31,-0.91,0.21
0.29,-0.92,0.21
0.3,-0.92,0.21
0.3,-0.93,0.21
0.3,-0.93,0.21
0.3,-0.94,0.2
0.3,-0.95,0.19
0.31,-0.95,0.18
0.33,-0.95,0.17
0.34,-0.95,0.15
0.34,-0.95,0.15
0.35,-0.94,0.15
0.36,-0.93,0.14
0.35,-0.91,0.15
0.35,-0.9,0.14
0.34,-0.9,0.14
0.34,-0.91,0.14
0.34,-0.91,0.14
0.33,-0.91,0.15
0.33,-0.92,0.15
0.32,-0.92,0.15
0.32,-0.92,0.15
0.32,-0.93,0.15
0.32,-0.94,0.15
0.32,-0.96,0.15
0.32,-1,0.15
0.32,-1.03,0.15
0.32,-1.05,0.16
0.32,-1.07,0.17
0.31,-1.08,0.17
0.3,-1.08,0.18
0.29,-1.06,0.18
0.28,-1.04,0.18
0.27,-1.01,0.17
0.27,-0.99,0.17
0.3,-0.96,0.17
0.32,-0.94,0.18
0.31,-0.92,0.2
0.28,-0.92,0.2
0.29,-0.93,0.2
0.29,-0.93,0.2
0.28,-0.93,0.2
0.28,-0.94,0.2
0.29,-0.94,0.19
0.3,-0.94,0.18
0.3,-0.94,0.17
0.31,-0.94,0.16
0.31,-0.94,0.15
0.32,-0.93,0.14
0.33,-0.92,0.13
0.33,-0.91,0.13
0.33,-0.91,0.13
0.33,-0.91,0.13
0.33,-0.91,0.14
0.33,-0.92,0.14
0.33,-0.92,0.15
0.33,-0.93,0.15
0.33,-0.93,0.16
0.32,-0.93,0.16
0.33,-0.94,0.16
0.33,-0.94,0.16
0.33,-0.95,0.16
0.33,-0.95,0.16
0.33,-0.96,0.17
0.33,-0.97,0.17
0.33,-0.99,0.17
0.33,-1.01,0.17
0.32,-1.03,0.17
0.31,-1.05,0.18
0.31,-1.05,0.18
0.3,-1.05,0.18
0.29,-1.04,0.18
0.28,-1.02,0.18
0.28,-1,0.18
0.28,-0.97,0.17
0.28,-0.96,0.16
0.29,-0.94,0.16
0.31,-0.93,0.17
0.3,-0.93,0.18
0.29,-0.93,0.18
0.28,-0.94,0.18
0.29,-0.93,0.18
0.3,-0.93,0.19
0.31,-0.93,0.18
0.32,-0.92,0.17
0.33,-0.92,0.17
0.34,-0.92,0.17
0.34,-0.92,0.16
0.36,-0.93,0.16
0.37,-0.93,0.17
0.36,-0.93,0.18
0.37,-0.94,0.17
0.37,-0.93,0.17
0.37,-0.93,0.16
0.38,-0.93,0.16
0.37,-0.93,0.16
0.35,-0.93,0.16
0.34,-0.93,0.16
0.34,-0.93,0.16
0.34,-0.93,0.16
0.34,-0.93,0.16
0.35,-0.93,0.15
0.36,-0.93,0.15
0.37,-0.94,0.15
0.39,-0.94,0.15
0.41,-0.95,0.16
0.45,-0.95,0.17
0.5,-0.97,0.18
0.55,-1,0.22
0.57,-1.03,0.29
0.54,-1.05,0.4
0.51,-1.04,0.54
0.48,-1,0.61
0.5,-0.96,0.58
0.52,-0.95,0.53
0.55,-0.96,0.56
0.59,-1,0.63
0.67,-1.01,0.71
0.68,-0.99,0.77
0.63,-1,0.78
0.59,-1,0.77
0.59,-1,0.79
0.63,-1.03,0.81
0.7,-1.05,0.86
0.76,-1.07,0.95
0.79,-1.07,1.05
0.78,-1.09,1.08
0.76,-1.11,1.06
0.75,-1.14,1.02
0.76,-1.17,0.94
0.76,-1.22,0.96
0.74,-1.23,0.99
0.72,-1.23,1.01
0.7,-1.22,1.02
0.67,-1.21,1.03
0.66,-1.22,1.02
0.64,-1.22,0.99
0.62,-1.22,0.96
0.59,-1.23,0.93
0.56,-1.21,0.9
0.54,-1.18,0.87
0.53,-1.16,0.85
0.54,-1.13,0.85
0.56,-1.09,0.86
0.55,-1.07,0.84
0.53,-1.03,0.81
0.52,-0.99,0.77
0.49,-0.99,0.71
0.47,-0.96,0.67
0.44,-0.91,0.66
0.4,-0.89,0.67
0.37,-0.87,0.67
0.35,-0.8,0.64
0.36,-0.7,0.63
0.38,-0.58,0.64
0.36,-0.54,0.57
0.34,-0.49,0.53
0.27,-0.47,0.5
0.24,-0.45,0.48
0.27,-0.37,0.47
0.27,-0.3,0.46
0.24,-0.26,0.45
0.23,-0.22,0.44
0.22,-0.21,0.39
0.22,-0.09,0.39
0.21,0.03,0.4
0.15,0,0.41
0.11,-0.02,0.4
0.07,-0.03,0.38
0.09,0.06,0.36
0.11,0.12,0.34
0.06,0.11,0.37
0.04,0.16,0.39
0.05,0.21,0.39
0.07,0.24,0.42
0.06,0.26,0.44
0.05,0.28,0.47
0.07,0.33,0.49
0.06,0.32,0.5
0.04,0.29,0.52
0.02,0.31,0.53
0.02,0.33,0.58
0.05,0.41,0.62
0.05,0.37,0.63
0.04,0.34,0.64
0.03,0.35,0.65
0.02,0.34,0.66
0.01,0.32,0.65
0,0.32,0.64
-0.01,0.32,0.63
0,0.31,0.61
0,0.31,0.6
0,0.31,0.58
0.02,0.31,0.57
0.03,0.3,0.56
0.05,0.3,0.55
0.06,0.3,0.55
0.06,0.29,0.55
0.06,0.29,0.55
0.06,0.29,0.54
0.06,0.28,0.52
0.08,0.28,0.49
0.07,0.25,0.46
0.07,0.21,0.43
0.06,0.18,0.41
0.05,0.17,0.41
0.07,0.16,0.41
0.09,0.13,0.37
0.12,0.06,0.34
0.13,0.02,0.3
0.13,-0.02,0.26
0.14,-0.05,0.24
0.15,-0.08,0.2
0.17,-0.11,0.15
0.2,-0.12,0.14
0.25,-0.15,0.15
0.31,-0.19,0.2
0.34,-0.25,0.25
0.34,-0.33,0.28
0.34,-0.4,0.28
0.35,-0.46,0.22
0.35,-0.54,0.15
0.37,-0.59,0.09
0.41,-0.61,0.09
0.47,-0.65,0.17
0.52,-0.71,0.34
0.57,-0.8,0.53
0.58,-0.93,0.64
0.54,-1.07,0.64
0.52,-1.15,0.56
0.55,-1.23,0.43
0.58,-1.34,0.3
0.63,-1.46,0.19
0.71,-1.62,0.18
1.01,-1.87,0.71
1.11,-1.84,0.96
1.03,-1.79,1.08
0.94,-1.76,1.07
0.9,-1.78,0.94
0.86,-1.8,0.84
0.79,-1.79,0.84
0.74,-1.75,0.89
0.74,-1.69,0.96
0.78,-1.66,1.05
0.79,-1.63,1.1
0.67,-1.65,1.11
0.58,-1.42,1.47
-1.68,-1.82,2.91
-0.45,-1.19,3.53
2.68,-1.37,1.23
3.01,-2.23,-0.5
3.48,-1.2,-0.45
2.58,-0.92,-0.31
1.62,-1,0.09
0.77,-0.73,0.43
0.21,-0.49,0.54
0.62,-0.6,0.35
0.97,-0.76,0.08
0.8,-0.77,-0.12
0.58,-0.71,-0.25
0.39,-0.79,-0.19
0.25,-0.85,-0.12
0.28,-0.88,-0.07
0.35,-0.91,-0.08
0.4,-0.94,-0.09
0.41,-0.96,-0.06
0.38,-0.97,-0.03
0.35,-0.98,0
0.35,-0.97,0.01
0.35,-0.96,0.02
0.33,-0.94,0.02
0.32,-0.94,0.02
0.31,-0.93,0.02
0.3,-0.93,0.02
0.31,-0.93,0.02
0.31,-0.94,0.02
0.32,-0.94,0.01
0.34,-0.94,0.01
0.35,-0.95,0.01
0.36,-0.95,0.03
0.37,-0.94,0.04
0.38,-0.93,0.05
0.37,-0.94,0.06
0.37,-0.94,0.06
0.37,-0.94,0.07
0.38,-0.94,0.08
0.39,-0.98,0.08
0.41,-0.98,0.12
0.45,-0.96,0.2
0.42,-0.91,0.45
0.21,-0.84,0.82
0.15,-0.9,0.96
0.29,-1.02,0.89
0.25,-1.03,0.73
0.17,-1.01,0.55
0.17,-0.98,0.41
0.2,-0.94,0.31
0.24,-0.94,0.25
0.28,-0.95,0.22
0.35,-0.95,0.21
0.43,-0.93,0.22
0.43,-0.93,0.22
0.38,-0.93,0.19
0.34,-0.93,0.17
0.31,-0.91,0.15
0.31,-0.91,0.12
0.32,-0.91,0.09
0.32,-0.91,0.08
0.32,-0.9,0.09
0.31,-0.9,0.09
0.31,-0.92,0.09
0.31,-0.92,0.1
0.32,-0.95,0.12
0.32,-0.97,0.13
0.33,-1,0.13
0.32,-1.01,0.14
0.33,-1.03,0.14
0.33,-1.03,0.14
0.34,-1.02,0.13
0.34,-1.01,0.12
0.33,-0.99,0.12
0.33,-0.97,0.11
0.32,-0.95,0.11
0.31,-0.94,0.12
0.31,-0.93,0.12
0.32,-0.93,0.12
0.31,-0.93,0.11
0.31,-0.94,0.11
0.31,-0.94,0.11
0.31,-0.95,0.11
0.31,-0.95,0.12
0.31,-0.95,0.12
0.31,-0.97,0.11
0.31,-0.96,0.12
0.33,-0.95,0.15
0.35,-0.95,0.16
0.35,-0.95,0.18
0.33,-0.93,0.21
0.32,-0.93,0.25
0.35,-0.93,0.27
0.34,-0.94,0.29
0.35,-0.94,0.29
0.35,-0.93,0.29
0.35,-0.93,0.29
0.35,-0.93,0.28
0.35,-0.93,0.27
0.34,-0.93,0.25
0.33,-0.93,0.24
0.32,-0.94,0.23
0.32,-0.95,0.22
0.34,-0.96,0.21
0.36,-0.96,0.19
0.35,-0.97,0.19
0.34,-0.98,0.19
0.33,-0.99,0.18
0.32,-1,0.18
0.31,-1.01,0.17
0.31,-1.02,0.17
0.3,-1.03,0.17
0.29,-1.03,0.17
0.29,-1.02,0.17
0.28,-1.01,0.17
0.28,-1,0.17
0.29,-0.98,0.16
0.29,-0.97,0.15
0.29,-0.95,0.15
0.29,-0.94,0.14
0.28,-0.94,0.14
0.28,-0.94,0.15
0.27,-0.94,0.15
0.27,-0.94,0.15
0.27,-0.94,0.15
0.27,-0.94,0.16
0.26,-0.94,0.17
0.26,-0.93,0.17
0.27,-0.93,0.17
0.28,-0.93,0.17
0.29,-0.93,0.17
0.29,-0.93,0.18
0.29,-0.93,0.18
0.29,-0.93,0.18
0.28,-0.94,0.19
0.28,-0.94,0.19
0.29,-0.94,0.19
0.29,-0.94,0.19
0.28,-0.94,0.2
0.29,-0.95,0.2
0.29,-0.95,0.2
0.3,-0.95,0.2
0.32,-0.96,0.2
0.32,-0.96,0.2
0.31,-0.97,0.2
0.31,-0.97,0.19
0.31,-0.98,0.19
0.31,-0.98,0.19
0.31,-0.98,0.19
0.3,-0.99,0.19
0.3,-0.99,0.19
0.29,-0.99,0.18
0.29,-1,0.18
0.3,-0.99,0.18
0.29,-0.99,0.18
0.3,-0.98,0.18
0.3,-0.97,0.18
0.3,-0.96,0.19
0.29,-0.95,0.19
0.3,-0.95,0.19
0.3,-0.94,0.19
0.3,-0.94,0.19
0.31,-0.94,0.19
0.31,-0.94,0.19
0.31,-0.94,0.19
0.32,-0.95,0.2
0.33,-0.94,0.2
0.33,-0.94,0.2
0.33,-0.94,0.19
0.33,-0.95,0.19
0.33,-0.94,0.18
0.33,-0.94,0.18
0.32,-0.93,0.18
0.32,-0.94,0.18
0.32,-0.94,0.18
0.33,-0.95,0.18
0.33,-0.95,0.17
0.31,-0.94,0.17
0.3,-0.94,0.17
0.3,-0.95,0.17
0.29,-0.95,0.17
0.29,-0.95,0.17
0.29,-0.95,0.17
0.29,-0.95,0.17
0.29,-0.95,0.17
0.29,-0.94,0.16
0.3,-0.94,0.16
0.3,-0.94,0.16
0.31,-0.94,0.16
0.31,-0.93,0.16
0.32,-0.94,0.16
0.33,-0.94,0.15
0.35,-0.95,0.15
0.37,-0.95,0.16
0.4,-0.95,0.18
0.43,-0.96,0.22
0.46,-0.93,0.37
0.55,-0.95,0.44
0.57,-0.97,0.5
0.6,-0.97,0.56
0.63,-0.98,0.59
0.65,-0.99,0.63
0.68,-0.99,0.73
0.71,-0.99,0.83
0.72,-1.02,0.86
0.75,-1.02,0.88
0.76,-1.01,0.91
0.76,-1.01,0.98
0.76,-1.02,1.07
0.75,-1.07,1.13
0.75,-1.13,1.15
0.77,-1.15,1.13
0.79,-1.18,1.13
0.81,-1.22,1.14
0.83,-1.27,1.12
0.83,-1.32,1.12
0.81,-1.33,1.14
0.81,-1.34,1.13
0.79,-1.36,1.12
0.76,-1.37,1.11
0.74,-1.39,1.09
0.73,-1.41,1.05
0.71,-1.43,0.98
0.67,-1.41,0.93
0.66,-1.39,0.9
0.62,-1.35,0.9
0.58,-1.32,0.89
0.54,-1.31,0.87
0.52,-1.28,0.84
0.49,-1.26,0.79
0.47,-1.21,0.75
0.44,-1.14,0.72
0.41,-1.09,0.7
0.4,-1.04,0.7
0.39,-0.9,0.69
0.36,-0.86,0.64
0.34,-0.91,0.6
0.31,-0.83,0.59
0.31,-0.69,0.57
0.34,-0.63,0.52
0.32,-0.61,0.49
0.31,-0.55,0.48
0.24,-0.5,0.46
0.18,-0.43,0.46
0.17,-0.39,0.46
0.14,-0.39,0.46
0.13,-0.33,0.45
0.16,-0.15,0.45
0.16,-0.19,0.41
0.12,-0.12,0.36
0.13,-0.06,0.33
0.14,0.04,0.32
0.12,0.01,0.34
0.13,0.07,0.35
0.14,0.12,0.37
0.08,0.08,0.39
0.05,0.14,0.38
0.03,0.19,0.42
0.01,0.25,0.41
0.01,0.27,0.39
0.01,0.27,0.42
0.01,0.31,0.44
0.03,0.3,0.44
0.02,0.29,0.47
0,0.3,0.47
-0.01,0.32,0.47
-0.01,0.39,0.5
-0.01,0.44,0.53
-0.03,0.45,0.55
-0.02,0.42,0.55
-0.02,0.43,0.55
-0.02,0.47,0.58
-0.01,0.45,0.59
0,0.44,0.6
0,0.45,0.64
0,0.48,0.64
0,0.44,0.65
0,0.45,0.67
0.02,0.48,0.68
0.02,0.47,0.7
0.01,0.47,0.73
0.02,0.47,0.75
0.02,0.48,0.77
0.03,0.47,0.78
0.03,0.47,0.8
0.03,0.47,0.81
0.03,0.47,0.83
0.02,0.47,0.85
0.02,0.47,0.85
0.02,0.47,0.86
0.03,0.47,0.88
0.03,0.47,0.89
0.02,0.47,0.91
0.03,0.48,0.92
0.03,0.47,0.93
0.03,0.47,0.93
0.03,0.46,0.93
0.03,0.45,0.93
0.04,0.46,0.93
0.04,0.45,0.93
0.04,0.45,0.95
0.03,0.45,0.95
0.03,0.45,0.95
0.04,0.45,0.95
0.04,0.44,0.95
0.04,0.44,0.94
0.04,0.44,0.94
0.04,0.44,0.93
0.04,0.44,0.92
0.04,0.44,0.93
0.05,0.44,0.92
0.05,0.44,0.92
0.05,0.44,0.92
0.04,0.44,0.92
0.04,0.44,0.91
0.04,0.44,0.91
0.05,0.44,0.91
0.05,0.44,0.91
0.05,0.43,0.9
0.05,0.43,0.89
0.05,0.43,0.88
0.04,0.44,0.88
0.05,0.46,0.9
0.06,0.43,0.89
0.05,0.43,0.87
0.05,0.45,0.87
0.04,0.44,0.86
0.04,0.44,0.86
0.04,0.44,0.87
0.03,0.44,0.87
0.03,0.44,0.86
0.03,0.43,0.84
0.03,0.43,0.83
0.02,0.43,0.83
0.02,0.43,0.82
0.02,0.43,0.81
0.02,0.43,0.8
0.02,0.43,0.79
0.02,0.43,0.78
0.02,0.42,0.77
0.01,0.43,0.76
0.01,0.43,0.75
0.01,0.42,0.74
0.01,0.42,0.73
0.01,0.41,0.72
0.01,0.4,0.72
0,0.39,0.73
-0.01,0.39,0.75
-0.01,0.41,0.77
0.01,0.42,0.79
0.03,0.44,0.82
0.04,0.45,0.87
0.06,0.46,0.92
0.08,0.44,0.93
0.07,0.43,0.94
0.06,0.42,0.96
0.07,0.41,0.99
0.07,0.41,1.03
0.07,0.41,1.07
0.08,0.41,1.09
0.1,0.4,1.09
0.11,0.39,1.08
0.12,0.38,1.08
0.11,0.37,1.09
0.11,0.37,1.1
0.12,0.37,1.11
0.12,0.36,1.1
0.11,0.35,1.09
0.1,0.35,1.09
0.09,0.34,1.07
0.09,0.34,1.06
0.09,0.35,1.04
0.09,0.35,1.01
0.1,0.35,0.99
0.1,0.34,0.97
0.09,0.34,0.95
0.08,0.34,0.93
0.08,0.34,0.91
0.08,0.34,0.89
0.07,0.33,0.84
0.07,0.33,0.81
0.07,0.33,0.78
0.06,0.33,0.76
0.06,0.33,0.74
0.06,0.32,0.73
0.06,0.32,0.71
0.06,0.31,0.7
0.05,0.32,0.7
0.05,0.33,0.7
0.05,0.33,0.7
0.06,0.32,0.68
0.05,0.31,0.68
0.04,0.3,0.66
0.04,0.28,0.63
0.04,0.27,0.61
0.04,0.25,0.58
0.05,0.24,0.55
0.06,0.23,0.53
0.07,0.22,0.52
0.08,0.2,0.51
0.09,0.17,0.48
0.09,0.13,0.46
0.09,0.1,0.43
0.08,0.08,0.41
0.07,0.06,0.42
0.07,0.02,0.41
0.11,-0.01,0.36
0.12,-0.06,0.34
0.13,-0.1,0.3
0.15,-0.13,0.24
0.19,-0.14,0.23
0.25,-0.15,0.26
0.31,-0.17,0.31
0.34,-0.22,0.37
0.33,-0.28,0.43
0.31,-0.33,0.47
0.3,-0.38,0.44
0.28,-0.45,0.38
0.29,-0.47,0.34
0.34,-0.51,0.32
0.4,-0.62,0.28
0.52,-0.64,0.32
0.59,-0.67,0.46
0.59,-0.75,0.58
0.61,-0.82,0.62
0.6,-0.89,0.63
0.55,-1.01,0.6
0.54,-1.1,0.48
0.56,-1.19,0.34
0.63,-1.26,0.27
0.75,-1.26,0.35
0.88,-1.31,0.72
0.81,-1.41,0.91
0.73,-1.44,0.96
0.7,-1.43,0.88
0.69,-1.45,0.77
0.66,-1.52,0.67
0.62,-1.6,0.61
0.65,-1.68,0.59
0.7,-1.74,0.58
0.79,-1.76,0.59
0.9,-1.72,0.63
0.99,-1.68,0.73
1.07,-1.68,0.82
1.12,-1.61,0.88
1.11,-1.62,1.23
-1.08,-0.87,2.76
0.35,-0.81,3.99
2.81,-2.52,1.92
2.42,-2.31,0.1
3.06,-0.95,0.02
2.24,-0.9,-0.16
1.32,-1.11,0.08
0.85,-1.02,0.31
0.36,-0.73,0.44
0.35,-0.59,0.38
0.67,-0.68,0.2
0.73,-0.74,-0.16
0.47,-0.75,-0.22
0.39,-0.78,-0.19
0.28,-0.78,-0.1
0.25,-0.79,-0.01
0.3,-0.82,0.03
0.35,-0.85,0.01
0.37,-0.86,-0.01
0.35,-0.88,-0.02
0.32,-0.9,-0.01
0.31,-0.9,0.01
0.31,-0.91,0.03
0.32,-0.9,0.04
0.32,-0.9,0.03
0.32,-0.9,0.03
0.32,-0.9,0.02
0.31,-0.9,0.02
0.31,-0.9,0.02
0.3,-0.91,0.03
0.31,-0.92,0.03
0.32,-0.93,0.03
0.33,-0.94,0.03
0.33,-0.94,0.04
0.34,-0.94,0.04
0.35,-0.94,0.04
0.35,-0.95,0.03
0.35,-0.95,0.04
0.36,-0.96,0.05
0.36,-0.96,0.06
0.36,-0.96,0.07
0.36,-0.95,0.08
0.35,-0.96,0.09
0.35,-0.96,0.11
0.35,-0.96,0.13
0.34,-0.95,0.15
0.34,-0.95,0.16
0.35,-0.97,0.15
0.36,-1,0.15
0.35,-1,0.38
0.27,-0.87,0.84
0.17,-0.82,1.15
0.29,-0.91,1.08
0.36,-0.97,0.86
0.25,-0.99,0.65
0.29,-0.98,0.41
0.36,-0.95,0.24
0.41,-0.95,0.16
0.45,-0.97,0.15
0.5,-0.98,0.18
0.52,-0.96,0.22
0.47,-0.95,0.23
0.43,-0.97,0.2
0.4,-0.99,0.15
0.33,-0.99,0.13
0.32,-0.99,0.12
0.31,-0.97,0.12
0.29,-0.96,0.12
0.26,-0.96,0.13
0.24,-0.95,0.15
0.24,-0.95,0.15
0.24,-0.94,0.16
0.24,-0.94,0.16
0.25,-0.94,0.16
0.26,-0.95,0.15
0.28,-0.95,0.14
0.29,-0.95,0.12
0.29,-0.95,0.11
0.3,-0.95,0.1
0.31,-0.95,0.09
0.32,-0.94,0.08
0.33,-0.94,0.09
0.33,-0.94,0.09
0.33,-0.94,0.1
0.34,-0.94,0.1
0.34,-0.94,0.1
0.34,-0.94,0.11
0.35,-0.94,0.11
0.35,-0.94,0.12
0.35,-0.94,0.13
0.35,-0.93,0.13
0.35,-0.93,0.14
0.34,-0.93,0.14
0.34,-0.92,0.15
0.34,-0.93,0.18
0.33,-0.93,0.2
0.33,-0.94,0.22
0.32,-0.95,0.23
0.31,-0.97,0.26
0.3,-1,0.27
0.3,-1.03,0.28
0.3,-1.06,0.29
0.3,-1.08,0.31
0.29,-1.07,0.31
0.29,-1.05,0.3
0.3,-1.03,0.29
0.31,-1,0.26
0.31,-0.98,0.25
0.32,-0.96,0.24
0.31,-0.95,0.24
0.3,-0.94,0.23
0.3,-0.95,0.22
0.29,-0.95,0.21
0.28,-0.95,0.19
0.27,-0.95,0.18
0.26,-0.95,0.16
0.26,-0.96,0.15
0.26,-0.96,0.14
0.27,-0.96,0.13
0.28,-0.95,0.12
0.29,-0.95,0.12
0.3,-0.95,0.11
0.31,-0.94,0.11
0.31,-0.93,0.11
0.31,-0.92,0.12
0.31,-0.91,0.12
0.31,-0.91,0.13
0.31,-0.91,0.13
0.31,-0.92,0.14
0.31,-0.92,0.14
0.31,-0.93,0.15
0.31,-0.94,0.15
0.31,-0.96,0.16
0.31,-0.97,0.16
0.31,-0.99,0.16
0.31,-1.01,0.17
0.31,-1.02,0.17
0.3,-1.03,0.18
0.3,-1.03,0.18
0.29,-1.02,0.18
0.28,-1.01,0.19
0.27,-1,0.19
0.26,-0.98,0.18
0.28,-0.98,0.19
0.29,-0.96,0.21
0.27,-0.95,0.23
0.25,-0.95,0.23
0.25,-0.94,0.24
0.25,-0.94,0.24
0.24,-0.95,0.23
0.24,-0.95,0.22
0.25,-0.95,0.21
0.26,-0.95,0.2
0.27,-0.94,0.19
0.29,-0.94,0.18
0.3,-0.93,0.17
0.31,-0.93,0.16
0.31,-0.92,0.15
0.32,-0.92,0.15
0.31,-0.92,0.14
0.31,-0.92,0.14
0.31,-0.92,0.15
0.31,-0.93,0.15
0.31,-0.93,0.15
0.31,-0.94,0.16
0.31,-0.94,0.16
0.31,-0.95,0.17
0.31,-0.96,0.17
0.32,-0.98,0.18
0.32,-0.98,0.18
0.31,-0.99,0.18
0.31,-1,0.18
0.3,-1,0.18
0.3,-1.01,0.18
0.3,-1,0.18
0.3,-1,0.18
0.3,-1,0.18
0.31,-0.99,0.17
0.34,-0.97,0.18
0.36,-0.95,0.19
0.35,-0.94,0.21
0.34,-0.94,0.23
0.34,-0.94,0.25
0.35,-0.94,0.27
0.35,-0.95,0.28
0.35,-0.95,0.28
0.36,-0.95,0.27
0.37,-0.95,0.26
0.39,-0.94,0.26
0.4,-0.94,0.27
0.4,-0.93,0.28
0.4,-0.93,0.3
0.4,-0.94,0.3
0.41,-0.94,0.29
0.4,-0.95,0.27
0.46,-0.96,0.3
0.51,-0.96,0.33
0.55,-0.97,0.37
0.56,-0.96,0.4
0.59,-0.95,0.45
0.59,-0.95,0.53
0.59,-0.96,0.6
0.59,-0.96,0.65
0.56,-0.96,0.72
0.53,-0.97,0.76
0.54,-0.97,0.78
0.56,-0.98,0.83
0.57,-1,0.92
0.55,-1.03,1.01
0.53,-1.06,1.03
0.5,-1.09,1.02
0.47,-1.14,1.01
0.46,-1.19,1.01
0.43,-1.23,1.01
0.41,-1.27,1.06
0.4,-1.29,1.12
0.39,-1.29,1.17
0.39,-1.29,1.2
0.39,-1.3,1.2
0.38,-1.31,1.16
0.36,-1.3,1.06
0.34,-1.29,1.03
0.35,-1.27,1.04
0.36,-1.27,1.05
0.36,-1.26,1.03
0.36,-1.22,1.01
0.34,-1.21,0.97
0.32,-1.19,0.93
0.32,-1.15,0.9
0.3,-1.09,0.86
0.29,-1.06,0.82
0.29,-1.02,0.8
0.27,-0.98,0.78
0.29,-0.94,0.76
0.33,-0.87,0.74
0.34,-0.8,0.72
0.35,-0.74,0.66
0.33,-0.72,0.64
0.32,-0.72,0.61
0.3,-0.66,0.61
0.23,-0.65,0.61
0.18,-0.64,0.57
0.17,-0.56,0.53
0.18,-0.45,0.51
0.18,-0.35,0.46
0.18,-0.35,0.42
0.15,-0.38,0.39
0.16,-0.22,0.35
0.15,-0.18,0.37
0.09,-0.12,0.39
0.11,-0.04,0.37
0.09,-0.11,0.35
0.08,-0.07,0.37
0.08,0.05,0.36
0.06,0.07,0.35
0.04,0.07,0.36
0.04,0.12,0.38
0.03,0.16,0.43
0,0.17,0.48
0,0.15,0.49
-0.01,0.19,0.5
-0.05,0.21,0.51
-0.02,0.22,0.51
0,0.26,0.51
0,0.28,0.54
0.03,0.34,0.57
0.02,0.34,0.6
0.04,0.27,0.63
0.05,0.26,0.65
0.02,0.28,0.69
0.01,0.27,0.71
0,0.29,0.73
0,0.29,0.76
0.01,0.31,0.78
0.01,0.3,0.79
0.01,0.3,0.82
0.01,0.3,0.84
0.01,0.3,0.87
0.01,0.31,0.9
0.01,0.32,0.92
0.01,0.33,0.93
0.02,0.34,0.93
0.02,0.33,0.92
0.04,0.33,0.93
0.06,0.35,0.95
0.06,0.35,0.96
0.05,0.33,0.97
0.05,0.32,0.98
0.04,0.31,0.98
0.03,0.31,1
0.02,0.32,1.01
0.01,0.32,1.02
0.01,0.31,1.02
0.02,0.3,1.01
0.02,0.29,1.01
0.04,0.29,1.01
0.04,0.29,1.01
0.03,0.29,1.01
0.03,0.3,0.99
0.02,0.3,0.99
0.01,0.3,0.98
0.02,0.3,0.97
0.02,0.31,0.96
0.02,0.31,0.95
0.03,0.31,0.95
0.03,0.3,0.95
0.03,0.29,0.95
0.03,0.29,0.95
0.02,0.29,0.94
0.03,0.29,0.92
0.04,0.29,0.92
0.04,0.29,0.93
0.05,0.29,0.95
0.04,0.28,0.96
0.03,0.27,0.95
0.02,0.27,0.95
0.02,0.28,0.95
0.02,0.3,0.95
0.02,0.27,0.94
0.03,0.26,0.94
0.03,0.3,0.94
0.03,0.29,0.94
0.03,0.29,0.94
0.03,0.3,0.94
0.04,0.31,0.95
0.04,0.31,0.96
0.04,0.31,0.97
0.04,0.32,0.96
0.04,0.29,0.96
0.04,0.29,0.96
0.04,0.3,0.95
0.04,0.3,0.95
0.04,0.3,0.97
0.03,0.31,0.98
0.03,0.31,0.98
0.03,0.32,0.98
0.03,0.32,0.97
0.03,0.33,0.97
0.03,0.33,0.96
0.03,0.33,0.96
0.03,0.33,0.97
0.02,0.34,0.97
0.02,0.34,0.97
0.02,0.34,0.96
0.02,0.34,0.95
0.01,0.34,0.95
0.01,0.33,0.95
0.01,0.33,0.95
0.02,0.33,0.94
0.02,0.33,0.92
0.02,0.33,0.91
0.02,0.33,0.9
0.02,0.33,0.9
0.01,0.33,0.89
0.01,0.33,0.88
0.01,0.32,0.88
0.01,0.32,0.88
0.01,0.32,0.88
0.02,0.32,0.89
0.01,0.31,0.89
0.01,0.3,0.89
0,0.3,0.89
0.01,0.3,0.9
0.01,0.3,0.91
0,0.29,0.91
0,0.29,0.91
-0.01,0.29,0.92
-0.01,0.3,0.92
-0.01,0.31,0.92
0,0.32,0.93
0.01,0.32,0.93
0.01,0.32,0.92
0.01,0.32,0.93
0.01,0.32,0.93
0.01,0.33,0.94
0.02,0.32,0.94
0.03,0.32,0.94
0.04,0.32,0.95
0.04,0.32,0.94
0.03,0.31,0.94
0.03,0.3,0.93
0.04,0.29,0.92
0.04,0.28,0.9
0.04,0.28,0.89
0.05,0.28,0.86
0.06,0.27,0.82
0.06,0.27,0.79
0.07,0.26,0.75
0.07,0.25,0.72
0.08,0.23,0.68
0.07,0.22,0.64
0.07,0.2,0.6
0.07,0.19,0.56
0.06,0.17,0.51
0.05,0.16,0.48
0.05,0.17,0.48
0.05,0.17,0.47
0.06,0.17,0.46
0.06,0.16,0.44
0.06,0.14,0.41
0.06,0.12,0.38
0.06,0.09,0.35
0.08,0.06,0.32
0.08,-0.01,0.31
0.09,-0.04,0.35
0.09,-0.07,0.39
0.11,-0.11,0.4
0.12,-0.15,0.38
0.13,-0.19,0.34
0.13,-0.22,0.3
0.14,-0.27,0.26
0.14,-0.32,0.23
0.14,-0.38,0.22
0.15,-0.45,0.22
0.17,-0.53,0.25
0.23,-0.58,0.33
0.28,-0.63,0.4
0.31,-0.71,0.44
0.31,-0.79,0.45
0.31,-0.88,0.4
0.31,-0.97,0.33
0.32,-1.01,0.19
0.37,-1.04,0.07
0.49,-1.13,0.1
0.65,-1.24,0.24
0.79,-1.33,0.42
0.83,-1.44,0.57
0.8,-1.49,0.63
0.75,-1.55,0.64
0.72,-1.6,0.41
0.79,-1.7,0.28
0.86,-1.84,0.39
0.87,-1.92,0.67
0.83,-1.94,1
0.79,-1.9,1.19
0.76,-1.85,1.17
0.71,-1.85,1.06
0.59,-1.9,0.99
0.6,-1.97,0.98
-1.22,-2.51,2.48
-2.4,-1.71,3.99
-0.65,-1.9,2.01
1.79,-2.78,-0.27
3.6,-1.43,-0.57
3.54,-0.86,-0.42
2.21,-1.07,-0.13
1.06,-1.04,0.28
0.58,-0.78,0.52
0.57,-0.64,0.39
0.78,-0.75,0.11
0.68,-0.78,-0.12
0.45,-0.72,-0.13
0.21,-0.67,-0.09
0.03,-0.74,-0.06
-0.07,-0.83,0.02
-0.01,-0.86,0.01
0.32,-0.89,-0.04
0.35,-0.92,-0.04
0.4,-0.94,-0.02
0.45,-0.92,-0.01
0.44,-0.91,0.01
0.44,-0.92,-0.01
0.45,-0.92,-0.04
0.43,-0.92,-0.07
0.42,-0.92,-0.09
0.4,-0.91,-0.1
0.37,-0.9,-0.1
0.34,-0.9,-0.09
0.33,-0.92,-0.07
0.33,-0.94,-0.05
0.34,-0.95,-0.03
0.34,-0.94,-0.01
0.34,-0.95,0
0.35,-0.96,0.01
0.34,-0.96,0.02
0.35,-0.95,0.01
0.35,-0.95,0.01
0.35,-0.95,0.01
0.36,-0.97,0.02
0.36,-0.98,0.03
0.36,-0.97,0.05
0.36,-0.97,0.08
0.37,-0.97,0.11
0.37,-0.99,0.15
0.39,-1.02,0.16
0.27,-0.92,0.78
0.43,-0.83,1.43
0.63,-0.94,1.45
0.35,-1.08,1.2
0.09,-1.14,0.71
0.05,-1.09,0.38
0.06,-0.96,0.25
0.09,-0.92,0.22
0.2,-0.96,0.21
0.33,-0.98,0.2
0.4,-0.95,0.21
0.47,-0.91,0.23
0.53,-0.89,0.27
0.47,-0.91,0.28
0.35,-0.93,0.25
0.32,-0.93,0.19
0.34,-0.92,0.12
0.35,-0.92,0.06
0.32,-0.92,0.05
0.28,-0.93,0.06
0.26,-0.93,0.07
0.25,-0.93,0.08
0.25,-0.94,0.09
0.27,-0.94,0.1
0.28,-0.95,0.11
0.29,-0.96,0.11
0.3,-0.96,0.11
0.31,-0.96,0.1
0.32,-0.96,0.09
0.32,-0.95,0.08
0.33,-0.95,0.08
0.33,-0.94,0.08
0.33,-0.93,0.08
0.33,-0.92,0.08
0.33,-0.92,0.09
0.33,-0.92,0.1
0.33,-0.92,0.11
0.33,-0.92,0.12
0.33,-0.94,0.12
0.34,-0.95,0.13
0.34,-0.98,0.13
0.35,-1.01,0.13
0.35,-1.04,0.14
0.35,-1.07,0.15
0.35,-1.07,0.15
0.34,-1.05,0.15
0.33,-1.03,0.15
0.32,-1,0.15
0.31,-0.97,0.12
0.26,-0.93,0.18
0.25,-0.93,0.25
0.23,-0.94,0.33
0.25,-0.94,0.33
0.33,-0.95,0.34
0.35,-0.93,0.34
0.33,-0.94,0.33
0.33,-0.96,0.31
0.34,-0.97,0.29
0.35,-0.97,0.27
0.34,-0.98,0.25
0.33,-0.97,0.22
0.34,-0.97,0.19
0.34,-0.97,0.17
0.34,-0.97,0.16
0.34,-0.96,0.16
0.32,-0.95,0.17
0.31,-0.94,0.16
0.3,-0.94,0.15
0.31,-0.94,0.14
0.31,-0.93,0.14
0.3,-0.93,0.14
0.29,-0.94,0.14
0.28,-0.95,0.14
0.28,-0.95,0.14
0.28,-0.96,0.14
0.28,-0.98,0.15
0.28,-0.99,0.15
0.28,-0.99,0.15
0.28,-0.99,0.15
0.29,-0.99,0.15
0.29,-1,0.15
0.29,-1.01,0.15
0.29,-1.01,0.15
0.29,-1.02,0.16
0.29,-1.01,0.16
0.28,-1.01,0.16
0.28,-1,0.16
0.27,-0.99,0.17
0.27,-0.96,0.17
0.26,-0.95,0.17
0.25,-0.94,0.18
0.25,-0.93,0.18
0.25,-0.93,0.17
0.26,-0.93,0.17
0.26,-0.94,0.16
0.27,-0.94,0.16
0.27,-0.95,0.16
0.27,-0.95,0.16
0.28,-0.95,0.16
0.28,-0.96,0.16
0.27,-0.96,0.17
0.28,-0.96,0.17
0.29,-0.96,0.17
0.29,-0.95,0.18
0.3,-0.95,0.19
0.3,-0.95,0.2
0.3,-0.95,0.2
0.3,-0.96,0.21
0.3,-0.97,0.21
0.31,-0.97,0.22
0.3,-0.98,0.22
0.3,-0.99,0.21
0.3,-0.98,0.2
0.3,-0.98,0.19
0.31,-0.97,0.18
0.31,-0.95,0.17
0.31,-0.93,0.16
0.29,-0.92,0.16
0.28,-0.92,0.15
0.28,-0.92,0.14
0.28,-0.92,0.14
0.28,-0.92,0.14
0.29,-0.92,0.13
0.3,-0.93,0.13
0.3,-0.93,0.13
0.3,-0.93,0.14
0.31,-0.94,0.14
0.31,-0.95,0.15
0.32,-0.96,0.15
0.31,-0.98,0.15
0.31,-0.99,0.16
0.3,-1,0.17
0.3,-1.01,0.17
0.29,-1.02,0.17
0.29,-1.02,0.18
0.29,-1.02,0.19
0.29,-1.01,0.2
0.3,-1,0.21
0.3,-0.99,0.21
0.31,-0.97,0.21
0.31,-0.97,0.21
0.31,-0.96,0.21
0.32,-0.96,0.21
0.32,-0.96,0.21
0.32,-0.96,0.2
0.33,-0.95,0.2
0.33,-0.95,0.2
0.34,-0.94,0.19
0.35,-0.93,0.19
0.34,-0.92,0.18
0.35,-0.92,0.17
0.35,-0.92,0.17
0.34,-0.92,0.16
0.32,-0.92,0.15
0.31,-0.93,0.14
0.32,-0.93,0.14
0.32,-0.94,0.14
0.32,-0.94,0.14
0.32,-0.94,0.14
0.32,-0.94,0.14
0.31,-0.94,0.13
0.31,-0.94,0.13
0.3,-0.94,0.14
0.3,-0.93,0.15
0.3,-0.93,0.15
0.31,-0.93,0.15
0.31,-0.93,0.15
0.32,-0.93,0.15
0.32,-0.94,0.15
0.32,-0.95,0.16
0.32,-0.97,0.16
0.33,-1,0.17
0.33,-1.03,0.17
0.32,-1.06,0.18
0.31,-1.08,0.19
0.3,-1.08,0.2
0.29,-1.08,0.2
0.28,-1.06,0.2
0.29,-1.02,0.2
0.28,-0.99,0.21
0.27,-0.93,0.22
0.27,-0.92,0.21
0.28,-0.92,0.21
0.28,-0.92,0.21
0.28,-0.92,0.21
0.27,-0.93,0.2
0.29,-0.94,0.17
0.31,-0.95,0.16
0.32,-0.95,0.16
0.34,-0.95,0.16
0.36,-0.95,0.16
0.39,-0.94,0.14
0.42,-0.94,0.14
0.44,-0.95,0.14
0.46,-0.95,0.15
0.5,-0.95,0.17
0.53,-0.94,0.21
0.52,-0.94,0.25
0.47,-0.93,0.31
0.45,-0.92,0.35
0.46,-0.92,0.34
0.47,-0.93,0.35
0.49,-0.94,0.39
0.55,-0.95,0.47
0.62,-0.95,0.54
0.67,-0.97,0.56
0.7,-1,0.58
0.67,-0.98,0.59
0.65,-0.97,0.64
0.63,-0.98,0.72
0.63,-0.97,0.79
0.61,-0.95,0.85
0.65,-0.96,0.91
0.71,-0.98,0.94
0.73,-1.01,0.95
0.73,-1.06,0.94
0.71,-1.11,0.9
0.68,-1.17,0.87
0.67,-1.22,0.86
0.68,-1.27,0.87
0.69,-1.3,0.93
0.7,-1.3,0.99
0.69,-1.28,1.02
0.67,-1.25,1.03
0.65,-1.24,1.02
0.63,-1.23,1
0.61,-1.22,0.98
0.59,-1.2,0.96
0.58,-1.19,0.93
0.56,-1.17,0.9
0.51,-1.15,0.87
0.48,-1.12,0.87
0.51,-1.07,0.91
0.53,-1.07,0.92
0.54,-1.03,0.9
0.49,-1.02,0.86
0.44,-1.01,0.81
0.42,-0.95,0.79
0.39,-0.91,0.77
0.37,-0.86,0.76
0.37,-0.81,0.75
0.36,-0.74,0.74
0.34,-0.69,0.73
0.32,-0.64,0.7
0.3,-0.61,0.64
0.29,-0.54,0.62
0.27,-0.47,0.6
0.27,-0.38,0.58
0.26,-0.3,0.56
0.22,-0.34,0.53
0.19,-0.31,0.5
0.21,-0.18,0.47
0.2,-0.11,0.46
0.15,-0.17,0.46
0.14,-0.15,0.45
0.12,-0.11,0.42
0.11,-0.04,0.38
0.11,0.06,0.37
0.07,0,0.37
0.11,0.09,0.39
0.05,0.11,0.4
0.02,0.07,0.39
0.07,0.1,0.41
0.04,0.15,0.44
0.03,0.26,0.47
0.03,0.29,0.47
0.02,0.27,0.49
0.06,0.31,0.49
0.05,0.32,0.5
0.04,0.33,0.52
0.07,0.34,0.55
0.07,0.33,0.58
0.04,0.3,0.62
0.05,0.31,0.64
0.07,0.36,0.66
0.04,0.36,0.68
0.02,0.38,0.69
0.01,0.39,0.7
0,0.39,0.71
0,0.38,0.73
-0.01,0.4,0.74
0,0.4,0.75
0.01,0.4,0.75
0.01,0.4,0.74
0.02,0.38,0.71
0.04,0.38,0.68
0.05,0.37,0.65
0.06,0.37,0.61
0.08,0.36,0.58
0.09,0.34,0.53
0.09,0.32,0.47
0.08,0.31,0.42
0.07,0.3,0.39
0.08,0.29,0.37
0.08,0.27,0.34
0.08,0.26,0.31
0.09,0.24,0.29
0.09,0.23,0.25
0.09,0.22,0.22
0.1,0.21,0.2
0.11,0.18,0.19
0.11,0.14,0.21
0.11,0.09,0.25
0.12,0.03,0.28
0.14,-0.03,0.29
0.16,-0.07,0.28
0.18,-0.09,0.29
0.2,-0.1,0.32
0.23,-0.14,0.33
0.26,-0.2,0.34
0.29,-0.32,0.37
0.32,-0.41,0.37
0.34,-0.48,0.35
0.38,-0.52,0.33
0.41,-0.58,0.3
0.46,-0.62,0.28
0.53,-0.66,0.29
0.6,-0.73,0.35
0.62,-0.78,0.43
0.6,-0.84,0.51
0.54,-0.98,0.59
0.54,-1.02,0.64
0.58,-0.99,0.62
0.58,-1.04,0.56
0.63,-1.1,0.46
0.73,-1.18,0.33
0.84,-1.28,0.28
0.96,-1.35,0.34
1.07,-1.4,0.48
1.13,-1.47,0.62
1.14,-1.55,0.71
1.13,-1.65,0.74
1.09,-1.71,0.8
1.02,-1.71,0.86
0.96,-1.68,0.84
0.9,-1.66,0.78
0.85,-1.64,0.71
0.88,-1.68,0.72
0.9,-1.71,0.77
0.9,-1.73,0.82
0.29,-1.13,1.88
-1.69,-2.02,3.46
0.34,-3.01,2.4
3.65,-2.3,0.44
3.36,-1.26,-0.14
2.61,-0.64,-0.27
1.72,-1.03,-0.03
1.27,-1,0.21
1.08,-0.67,0.31
1,-0.62,0.26
0.9,-0.75,0.14
0.76,-0.73,0.01
0.63,-0.66,-0.1
0.48,-0.63,-0.14
0.33,-0.66,-0.14
0.23,-0.71,-0.14
0.17,-0.75,-0.11
0.18,-0.81,-0.08
0.24,-0.85,-0.05
0.32,-0.9,-0.05
0.41,-0.95,-0.06
0.44,-0.98,-0.05
0.45,-1,-0.04
0.47,-0.96,-0.04
0.45,-0.94,-0.06
0.44,-0.92,-0.07
0.42,-0.88,-0.07
0.39,-0.87,-0.07
0.38,-0.88,-0.07
0.37,-0.89,-0.07
0.38,-0.89,-0.06
0.38,-0.9,-0.04
0.36,-0.91,-0.02
0.36,-0.92,-0.01
0.36,-0.93,-0.01
0.36,-0.95,0
0.36,-0.96,0.01
0.36,-0.97,0.02
0.36,-0.98,0.04
0.36,-0.98,0.05
0.36,-0.99,0.07
0.36,-0.98,0.1
0.35,-0.98,0.12
0.37,-0.98,0.13
0.39,-1,0.12
0.39,-1.01,0.12
0.45,-0.98,0.23
0.32,-0.88,0.58
0.11,-0.91,1.11
0.28,-1.05,0.94
0.15,-1.08,0.76
0.15,-1.04,0.6
0.19,-0.94,0.45
0.27,-0.91,0.32
0.33,-0.92,0.25
0.37,-0.93,0.2
0.4,-0.92,0.19
0.42,-0.92,0.18
0.41,-0.9,0.16
0.39,-0.88,0.14
0.36,-0.88,0.12
0.34,-0.88,0.09
0.32,-0.88,0.08
0.32,-0.88,0.07
0.32,-0.89,0.07
0.32,-0.88,0.07
0.32,-0.88,0.08
0.32,-0.88,0.09
0.32,-0.89,0.1
0.33,-0.89,0.11
0.33,-0.89,0.12
0.33,-0.9,0.12
0.34,-0.92,0.12
0.34,-0.93,0.13
0.34,-0.96,0.13
0.36,-1.02,0.14
0.36,-1.04,0.14
0.37,-1.06,0.15
0.37,-1.06,0.15
0.37,-1.04,0.15
0.37,-1.01,0.16
0.37,-0.98,0.16
0.35,-0.95,0.15
0.34,-0.93,0.15
0.33,-0.91,0.14
0.33,-0.88,0.16
0.32,-0.88,0.2
0.32,-0.9,0.2
0.34,-0.92,0.18
0.37,-0.92,0.16
0.38,-0.93,0.16
0.38,-0.94,0.16
0.37,-0.95,0.15
0.37,-0.95,0.15
0.37,-0.96,0.14
0.38,-0.96,0.14
0.37,-0.96,0.14
0.37,-0.95,0.14
0.37,-0.94,0.14
0.38,-0.94,0.14
0.38,-0.94,0.16
0.35,-0.94,0.17
0.33,-0.94,0.19
0.32,-0.96,0.21
0.3,-0.97,0.23
0.28,-0.98,0.25
0.27,-1,0.26
0.26,-1.01,0.27
0.26,-1.02,0.27
0.25,-1.02,0.27
0.25,-1.02,0.27
0.25,-1.02,0.27
0.26,-1.01,0.26
0.26,-1.01,0.26
0.25,-0.99,0.25
0.25,-0.99,0.24
0.25,-0.99,0.22
0.25,-0.99,0.19
0.25,-1,0.18
0.25,-1,0.17
0.24,-1,0.16
0.24,-1.01,0.16
0.24,-1,0.16
0.25,-0.99,0.15
0.26,-0.98,0.15
0.26,-0.97,0.15
0.27,-0.97,0.15
0.28,-0.96,0.15
0.29,-0.95,0.15
0.28,-0.95,0.16
0.27,-0.95,0.16
0.26,-0.94,0.16
0.26,-0.94,0.16
0.25,-0.94,0.17
0.25,-0.94,0.18
0.25,-0.95,0.18
0.24,-0.95,0.18
0.24,-0.95,0.19
0.24,-0.96,0.19
0.24,-0.96,0.2
0.24,-0.96,0.2
0.23,-0.97,0.21
0.23,-0.97,0.21
0.23,-0.97,0.22
0.22,-0.98,0.23
0.22,-0.98,0.24
0.2,-0.98,0.24
0.19,-0.99,0.24
0.19,-0.99,0.25
0.18,-0.98,0.25
0.18,-0.98,0.25
0.17,-0.98,0.25
0.17,-0.97,0.25
0.17,-0.97,0.24
0.2,-0.97,0.23
0.22,-0.96,0.22
0.24,-0.95,0.22
0.27,-0.95,0.21
0.29,-0.95,0.2
0.31,-0.95,0.19
0.32,-0.94,0.18
0.33,-0.93,0.19
0.34,-0.93,0.2
0.35,-0.92,0.23
0.37,-0.93,0.25
0.41,-0.93,0.28
0.43,-0.92,0.32
0.43,-0.91,0.37
0.45,-0.87,0.43
0.47,-0.84,0.48
0.5,-0.85,0.54
0.54,-0.89,0.61
0.56,-0.91,0.72
0.56,-0.92,0.83
0.58,-0.94,0.84
0.62,-0.95,0.79
0.66,-0.94,0.74
0.67,-0.95,0.74
0.69,-0.96,0.8
0.78,-1.06,0.91
0.86,-1.05,0.99
0.83,-1.04,1.05
0.76,-1.08,1.09
0.7,-1.15,1.12
0.64,-1.21,1.14
0.6,-1.24,1.16
0.59,-1.26,1.15
0.58,-1.26,1.15
0.59,-1.27,1.15
0.6,-1.28,1.15
0.6,-1.31,1.14
0.59,-1.32,1.1
0.58,-1.33,1.06
0.56,-1.33,1
0.55,-1.32,0.96
0.52,-1.3,0.97
0.5,-1.29,0.99
0.48,-1.29,1.01
0.47,-1.28,0.99
0.48,-1.27,0.94
0.47,-1.25,0.89
0.45,-1.2,0.86
0.44,-1.17,0.82
0.44,-1.15,0.79
0.45,-1.1,0.8
0.43,-1.05,0.78
0.36,-0.92,0.75
0.32,-0.89,0.73
0.28,-0.85,0.71
0.29,-0.78,0.67
0.28,-0.72,0.64
0.27,-0.67,0.64
0.27,-0.6,0.62
0.27,-0.56,0.56
0.25,-0.54,0.55
0.21,-0.46,0.56
0.19,-0.43,0.53
0.17,-0.42,0.5
0.15,-0.33,0.49
0.14,-0.28,0.44
0.15,-0.24,0.45
0.15,-0.15,0.43
0.12,-0.11,0.36
0.09,-0.14,0.32
0.08,-0.09,0.27
0.11,0.01,0.29
0.09,0.04,0.3
0.09,0.08,0.31
0.09,0.12,0.35
0.07,0.12,0.34
0.05,0.14,0.34
0,0.11,0.37
0.04,0.25,0.39
0.03,0.27,0.41
0.03,0.29,0.44
0.01,0.31,0.48
0.01,0.32,0.49
0.02,0.34,0.49
0.02,0.37,0.51
0.03,0.38,0.55
0.01,0.37,0.58
0,0.41,0.6
0,0.43,0.62
-0.01,0.41,0.63
-0.01,0.41,0.64
-0.01,0.41,0.66
0,0.42,0.68
0.01,0.41,0.7
0.03,0.42,0.72
0.04,0.42,0.73
0.05,0.41,0.74
0.05,0.41,0.76
0.05,0.41,0.76
0.06,0.41,0.77
0.06,0.41,0.77
0.07,0.4,0.77
0.07,0.39,0.76
0.07,0.38,0.72
0.08,0.36,0.69
0.09,0.34,0.67
0.1,0.33,0.65
0.1,0.32,0.61
0.1,0.3,0.58
0.11,0.28,0.55
0.1,0.25,0.52
0.1,0.22,0.47
0.1,0.19,0.41
0.11,0.17,0.33
0.12,0.16,0.27
0.12,0.15,0.23
0.14,0.13,0.21
0.16,0.1,0.21
0.18,0.07,0.21
0.19,0.03,0.21
0.19,-0.01,0.19
0.19,-0.03,0.14
0.19,-0.06,0.11
0.21,-0.1,0.08
0.24,-0.15,0.05
0.27,-0.21,0.05
0.29,-0.27,0.09
0.29,-0.33,0.16
0.3,-0.36,0.24
0.32,-0.39,0.28
0.36,-0.5,0.23
0.37,-0.63,0.18
0.41,-0.73,0.14
0.52,-0.73,0.1
0.61,-0.82,0.08
0.64,-0.99,0.16
0.65,-1.08,0.29
0.67,-1.14,0.42
0.73,-1.21,0.51
0.81,-1.24,0.54
0.84,-1.28,0.55
0.83,-1.38,0.51
0.8,-1.53,0.48
0.78,-1.71,0.49
0.87,-1.77,0.54
1.02,-1.77,0.64
1.1,-1.8,0.77
1.11,-1.84,0.88
1.08,-1.88,0.95
1.01,-1.93,0.99
0.96,-1.94,1.01
0.93,-1.89,1.03
0.86,-1.81,1.05
0.83,-1.81,1.04
0.91,-1.86,1.02
0.99,-1.85,1.11
0.15,-0.32,3.99
2.65,-1.09,1.93
2.5,-2.81,-0.31
3.68,-1.22,-0.47
2.84,-0.83,-0.28
1.67,-0.93,0.24
0.8,-0.74,0.61
0.4,-0.46,0.54
0.89,-0.57,0.22
1.1,-0.78,-0.07
0.82,-0.73,-0.22
0.58,-0.61,-0.29
0.4,-0.62,-0.27
0.25,-0.69,-0.19
0.19,-0.74,-0.1
0.22,-0.77,-0.06
0.32,-0.78,-0.08
0.42,-0.81,-0.11
0.46,-0.83,-0.12
0.45,-0.85,-0.1
0.42,-0.88,-0.06
0.42,-0.89,-0.02
0.42,-0.88,0
0.4,-0.89,0
0.38,-0.9,0
0.36,-0.9,0
0.34,-0.92,-0.01
0.31,-0.92,-0.03
0.3,-0.92,-0.03
0.3,-0.91,-0.02
0.31,-0.92,-0.03
0.32,-0.93,-0.03
0.34,-0.93,0.01
0.36,-0.93,0.04
0.37,-0.93,0.05
0.35,-0.95,0.06
0.34,-0.98,0.07
0.33,-1.01,0.07
0.34,-1.05,0.04
0.34,-1.11,0.02
0.37,-1.12,0.04
0.45,-1.09,0.07
0.47,-1.09,0.25
0.35,-1.1,0.61
0.21,-1.11,0.91
0.22,-1.11,1.12
0.43,-1.08,1.18
0.57,-1.02,1.09
0.44,-1.01,0.95
0.36,-1.03,0.73
0.32,-0.99,0.5
0.23,-0.89,0.33
0.23,-0.81,0.2
0.32,-0.82,0.19
0.37,-0.83,0.19
0.39,-0.83,0.21
0.4,-0.82,0.23
0.4,-0.79,0.23
0.4,-0.76,0.21
0.39,-0.75,0.19
0.38,-0.75,0.17
0.37,-0.75,0.15
0.36,-0.74,0.15
0.33,-0.74,0.17
0.28,-0.76,0.2
0.26,-0.77,0.22
0.26,-0.78,0.23
0.27,-0.79,0.24
0.28,-0.8,0.23
0.28,-0.8,0.23
0.29,-0.81,0.23
0.31,-0.81,0.24
0.33,-0.81,0.25
0.34,-0.81,0.26
0.34,-0.81,0.25
0.35,-0.82,0.25
0.36,-0.83,0.23
0.38,-0.85,0.2
0.41,-0.94,0.11
0.46,-1,0.09
0.48,-1.06,0.09
0.48,-1.11,0.09
0.48,-1.13,0.11
0.47,-1.12,0.15
0.45,-1.09,0.18
0.45,-1.07,0.17
0.45,-1.07,0.15
0.47,-1.1,0.12
0.46,-1.14,0.1
0.46,-1.16,0.09
0.46,-1.17,0.08
0.45,-1.14,0.07
0.45,-1.12,0.05
0.45,-1.09,0.03
0.43,-1.08,0.02
0.41,-1.07,0.02
0.4,-1.06,0.04
0.38,-1.06,0.06
0.36,-1.06,0.07
0.35,-1.06,0.07
0.34,-1.06,0.07
0.33,-1.06,0.06
0.31,-1.04,0.06
0.3,-1.02,0.05
0.3,-0.99,0.03
0.29,-0.93,0.02
0.28,-0.91,0.02
0.28,-0.89,0.01
0.28,-0.88,0.01
0.28,-0.88,0
0.29,-0.89,0
0.29,-0.89,0
0.3,-0.9,0
0.3,-0.9,-0.01
0.3,-0.91,-0.01
0.31,-0.91,-0.01
0.32,-0.91,-0.01
0.32,-0.91,-0.02
0.3,-0.92,-0.02
0.3,-0.92,-0.02
0.3,-0.92,-0.02
0.29,-0.93,-0.02
0.28,-0.93,-0.02
0.28,-0.94,-0.01
0.27,-0.95,0
0.28,-0.96,0
0.28,-0.96,-0.01
0.28,-0.97,-0.01
0.28,-0.97,0
0.28,-0.97,0
0.28,-0.97,0
0.28,-0.99,0.01
0.27,-1,0.01
0.27,-1.01,0.02
0.26,-1.02,0.02
0.26,-1.03,0.01
0.26,-1.03,0.01
0.26,-1.02,0.02
0.26,-1.03,0.03
0.26,-1.03,0.05
0.26,-1.03,0.06
0.26,-1.04,0.07
0.25,-1.05,0.07
0.25,-1.06,0.08
0.26,-1.08,0.08
0.26,-1.13,0.08
0.26,-1.19,0.07
0.26,-1.24,0.08
0.25,-1.25,0.08
0.26,-1.24,0.09
0.25,-1.21,0.11
0.25,-1.18,0.11
0.25,-1.15,0.11
0.25,-1.11,0.11
0.27,-1.04,0.1
0.28,-0.96,0.11
0.29,-0.89,0.17
0.29,-0.81,0.19
0.28,-0.8,0.2
0.27,-0.8,0.19
0.27,-0.83,0.17
0.27,-0.88,0.17
0.26,-0.94,0.17
0.24,-1,0.17
0.23,-1.07,0.19
0.2,-1.13,0.2
0.18,-1.18,0.21
0.16,-1.21,0.22
0.15,-1.21,0.21
0.14,-1.19,0.2
0.15,-1.14,0.19
0.17,-1.08,0.18
0.2,-1.01,0.18
0.22,-0.95,0.18
0.25,-0.89,0.19
0.27,-0.84,0.21
0.3,-0.8,0.24
0.3,-0.77,0.27
0.26,-0.75,0.32
0.2,-0.74,0.38
0.18,-0.75,0.43
0.2,-0.76,0.45
0.24,-0.78,0.4
0.36,-0.83,0.35
0.41,-0.84,0.32
0.43,-0.85,0.3
0.41,-0.85,0.3
0.37,-0.84,0.32
0.35,-0.84,0.33
0.32,-0.86,0.36
0.29,-0.87,0.38
0.27,-0.85,0.38
0.25,-0.82,0.38
0.23,-0.79,0.36
0.23,-0.75,0.35
0.25,-0.73,0.34
0.25,-0.72,0.33
0.24,-0.72,0.33
0.25,-0.74,0.33
0.25,-0.76,0.33
0.25,-0.79,0.35
0.24,-0.82,0.36
0.24,-0.85,0.35
0.24,-0.87,0.34
0.25,-0.88,0.34
0.26,-0.88,0.33
0.26,-0.85,0.33
0.27,-0.81,0.31
0.28,-0.77,0.29
0.3,-0.73,0.27
0.31,-0.73,0.25
0.32,-0.74,0.24
0.34,-0.74,0.23
0.34,-0.75,0.25
0.34,-0.77,0.26
0.34,-0.78,0.27
0.34,-0.81,0.28
0.34,-0.84,0.27
0.33,-0.89,0.25
0.32,-0.94,0.22
0.31,-0.98,0.18
0.3,-0.96,0.16
0.31,-0.93,0.14
0.32,-0.91,0.11
0.33,-0.89,0.1
0.33,-0.89,0.09
0.32,-0.92,0.08
0.31,-0.96,0.07
0.29,-0.98,0.07
0.27,-1,0.07
0.27,-1.03,0.04
0.29,-1.03,0.01
0.29,-1.03,-0.01
0.27,-1.03,-0.02
0.28,-1.04,-0.02
0.29,-1.02,0.01
0.39,-1,0.01
0.38,-1.01,0.03
0.37,-1.04,0.04
0.39,-1.04,0.04
0.44,-1,0.03
0.5,-0.96,0.03
0.54,-0.93,0.04
0.55,-0.92,0.07
0.55,-0.92,0.1
0.56,-0.9,0.13
0.56,-0.9,0.17
0.57,-0.91,0.19
0.6,-0.93,0.19
0.62,-0.96,0.2
0.63,-0.97,0.24
0.63,-0.97,0.29
0.61,-0.97,0.32
0.61,-0.95,0.34
0.62,-0.93,0.35
0.64,-0.91,0.36
0.63,-0.91,0.38
0.62,-0.91,0.38
0.61,-0.9,0.36
0.61,-0.89,0.36
0.62,-0.89,0.38
0.63,-0.9,0.45
0.64,-0.9,0.47
0.64,-0.9,0.5
0.65,-0.9,0.51
0.65,-0.91,0.53
0.64,-0.92,0.55
0.64,-0.92,0.57
0.65,-0.91,0.58
0.65,-0.9,0.57
0.65,-0.91,0.55
0.67,-0.91,0.56
0.69,-0.89,0.63
0.6,-0.84,0.74
0.47,-0.77,0.82
0.41,-0.7,0.89
0.35,-0.65,0.93
0.31,-0.6,0.91
0.35,-0.53,0.83
0.4,-0.49,0.75
0.42,-0.46,0.7
0.45,-0.43,0.69
0.48,-0.42,0.71
0.54,-0.41,0.79
0.62,-0.41,0.94
0.7,-0.44,1.1
0.76,-0.49,1.21
0.8,-0.53,1.18
0.69,-0.49,1.08
0.56,-0.45,0.95
0.42,-0.39,0.81
0.29,-0.33,0.69
0.19,-0.27,0.6
0.13,-0.23,0.55
0.11,-0.21,0.52
0.11,-0.19,0.52
0.15,-0.19,0.55
0.19,-0.19,0.61
0.23,-0.18,0.67
0.28,-0.17,0.73
0.31,-0.18,0.77
0.36,-0.19,0.8
0.4,-0.2,0.81
0.44,-0.22,0.83
0.49,-0.25,0.87
0.57,-0.29,0.96
0.66,-0.38,1.1
0.77,-0.53,1.21
0.94,-0.64,1.21
1.06,-0.66,1.11
1.03,-0.66,0.97
0.88,-0.63,0.82
0.69,-0.57,0.7
0.55,-0.49,0.52
0.37,-0.4,0.47
0.3,-0.38,0.44
0.27,-0.37,0.43
0.29,-0.38,0.44
0.33,-0.42,0.48
0.41,-0.47,0.56
0.5,-0.52,0.68
0.6,-0.56,0.81
0.66,-0.58,0.92
0.68,-0.59,0.97
0.64,-0.59,0.97
0.58,-0.56,0.92
0.52,-0.53,0.85
0.47,-0.5,0.77
0.45,-0.49,0.71
0.45,-0.49,0.67
0.47,-0.49,0.65
0.5,-0.5,0.64
0.51,-0.52,0.66
0.52,-0.53,0.68
0.53,-0.53,0.7
0.53,-0.53,0.72
0.54,-0.53,0.72
0.54,-0.52,0.72
0.53,-0.51,0.73
0.52,-0.51,0.73
0.5,-0.51,0.73
0.49,-0.51,0.73
0.47,-0.51,0.73
0.47,-0.51,0.73
0.46,-0.51,0.73
0.46,-0.52,0.73
0.47,-0.52,0.73
0.47,-0.52,0.73
0.48,-0.51,0.74
0.49,-0.51,0.75
0.5,-0.5,0.75
0.51,-0.49,0.75
0.52,-0.48,0.75
0.52,-0.47,0.75
0.52,-0.47,0.75
0.53,-0.46,0.75
0.53,-0.45,0.75
0.54,-0.44,0.75
0.54,-0.44,0.75
0.54,-0.44,0.74
0.55,-0.43,0.73
0.55,-0.42,0.73
0.55,-0.43,0.73
0.56,-0.43,0.73
0.57,-0.43,0.72
0.57,-0.44,0.73
0.57,-0.44,0.73
0.57,-0.44,0.73
0.57,-0.45,0.73
0.57,-0.45,0.72
0.58,-0.45,0.72
0.58,-0.45,0.72
0.58,-0.45,0.72
