Acc_x,Acc_y,Acc_z
0.7,-0.3,0.16
0.71,-0.3,0.17
0.72,-0.3,0.17
0.73,-0.3,0.16
0.74,-0.3,0.17
0.73,-0.3,0.17
0.72,-0.31,0.15
0.72,-0.31,0.14
0.74,-0.32,0.14
0.75,-0.32,0.14
0.76,-0.33,0.15
0.77,-0.34,0.15
0.78,-0.35,0.14
0.8,-0.37,0.13
0.8,-0.37,0.13
0.82,-0.38,0.12
0.82,-0.38,0.12
0.82,-0.38,0.12
0.82,-0.37,0.14
0.83,-0.37,0.16
0.84,-0.37,0.19
0.83,-0.36,0.2
0.86,-0.35,0.2
0.86,-0.33,0.21
0.86,-0.31,0.21
0.87,-0.3,0.22
0.87,-0.29,0.22
0.89,-0.28,0.2
0.92,-0.28,0.19
0.94,-0.28,0.2
0.96,-0.29,0.21
0.97,-0.29,0.23
0.98,-0.29,0.24
0.98,-0.29,0.27
0.98,-0.29,0.29
0.97,-0.29,0.3
0.96,-0.28,0.3
0.95,-0.28,0.3
0.95,-0.27,0.3
0.94,-0.24,0.29
0.95,-0.23,0.28
0.96,-0.22,0.27
0.99,-0.21,0.25
1.01,-0.21,0.24
1.03,-0.21,0.22
1.03,-0.2,0.21
1.02,-0.2,0.22
1,-0.19,0.22
0.95,-0.19,0.23
0.93,-0.19,0.25
0.93,-0.19,0.23
0.95,-0.18,0.21
1,-0.17,0.21
1.05,-0.18,0.23
1.07,-0.21,0.26
1.06,-0.22,0.25
1.05,-0.25,0.24
1,-0.27,0.25
0.95,-0.28,0.25
0.91,-0.3,0.25
0.87,-0.34,0.27
0.88,-0.37,0.28
0.91,-0.42,0.27
0.96,-0.46,0.27
0.99,-0.48,0.28
0.99,-0.52,0.31
0.97,-0.57,0.35
0.95,-0.6,0.36
0.92,-0.59,0.37
0.88,-0.59,0.39
0.88,-0.59,0.4
0.93,-0.6,0.4
0.95,-0.64,0.39
0.91,-0.68,0.39
0.87,-0.72,0.4
0.88,-0.75,0.41
0.91,-0.79,0.42
0.92,-0.82,0.42
0.91,-0.82,0.43
0.89,-0.81,0.45
0.88,-0.81,0.46
0.87,-0.82,0.47
0.85,-0.84,0.48
0.82,-0.86,0.5
0.82,-0.89,0.51
0.84,-0.92,0.51
0.85,-0.94,0.5
0.86,-0.92,0.48
0.85,-0.89,0.46
0.82,-0.85,0.45
0.79,-0.83,0.43
0.75,-0.8,0.42
0.72,-0.77,0.4
0.7,-0.75,0.4
0.68,-0.72,0.4
0.67,-0.7,0.41
0.67,-0.68,0.43
0.67,-0.67,0.45
0.7,-0.65,0.45
0.75,-0.64,0.44
0.8,-0.62,0.41
0.84,-0.6,0.38
0.85,-0.58,0.36
0.84,-0.57,0.35
0.82,-0.56,0.35
0.81,-0.54,0.37
0.81,-0.52,0.41
0.85,-0.5,0.47
0.88,-0.49,0.5
0.88,-0.48,0.49
0.85,-0.45,0.47
0.82,-0.43,0.42
0.76,-0.38,0.4
0.74,-0.36,0.38
0.71,-0.33,0.38
0.68,-0.3,0.38
0.66,-0.29,0.39
0.64,-0.27,0.4
0.62,-0.25,0.4
0.6,-0.23,0.39
0.58,-0.21,0.37
0.56,-0.19,0.34
0.54,-0.17,0.31
0.51,-0.15,0.27
0.48,-0.14,0.24
0.45,-0.12,0.22
0.43,-0.11,0.2
0.4,-0.1,0.19
0.38,-0.09,0.18
0.37,-0.1,0.18
0.38,-0.11,0.19
0.39,-0.12,0.2
0.42,-0.14,0.2
0.44,-0.17,0.21
0.44,-0.21,0.22
0.43,-0.24,0.2
0.41,-0.26,0.19
0.4,-0.29,0.17
0.37,-0.34,0.17
0.37,-0.38,0.2
0.38,-0.43,0.22
0.4,-0.48,0.24
0.42,-0.54,0.26
0.45,-0.58,0.29
0.47,-0.64,0.31
0.46,-0.72,0.32
0.44,-0.79,0.3
0.41,-0.85,0.29
0.38,-0.91,0.27
0.34,-1,0.26
0.33,-1.07,0.26
0.39,-1.12,0.23
0.48,-1.2,0.21
0.45,-1.45,0.16
0.47,-1.58,0.16
0.63,-1.52,0.18
0.64,-1.58,0.17
0.6,-1.62,0.19
0.58,-1.64,0.17
0.56,-1.62,0.15
0.56,-1.65,0.12
0.55,-1.68,0.12
0.54,-1.65,0.11
0.55,-1.65,0.08
0.54,-1.04,1.92
0.7,-1.22,3.5
2.06,-2.19,2.97
1.45,-1.72,2.08
0.54,-1.02,0.83
0.75,-0.95,-0.13
0.74,-0.9,-0.35
0.54,-0.94,-0.37
0.52,-0.96,-0.43
0.47,-0.89,-0.33
0.41,-0.82,-0.25
0.44,-0.8,-0.28
0.43,-0.84,-0.38
0.37,-0.87,-0.44
0.29,-0.87,-0.44
0.29,-0.91,-0.38
0.37,-0.93,-0.25
0.4,-0.91,-0.1
0.45,-0.9,0.01
0.59,-0.88,0
0.69,-0.87,-0.05
0.71,-0.86,-0.12
0.7,-0.84,-0.18
0.64,-0.83,-0.23
0.57,-0.85,-0.24
0.54,-0.88,-0.13
0.51,-0.94,-0.05
0.47,-0.93,0
0.44,-0.93,-0.02
0.42,-0.93,-0.06
0.41,-0.94,-0.11
0.42,-0.94,-0.15
0.42,-0.93,-0.18
0.43,-0.94,-0.2
0.43,-0.95,-0.21
0.43,-0.95,-0.21
0.43,-0.96,-0.21
0.42,-0.97,-0.2
0.41,-0.98,-0.18
0.4,-0.99,-0.16
0.39,-0.98,-0.14
0.39,-0.98,-0.12
0.39,-0.98,-0.12
0.38,-0.99,-0.14
0.37,-1.02,-0.17
0.37,-1.04,-0.2
0.36,-1.06,-0.21
0.36,-1.07,-0.2
0.37,-1.06,-0.18
0.39,-1.03,-0.15
0.43,-1,-0.12
0.45,-0.96,-0.09
0.47,-0.89,-0.03
0.43,-0.86,-0.01
0.4,-0.84,0.01
0.37,-0.83,0.02
0.35,-0.82,0.03
0.34,-0.83,0.03
0.33,-0.83,0.03
0.32,-0.82,0.04
0.3,-0.82,0.05
0.27,-0.85,0.07
0.24,-0.89,0.1
0.22,-0.96,0.16
0.21,-1.05,0.23
0.22,-1.12,0.3
0.27,-1.19,0.3
0.33,-1.22,0.26
0.37,-1.22,0.24
0.39,-1.19,0.24
0.41,-1.14,0.23
0.41,-1.1,0.22
0.4,-1.05,0.21
0.37,-0.97,0.2
0.31,-0.91,0.18
0.25,-0.87,0.18
0.24,-0.85,0.18
0.24,-0.83,0.18
0.24,-0.82,0.17
0.25,-0.82,0.16
0.25,-0.82,0.14
0.25,-0.82,0.13
0.24,-0.84,0.12
0.25,-0.86,0.13
0.25,-0.87,0.13
0.25,-0.89,0.13
0.25,-0.91,0.13
0.26,-0.93,0.14
0.26,-0.94,0.16
0.25,-0.95,0.18
0.24,-0.96,0.22
0.24,-0.97,0.24
0.21,-0.98,0.25
0.18,-0.99,0.27
0.15,-1,0.29
0.15,-1,0.28
0.16,-1.01,0.28
0.15,-1.03,0.29
0.15,-1.06,0.3
0.16,-1.09,0.31
0.15,-1.14,0.33
0.14,-1.16,0.34
0.18,-1.13,0.33
0.25,-1.1,0.31
0.29,-1.09,0.34
0.35,-1.03,0.35
0.39,-1,0.33
0.39,-0.97,0.32
0.4,-0.93,0.29
0.46,-0.9,0.27
0.55,-0.91,0.3
0.61,-0.94,0.4
0.56,-0.94,0.52
0.48,-0.96,0.58
0.46,-0.99,0.59
0.49,-1.01,0.59
0.55,-1.03,0.58
0.63,-1.04,0.56
0.73,-1.05,0.57
0.77,-1.07,0.63
0.78,-1.08,0.69
0.77,-1.09,0.72
0.74,-1.11,0.75
0.73,-1.13,0.79
0.75,-1.14,0.83
0.78,-1.14,0.84
0.81,-1.13,0.86
0.82,-1.13,0.88
0.81,-1.12,0.85
0.82,-1.12,0.8
0.83,-1.11,0.74
0.83,-1.05,0.74
0.81,-1.01,0.74
0.78,-0.97,0.73
0.76,-0.93,0.68
0.77,-0.89,0.63
0.77,-0.86,0.6
0.77,-0.83,0.58
0.75,-0.82,0.6
0.74,-0.81,0.6
0.71,-0.79,0.55
0.67,-0.75,0.49
0.64,-0.69,0.44
0.62,-0.64,0.39
0.61,-0.58,0.33
0.59,-0.53,0.29
0.56,-0.49,0.29
0.53,-0.44,0.29
0.51,-0.4,0.29
0.5,-0.36,0.3
0.46,-0.33,0.31
0.45,-0.3,0.3
0.44,-0.27,0.26
0.44,-0.25,0.21
0.44,-0.22,0.18
0.43,-0.2,0.17
0.41,-0.17,0.14
0.36,-0.12,0.13
0.34,-0.11,0.12
0.33,-0.1,0.11
0.33,-0.07,0.11
0.31,-0.07,0.13
0.34,-0.07,0.12
0.37,-0.06,0.1
0.38,-0.06,0.1
0.42,-0.02,0.12
0.42,-0.01,0.12
0.4,-0.02,0.13
0.39,-0.02,0.14
0.39,-0.04,0.15
0.38,-0.07,0.14
0.4,-0.1,0.14
0.4,-0.1,0.14
0.41,-0.13,0.14
0.44,-0.17,0.15
0.48,-0.19,0.17
0.52,-0.23,0.17
0.54,-0.27,0.17
0.55,-0.31,0.17
0.54,-0.34,0.18
0.54,-0.38,0.21
0.58,-0.55,0.33
0.6,-0.6,0.33
0.62,-0.66,0.33
0.62,-0.72,0.33
0.62,-0.78,0.35
0.62,-0.83,0.42
0.62,-0.86,0.5
0.63,-0.9,0.54
0.65,-0.96,0.53
0.67,-1.03,0.5
0.7,-1.11,0.46
0.74,-1.21,0.41
0.81,-1.29,0.39
0.82,-1.37,0.4
0.82,-1.41,0.45
0.84,-1.42,0.52
0.87,-1.44,0.56
0.86,-1.48,0.58
0.82,-1.5,0.59
0.78,-1.52,0.61
0.75,-1.51,0.64
0.73,-1.49,0.66
0.47,-1.65,1.4
-1.48,-1.49,3.06
-1.91,-1.41,2.96
0.12,-1.73,0.87
1.2,-1.3,-0.64
2.59,-1.13,-0.61
1.8,-0.99,-0.3
0.92,-0.9,0.03
0.85,-0.84,0.07
0.86,-0.84,0.01
0.64,-0.88,-0.02
0.48,-0.84,-0.07
0.4,-0.8,-0.13
0.34,-0.79,-0.17
0.31,-0.77,-0.16
0.25,-0.77,-0.11
0.24,-0.78,-0.04
0.36,-0.81,-0.03
0.46,-0.84,-0.05
0.46,-0.86,-0.08
0.43,-0.89,-0.11
0.4,-0.92,-0.12
0.39,-0.94,-0.14
0.38,-0.95,-0.15
0.36,-0.96,-0.15
0.34,-0.96,-0.13
0.33,-0.96,-0.1
0.33,-0.97,-0.08
0.34,-0.98,-0.05
0.34,-0.99,-0.01
0.33,-1.01,0.07
0.28,-1.01,0.11
0.26,-1.01,0.16
0.23,-1.02,0.2
0.21,-1.03,0.24
0.21,-1.03,0.28
0.21,-1.03,0.3
0.21,-1.03,0.31
0.2,-1.02,0.31
0.19,-1.02,0.29
0.19,-1.02,0.26
0.21,-1.01,0.24
0.24,-0.99,0.21
0.27,-0.99,0.17
0.28,-0.97,0.14
0.3,-0.96,0.11
0.31,-0.96,0.09
0.32,-0.96,0.07
0.33,-0.95,0.06
0.33,-0.95,0.04
0.33,-0.93,0.03
0.32,-0.92,0.02
0.32,-0.92,0.02
0.32,-0.92,0.02
0.32,-0.91,0.02
0.36,-0.93,0.06
0.37,-0.94,0.07
0.36,-0.94,0.08
0.35,-0.95,0.1
0.35,-0.95,0.12
0.32,-1.04,0.19
0.32,-1.04,0.19
0.33,-1.03,0.19
0.33,-1.02,0.2
0.33,-1.01,0.19
0.33,-1,0.18
0.33,-0.99,0.16
0.33,-0.97,0.15
0.33,-0.95,0.14
0.32,-0.95,0.13
0.31,-0.96,0.12
0.31,-0.96,0.12
0.31,-0.95,0.12
0.3,-0.95,0.12
0.3,-0.95,0.1
0.31,-0.94,0.1
0.31,-0.93,0.09
0.32,-0.92,0.09
0.32,-0.92,0.08
0.32,-0.92,0.08
0.32,-0.93,0.09
0.33,-0.93,0.1
0.33,-0.93,0.11
0.33,-0.93,0.11
0.33,-0.93,0.11
0.32,-0.93,0.11
0.32,-0.93,0.12
0.32,-0.93,0.13
0.31,-0.93,0.13
0.31,-0.94,0.13
0.31,-0.94,0.13
0.31,-0.94,0.13
0.31,-0.94,0.14
0.32,-0.94,0.13
0.32,-0.94,0.13
0.33,-0.94,0.12
0.33,-0.95,0.12
0.33,-0.96,0.13
0.33,-0.98,0.12
0.33,-1,0.12
0.32,-1.03,0.13
0.3,-1.07,0.15
0.31,-1.07,0.17
0.31,-1.05,0.18
0.29,-1.03,0.19
0.3,-1.01,0.18
0.3,-0.99,0.18
0.32,-0.97,0.19
0.34,-0.95,0.2
0.36,-0.94,0.19
0.36,-0.93,0.18
0.34,-0.93,0.16
0.32,-0.93,0.15
0.3,-0.93,0.14
0.3,-0.94,0.14
0.3,-0.95,0.14
0.3,-0.95,0.13
0.3,-0.94,0.13
0.31,-0.94,0.12
0.32,-0.94,0.11
0.34,-0.93,0.1
0.35,-0.93,0.09
0.35,-0.93,0.09
0.35,-0.93,0.09
0.35,-0.93,0.1
0.36,-0.94,0.11
0.35,-0.94,0.12
0.32,-0.94,0.13
0.3,-0.95,0.14
0.29,-0.95,0.14
0.28,-0.95,0.14
0.28,-0.95,0.14
0.27,-0.95,0.14
0.27,-0.95,0.14
0.27,-0.95,0.14
0.28,-0.94,0.14
0.28,-0.94,0.14
0.29,-0.94,0.14
0.29,-0.93,0.13
0.31,-0.93,0.13
0.32,-0.93,0.12
0.33,-0.93,0.12
0.34,-0.94,0.12
0.35,-0.95,0.12
0.36,-0.96,0.11
0.36,-0.99,0.11
0.37,-1.02,0.11
0.38,-1.05,0.12
0.39,-1.07,0.14
0.42,-1.08,0.18
0.45,-1.08,0.26
0.46,-1.06,0.36
0.47,-1.02,0.52
0.49,-0.97,0.52
0.53,-0.94,0.53
0.61,-0.93,0.59
0.7,-0.95,0.69
0.73,-0.98,0.82
0.7,-1.02,0.9
0.64,-1.03,0.89
0.55,-1.04,0.86
0.51,-1.06,0.9
0.55,-1.08,0.95
0.62,-1.09,1.01
0.69,-1.11,1.07
0.7,-1.13,1.11
0.69,-1.16,1.12
0.68,-1.17,1.1
0.67,-1.18,1.08
0.68,-1.2,1.05
0.69,-1.22,1.01
0.69,-1.23,0.96
0.7,-1.24,0.93
0.7,-1.24,0.9
0.69,-1.23,0.88
0.69,-1.22,0.86
0.68,-1.2,0.84
0.67,-1.19,0.81
0.65,-1.18,0.78
0.63,-1.12,0.72
0.6,-1.09,0.7
0.6,-1.07,0.68
0.58,-1.06,0.68
0.56,-1.05,0.66
0.56,-1.04,0.64
0.56,-1.01,0.61
0.55,-0.95,0.6
0.52,-0.88,0.61
0.48,-0.84,0.61
0.47,-0.8,0.6
0.47,-0.73,0.62
0.44,-0.7,0.62
0.41,-0.68,0.6
0.4,-0.62,0.6
0.4,-0.52,0.58
0.41,-0.46,0.54
0.38,-0.47,0.54
0.37,-0.44,0.55
0.36,-0.4,0.55
0.33,-0.36,0.56
0.29,-0.32,0.53
0.3,-0.24,0.5
0.28,-0.17,0.47
0.27,-0.18,0.47
0.27,-0.13,0.5
0.23,-0.14,0.48
0.19,-0.06,0.44
0.23,0.07,0.43
0.26,0.08,0.42
0.21,0.04,0.42
0.22,0.11,0.45
0.22,0.12,0.47
0.2,0.13,0.48
0.22,0.23,0.49
0.19,0.23,0.49
0.16,0.17,0.49
0.17,0.2,0.5
0.17,0.25,0.52
0.16,0.26,0.52
0.14,0.26,0.53
0.16,0.28,0.53
0.14,0.29,0.54
0.12,0.29,0.57
0.14,0.34,0.58
0.15,0.36,0.57
0.16,0.36,0.55
0.14,0.34,0.56
0.13,0.34,0.57
0.13,0.34,0.55
0.14,0.35,0.54
0.14,0.35,0.53
0.15,0.34,0.53
0.15,0.34,0.52
0.16,0.33,0.51
0.16,0.31,0.51
0.17,0.3,0.51
0.18,0.28,0.49
0.19,0.25,0.47
0.19,0.24,0.45
0.2,0.22,0.45
0.21,0.21,0.46
0.22,0.19,0.47
0.24,0.17,0.46
0.25,0.14,0.44
0.26,0.1,0.42
0.27,0.06,0.39
0.28,0.02,0.34
0.27,-0.01,0.28
0.26,-0.03,0.23
0.29,-0.04,0.21
0.34,-0.06,0.22
0.38,-0.09,0.26
0.42,-0.12,0.32
0.43,-0.17,0.35
0.44,-0.23,0.34
0.45,-0.28,0.32
0.46,-0.34,0.29
0.47,-0.38,0.25
0.52,-0.44,0.23
0.56,-0.47,0.23
0.59,-0.53,0.26
0.63,-0.6,0.32
0.65,-0.66,0.41
0.67,-0.72,0.48
0.68,-0.78,0.52
0.69,-0.82,0.53
0.7,-0.87,0.5
0.7,-0.93,0.46
0.71,-1,0.4
0.71,-1.08,0.33
0.72,-1.17,0.3
0.76,-1.25,0.33
0.83,-1.3,0.46
0.91,-1.35,0.62
0.96,-1.44,0.73
0.99,-1.49,0.74
0.95,-1.49,0.69
0.89,-1.52,0.6
0.85,-1.59,0.52
0.79,-1.7,0.49
0.78,-1.76,0.48
0.83,-1.76,0.5
0.95,-1.84,0.5
0.93,-1.85,2.39
0.84,-1.88,3.73
3.57,-1.85,2.11
3.1,-1.62,0.13
2.25,-0.71,-0.46
2.12,-0.89,-0.42
1.92,-1.06,-0.29
1.67,-0.95,-0.1
1.06,-0.78,0.01
0.72,-0.74,-0.03
0.77,-0.79,-0.19
0.62,-0.81,-0.32
0.4,-0.76,-0.35
0.21,-0.69,-0.32
0.12,-0.67,-0.3
0.12,-0.7,-0.23
0.14,-0.73,-0.16
0.24,-0.76,-0.14
0.35,-0.79,-0.17
0.41,-0.84,-0.2
0.42,-0.9,-0.21
0.44,-0.92,-0.21
0.44,-0.92,-0.2
0.42,-0.92,-0.18
0.37,-0.91,-0.15
0.33,-0.91,-0.13
0.3,-0.92,-0.07
0.32,-0.97,-0.04
0.33,-1.01,0.02
0.28,-1.03,0.13
0.21,-1.05,0.28
0.16,-1.05,0.5
0.2,-1.04,0.59
0.25,-1.04,0.53
0.22,-1.03,0.42
0.19,-1.02,0.32
0.16,-0.99,0.25
0.16,-0.98,0.23
0.19,-0.98,0.22
0.26,-0.98,0.21
0.33,-0.98,0.2
0.38,-0.98,0.18
0.41,-0.97,0.16
0.42,-0.97,0.15
0.41,-0.97,0.13
0.4,-0.96,0.11
0.39,-0.95,0.1
0.4,-0.94,0.08
0.4,-0.93,0.06
0.39,-0.92,0.05
0.39,-0.92,0.03
0.37,-0.92,0.02
0.36,-0.93,0.04
0.35,-0.91,0.05
0.36,-0.91,0.06
0.38,-0.91,0.07
0.4,-0.92,0.07
0.43,-0.92,0.07
0.45,-0.92,0.08
0.46,-0.93,0.09
0.45,-0.93,0.11
0.45,-0.94,0.11
0.44,-0.94,0.13
0.42,-0.94,0.14
0.41,-0.95,0.15
0.39,-0.95,0.16
0.38,-0.94,0.17
0.37,-0.94,0.17
0.36,-0.94,0.16
0.35,-0.94,0.15
0.34,-0.95,0.14
0.34,-0.95,0.13
0.34,-0.96,0.12
0.34,-0.97,0.11
0.35,-0.97,0.1
0.35,-0.96,0.09
0.36,-0.96,0.09
0.36,-0.96,0.09
0.36,-0.96,0.09
0.37,-0.96,0.1
0.37,-0.96,0.11
0.38,-0.96,0.12
0.39,-0.96,0.14
0.39,-0.95,0.14
0.4,-0.95,0.14
0.4,-0.95,0.14
0.39,-0.95,0.15
0.38,-0.95,0.16
0.37,-0.95,0.16
0.36,-0.95,0.15
0.36,-0.94,0.13
0.36,-0.93,0.12
0.35,-0.92,0.11
0.34,-0.91,0.1
0.33,-0.91,0.1
0.32,-0.91,0.1
0.32,-0.91,0.1
0.32,-0.91,0.1
0.32,-0.92,0.11
0.32,-0.92,0.11
0.33,-0.92,0.11
0.33,-0.93,0.11
0.34,-0.93,0.1
0.35,-0.93,0.1
0.35,-0.93,0.11
0.35,-0.93,0.11
0.36,-0.92,0.11
0.36,-0.92,0.11
0.36,-0.93,0.11
0.36,-0.93,0.1
0.36,-0.94,0.1
0.36,-0.97,0.11
0.35,-1,0.11
0.34,-1.02,0.13
0.34,-1.04,0.15
0.34,-1.06,0.16
0.34,-1.06,0.18
0.35,-1.06,0.2
0.36,-1.04,0.22
0.37,-1.01,0.23
0.4,-0.99,0.22
0.41,-0.97,0.2
0.41,-0.95,0.18
0.39,-0.93,0.16
0.37,-0.93,0.14
0.35,-0.93,0.14
0.34,-0.93,0.13
0.33,-0.93,0.13
0.32,-0.93,0.14
0.32,-0.93,0.14
0.32,-0.92,0.13
0.34,-0.92,0.1
0.37,-0.91,0.1
0.39,-0.9,0.1
0.4,-0.9,0.1
0.4,-0.9,0.1
0.42,-0.9,0.11
0.43,-0.9,0.12
0.43,-0.9,0.13
0.4,-0.9,0.14
0.39,-0.9,0.15
0.37,-0.9,0.15
0.36,-0.9,0.15
0.33,-0.91,0.15
0.32,-0.92,0.15
0.31,-0.92,0.15
0.31,-0.93,0.16
0.31,-0.93,0.16
0.31,-0.93,0.15
0.33,-0.93,0.14
0.35,-0.94,0.13
0.36,-0.94,0.13
0.36,-0.93,0.14
0.37,-0.93,0.14
0.37,-0.94,0.14
0.37,-0.94,0.15
0.35,-0.94,0.15
0.36,-0.97,0.14
0.38,-0.99,0.12
0.37,-1,0.13
0.37,-1.01,0.14
0.37,-1.02,0.15
0.38,-1.03,0.15
0.38,-1.02,0.15
0.38,-1.01,0.15
0.38,-1,0.15
0.38,-0.98,0.16
0.38,-0.96,0.16
0.39,-0.94,0.15
0.38,-0.93,0.14
0.36,-0.91,0.12
0.34,-0.9,0.11
0.33,-0.9,0.1
0.33,-0.89,0.1
0.33,-0.89,0.1
0.33,-0.9,0.1
0.33,-0.9,0.1
0.34,-0.9,0.11
0.35,-0.9,0.11
0.36,-0.9,0.12
0.37,-0.9,0.12
0.38,-0.91,0.12
0.38,-0.91,0.12
0.38,-0.91,0.12
0.39,-0.93,0.12
0.39,-0.95,0.12
0.4,-0.97,0.12
0.4,-0.99,0.13
0.41,-1,0.14
0.4,-1.01,0.15
0.4,-1.01,0.15
0.4,-1.01,0.15
0.39,-1,0.15
0.39,-0.99,0.15
0.38,-0.98,0.16
0.38,-0.96,0.16
0.37,-0.95,0.16
0.37,-0.94,0.15
0.37,-0.93,0.14
0.36,-0.92,0.14
0.37,-0.92,0.14
0.39,-0.92,0.14
0.43,-0.94,0.15
0.46,-0.95,0.18
0.51,-0.95,0.23
0.55,-0.95,0.3
0.59,-0.93,0.36
0.63,-0.9,0.42
0.68,-0.9,0.46
0.73,-0.92,0.7
0.8,-0.95,0.83
0.81,-0.98,0.86
0.81,-1,0.8
0.83,-1.01,0.73
0.86,-1.02,0.69
0.9,-1,0.71
0.94,-1.01,0.79
0.97,-1.04,0.88
0.96,-1.04,0.94
0.91,-1.04,0.98
0.87,-1.04,0.97
0.84,-1.05,0.93
0.82,-1.06,0.88
0.82,-1.07,0.83
0.85,-1.09,0.8
0.88,-1.1,0.77
0.89,-1.11,0.76
0.88,-1.1,0.75
0.87,-1.09,0.74
0.85,-1.07,0.71
0.82,-1.06,0.7
0.8,-1.03,0.69
0.79,-1.01,0.68
0.8,-1,0.67
0.8,-0.98,0.66
0.8,-0.96,0.65
0.79,-0.9,0.65
0.77,-0.87,0.66
0.76,-0.83,0.66
0.75,-0.79,0.64
0.73,-0.75,0.61
0.71,-0.71,0.6
0.69,-0.68,0.59
0.68,-0.62,0.61
0.63,-0.58,0.64
0.58,-0.55,0.65
0.56,-0.49,0.62
0.55,-0.46,0.59
0.57,-0.41,0.55
0.56,-0.38,0.52
0.53,-0.34,0.52
0.48,-0.3,0.54
0.46,-0.26,0.56
0.45,-0.22,0.56
0.4,-0.14,0.57
0.39,-0.07,0.56
0.36,-0.11,0.57
0.31,-0.13,0.57
0.29,-0.07,0.55
0.31,-0.02,0.54
0.31,0.04,0.54
0.29,0.14,0.56
0.22,0.09,0.57
0.22,0.15,0.56
0.2,0.14,0.56
0.19,0.15,0.55
0.2,0.24,0.53
0.19,0.26,0.52
0.17,0.24,0.54
0.16,0.26,0.55
0.12,0.23,0.55
0.13,0.24,0.55
0.17,0.33,0.55
0.15,0.38,0.52
0.14,0.4,0.51
0.14,0.38,0.51
0.12,0.39,0.52
0.11,0.41,0.53
0.12,0.42,0.53
0.13,0.4,0.53
0.12,0.41,0.52
0.11,0.43,0.51
0.11,0.43,0.51
0.12,0.42,0.51
0.12,0.43,0.52
0.12,0.43,0.51
0.11,0.42,0.49
0.11,0.4,0.47
0.12,0.4,0.44
0.13,0.4,0.43
0.14,0.4,0.44
0.15,0.39,0.46
0.15,0.38,0.46
0.16,0.37,0.46
0.16,0.35,0.45
0.16,0.33,0.42
0.17,0.3,0.39
0.17,0.27,0.37
0.18,0.24,0.36
0.18,0.2,0.37
0.2,0.16,0.4
0.21,0.12,0.42
0.23,0.1,0.42
0.24,0.08,0.4
0.25,0.05,0.37
0.26,0.03,0.32
0.27,0,0.25
0.28,-0.04,0.19
0.3,-0.09,0.15
0.33,-0.13,0.15
0.4,-0.17,0.17
0.44,-0.22,0.2
0.44,-0.27,0.21
0.45,-0.31,0.21
0.46,-0.43,0.17
0.48,-0.47,0.15
0.49,-0.53,0.14
0.52,-0.59,0.08
0.62,-0.65,0
0.75,-0.71,-0.01
0.86,-0.76,0.04
0.91,-0.79,0.15
0.91,-0.85,0.26
0.93,-0.92,0.34
0.91,-0.99,0.42
0.88,-1.06,0.48
0.87,-1.15,0.48
0.83,-1.25,0.47
0.8,-1.36,0.44
0.83,-1.5,0.44
0.89,-1.67,0.44
0.99,-1.75,0.45
1.06,-1.8,0.49
1.06,-1.92,0.55
1.07,-1.98,0.62
1.09,-1.96,0.66
1.1,-1.95,0.66
1.12,-1.93,0.63
1.11,-1.9,0.61
0.85,-1.63,1.24
-1.18,-2.77,3.28
3.59,-1.64,1.69
2.99,-1.02,0.06
2.32,-0.7,-0.61
1.55,-1.11,-0.36
1.25,-0.97,-0.08
1.3,-0.7,0.02
1.18,-0.69,-0.02
1,-0.78,-0.14
0.73,-0.79,-0.22
0.52,-0.73,-0.28
0.44,-0.63,-0.37
0.28,-0.62,-0.37
0.18,-0.64,-0.31
0.2,-0.67,-0.26
0.25,-0.71,-0.22
0.3,-0.76,-0.19
0.37,-0.82,-0.17
0.46,-0.86,-0.16
0.52,-0.89,-0.16
0.48,-0.9,-0.15
0.42,-0.91,-0.15
0.38,-0.92,-0.16
0.35,-0.93,-0.16
0.34,-0.95,-0.15
0.33,-0.96,-0.14
0.32,-0.99,-0.09
0.31,-1.01,-0.05
0.32,-1.02,0.03
0.29,-1.02,0.13
0.24,-1,0.23
0.24,-1,0.29
0.25,-1.02,0.34
0.26,-1.04,0.38
0.26,-1.04,0.4
0.24,-1.03,0.43
0.25,-1.04,0.41
0.26,-1.03,0.37
0.26,-1.02,0.32
0.24,-1.01,0.27
0.25,-0.99,0.21
0.28,-0.99,0.17
0.3,-0.99,0.15
0.32,-0.99,0.14
0.35,-0.98,0.12
0.36,-0.97,0.11
0.37,-0.97,0.11
0.38,-0.95,0.11
0.37,-0.94,0.1
0.37,-0.92,0.09
0.37,-0.91,0.08
0.38,-0.9,0.07
0.37,-0.89,0.04
0.36,-0.9,0.03
0.36,-0.91,0.02
0.37,-0.91,0.02
0.37,-0.91,0.03
0.37,-0.91,0.03
0.36,-0.92,0.04
0.37,-0.92,0.04
0.37,-0.91,0.05
0.38,-0.91,0.06
0.37,-0.9,0.07
0.37,-0.9,0.08
0.37,-0.9,0.09
0.36,-0.91,0.09
0.35,-0.92,0.1
0.35,-0.94,0.11
0.35,-0.96,0.13
0.34,-0.99,0.15
0.32,-1.02,0.17
0.31,-1.04,0.18
0.32,-1.05,0.2
0.33,-1.05,0.21
0.35,-1.04,0.22
0.36,-1.04,0.21
0.38,-1.03,0.2
0.39,-1.01,0.2
0.38,-0.98,0.18
0.36,-0.95,0.17
0.35,-0.93,0.15
0.34,-0.93,0.13
0.31,-0.94,0.12
0.3,-0.95,0.12
0.3,-0.95,0.11
0.29,-0.95,0.11
0.29,-0.95,0.1
0.29,-0.94,0.09
0.29,-0.93,0.09
0.3,-0.93,0.08
0.32,-0.93,0.07
0.33,-0.92,0.07
0.34,-0.91,0.07
0.35,-0.91,0.08
0.35,-0.91,0.09
0.35,-0.92,0.11
0.34,-0.92,0.13
0.34,-0.92,0.15
0.33,-0.93,0.16
0.32,-0.93,0.16
0.32,-0.93,0.17
0.32,-0.94,0.16
0.32,-0.94,0.16
0.32,-0.95,0.16
0.33,-0.95,0.15
0.34,-0.96,0.15
0.35,-0.97,0.14
0.35,-0.97,0.14
0.34,-0.99,0.14
0.34,-1,0.14
0.33,-1.01,0.14
0.32,-1.02,0.14
0.33,-1.03,0.15
0.32,-1.03,0.15
0.32,-1.02,0.15
0.33,-1.01,0.16
0.34,-0.99,0.17
0.33,-0.98,0.16
0.34,-0.97,0.16
0.34,-0.95,0.16
0.33,-0.94,0.16
0.32,-0.94,0.15
0.31,-0.94,0.15
0.31,-0.94,0.15
0.31,-0.94,0.15
0.32,-0.94,0.15
0.36,-0.94,0.14
0.37,-0.93,0.13
0.38,-0.93,0.13
0.37,-0.93,0.13
0.37,-0.93,0.13
0.37,-0.93,0.14
0.37,-0.94,0.14
0.36,-0.95,0.13
0.36,-0.96,0.13
0.35,-0.95,0.14
0.33,-0.94,0.14
0.31,-0.94,0.14
0.3,-0.94,0.13
0.3,-0.95,0.13
0.29,-0.95,0.14
0.28,-0.95,0.14
0.28,-0.96,0.14
0.29,-0.96,0.14
0.3,-0.95,0.13
0.31,-0.95,0.13
0.31,-0.95,0.13
0.32,-0.94,0.13
0.32,-0.94,0.12
0.32,-0.94,0.12
0.32,-0.94,0.12
0.33,-0.94,0.12
0.32,-0.94,0.13
0.32,-0.94,0.13
0.32,-0.93,0.13
0.33,-0.94,0.13
0.34,-0.94,0.13
0.35,-0.95,0.13
0.35,-0.95,0.14
0.35,-0.96,0.14
0.35,-0.98,0.14
0.35,-0.99,0.15
0.34,-1.02,0.15
0.34,-1.04,0.16
0.34,-1.05,0.18
0.34,-1.04,0.19
0.34,-1.03,0.2
0.35,-1.02,0.2
0.35,-1,0.21
0.36,-0.98,0.21
0.38,-0.96,0.22
0.39,-0.93,0.2
0.39,-0.92,0.18
0.37,-0.92,0.18
0.35,-0.92,0.17
0.34,-0.92,0.15
0.34,-0.92,0.14
0.33,-0.92,0.13
0.32,-0.93,0.13
0.33,-0.93,0.12
0.33,-0.93,0.1
0.34,-0.92,0.09
0.35,-0.92,0.08
0.36,-0.92,0.08
0.36,-0.91,0.09
0.36,-0.91,0.09
0.37,-0.91,0.1
0.37,-0.92,0.1
0.36,-0.93,0.11
0.35,-0.93,0.13
0.34,-0.93,0.14
0.33,-0.94,0.16
0.32,-0.94,0.16
0.32,-0.94,0.16
0.31,-0.94,0.16
0.31,-0.94,0.16
0.31,-0.94,0.16
0.32,-0.94,0.15
0.33,-0.95,0.15
0.33,-0.96,0.15
0.33,-0.96,0.15
0.33,-0.97,0.15
0.34,-0.98,0.14
0.34,-1,0.13
0.33,-1.01,0.13
0.33,-1.02,0.14
0.34,-1.02,0.14
0.34,-1.01,0.14
0.34,-0.99,0.14
0.34,-0.98,0.15
0.34,-0.97,0.17
0.35,-0.96,0.17
0.35,-0.95,0.18
0.35,-0.94,0.18
0.35,-0.94,0.18
0.35,-0.94,0.18
0.35,-0.93,0.19
0.34,-0.92,0.19
0.33,-0.92,0.18
0.32,-0.92,0.16
0.33,-0.92,0.15
0.33,-0.92,0.14
0.34,-0.92,0.13
0.35,-0.92,0.12
0.36,-0.92,0.1
0.36,-0.91,0.08
0.37,-0.91,0.07
0.37,-0.92,0.07
0.37,-0.92,0.07
0.35,-0.92,0.1
0.33,-0.93,0.12
0.32,-0.93,0.13
0.32,-0.94,0.13
0.34,-0.94,0.12
0.34,-0.95,0.12
0.35,-0.95,0.12
0.35,-0.96,0.12
0.35,-0.95,0.13
0.35,-0.96,0.13
0.35,-0.96,0.14
0.35,-0.97,0.15
0.35,-0.98,0.16
0.35,-0.99,0.16
0.34,-1,0.16
0.34,-1,0.16
0.33,-1,0.15
0.33,-0.99,0.15
0.33,-0.98,0.15
0.33,-0.97,0.14
0.33,-0.96,0.14
0.32,-0.95,0.14
0.32,-0.94,0.13
0.32,-0.94,0.12
0.31,-0.94,0.11
0.31,-0.94,0.11
0.32,-0.95,0.11
0.32,-0.95,0.1
0.33,-0.95,0.1
0.33,-0.95,0.11
0.34,-0.96,0.12
0.34,-0.95,0.13
0.35,-0.95,0.14
0.35,-0.96,0.15
0.36,-0.96,0.15
0.36,-0.96,0.16
0.36,-0.96,0.16
0.36,-0.96,0.16
0.35,-0.96,0.16
0.35,-0.96,0.15
0.35,-0.96,0.15
0.35,-0.96,0.14
0.34,-0.95,0.14
0.33,-0.95,0.14
0.33,-0.95,0.13
0.33,-0.95,0.13
0.33,-0.95,0.12
0.33,-0.95,0.11
0.33,-0.95,0.11
0.33,-0.95,0.11
0.34,-0.95,0.11
0.34,-0.95,0.12
0.34,-0.95,0.12
0.35,-0.94,0.12
0.35,-0.95,0.13
0.35,-0.95,0.14
0.35,-0.95,0.14
0.35,-0.94,0.14
0.35,-0.95,0.14
0.35,-0.95,0.14
0.35,-0.95,0.14
0.35,-0.95,0.14
0.36,-0.95,0.14
0.36,-0.95,0.13
0.37,-0.96,0.14
0.4,-0.94,0.17
0.42,-0.94,0.24
0.45,-0.95,0.32
0.48,-0.96,0.38
0.51,-0.97,0.41
0.54,-0.99,0.41
0.59,-0.99,0.44
0.67,-0.99,0.53
0.78,-1,0.64
0.87,-1.04,0.72
0.9,-1.06,0.79
0.86,-1.05,0.82
0.82,-1.06,0.82
0.79,-1.08,0.81
0.83,-1.1,0.79
0.9,-1.09,0.78
0.99,-1.09,0.85
1.04,-1.11,0.92
1.02,-1.12,0.98
0.99,-1.14,1
0.99,-1.13,1
1.01,-1.12,0.97
1.04,-1.13,0.93
1.07,-1.15,0.92
1.11,-1.19,0.93
1.15,-1.24,0.92
1.17,-1.27,0.89
1.16,-1.29,0.87
1.14,-1.28,0.83
1.11,-1.25,0.8
1.07,-1.23,0.78
1.03,-1.21,0.75
0.98,-1.17,0.74
0.94,-1.15,0.73
0.91,-1.12,0.72
0.89,-1.09,0.71
0.87,-1.05,0.68
0.85,-0.99,0.64
0.82,-0.92,0.61
0.79,-0.86,0.56
0.75,-0.8,0.54
0.73,-0.75,0.51
0.69,-0.67,0.49
0.62,-0.57,0.47
0.61,-0.5,0.46
0.56,-0.45,0.43
0.51,-0.38,0.39
0.49,-0.32,0.36
0.47,-0.27,0.36
0.43,-0.2,0.39
0.42,-0.14,0.36
0.41,-0.13,0.32
0.36,-0.11,0.36
0.33,-0.04,0.36
0.33,-0.01,0.31
0.31,0.09,0.3
0.25,0.12,0.31
0.2,0.08,0.3
0.2,0.09,0.31
0.17,0.12,0.33
0.14,0.2,0.33
0.13,0.27,0.32
0.12,0.27,0.28
0.09,0.27,0.27
0.07,0.3,0.28
0.06,0.35,0.29
0.02,0.36,0.32
0,0.4,0.32
0.01,0.41,0.3
-0.03,0.43,0.29
-0.05,0.45,0.28
-0.06,0.45,0.27
-0.06,0.45,0.26
-0.07,0.46,0.25
-0.08,0.45,0.23
-0.07,0.45,0.23
-0.07,0.47,0.24
-0.07,0.48,0.23
-0.06,0.49,0.21
-0.05,0.5,0.21
-0.04,0.51,0.21
-0.03,0.51,0.22
-0.02,0.51,0.23
-0.02,0.51,0.24
-0.01,0.49,0.24
0,0.46,0.23
0.01,0.44,0.24
0.01,0.43,0.27
0.02,0.42,0.3
0.04,0.41,0.31
0.05,0.38,0.3
0.07,0.34,0.28
0.09,0.3,0.25
0.11,0.25,0.22
0.13,0.22,0.21
0.15,0.15,0.25
0.23,0.11,0.28
0.26,0.06,0.31
0.28,0.02,0.31
0.29,-0.03,0.29
0.31,-0.08,0.25
0.34,-0.14,0.19
0.39,-0.2,0.17
0.44,-0.25,0.18
0.49,-0.27,0.22
0.52,-0.29,0.29
0.55,-0.33,0.36
0.6,-0.38,0.39
0.62,-0.45,0.39
0.64,-0.52,0.37
0.66,-0.62,0.33
0.67,-0.73,0.31
0.7,-0.83,0.34
0.71,-0.93,0.43
0.75,-1.01,0.52
0.83,-1.03,0.57
0.88,-1.07,0.58
0.91,-1.14,0.54
0.94,-1.23,0.48
0.96,-1.31,0.45
0.94,-1.4,0.49
0.92,-1.56,0.59
1.03,-1.64,0.62
1.06,-1.74,0.67
1.06,-1.82,0.7
1.07,-1.83,0.73
1.03,-1.78,0.86
0.97,-1.76,1.02
0.92,-1.73,1.04
0.82,-1.67,0.94
0.69,-1.58,0.84
0.63,-1.56,0.76
0.65,-1.61,0.73
0.72,-1.65,0.73
0.78,-1.65,0.76
0.27,-1.29,1.91
-0.5,-1.21,3.38
1.28,-2,2.05
3.64,-2.15,-0.05
3.48,-1.1,-0.4
2.07,-0.46,-0.01
1.09,-0.66,0.33
1.26,-0.85,0.21
1.38,-0.9,0.01
1.08,-0.82,-0.1
0.8,-0.77,-0.17
0.59,-0.76,-0.19
0.41,-0.77,-0.09
0.27,-0.8,-0.1
0.38,-0.82,-0.18
0.46,-0.84,-0.23
0.46,-0.86,-0.24
0.44,-0.88,-0.23
0.46,-0.9,-0.22
0.47,-0.91,-0.2
0.42,-0.93,-0.18
0.38,-0.95,-0.15
0.36,-0.97,-0.14
0.35,-0.98,-0.13
0.35,-0.99,-0.12
0.34,-0.99,-0.1
0.32,-0.99,-0.07
0.32,-0.99,-0.03
0.31,-1,0.02
0.27,-1.01,0.09
0.15,-1.01,0.3
0.15,-1.01,0.3
0.17,-0.99,0.39
0.18,-1,0.44
0.09,-1.01,0.46
0.06,-1,0.44
0.05,-1,0.4
0.04,-1,0.37
0.03,-0.99,0.3
0.1,-0.97,0.25
0.14,-0.96,0.22
0.21,-0.96,0.19
0.28,-0.96,0.17
0.34,-0.95,0.15
0.38,-0.95,0.13
0.41,-0.94,0.1
0.44,-0.93,0.08
0.45,-0.93,0.06
0.44,-0.93,0.04
0.44,-0.93,0.04
0.43,-0.92,0.04
0.43,-0.92,0.04
0.44,-0.92,0.06
0.44,-0.92,0.07
0.43,-0.92,0.07
0.43,-0.92,0.07
0.43,-0.93,0.08
0.41,-0.93,0.11
0.39,-0.93,0.14
0.37,-0.94,0.15
0.35,-0.94,0.17
0.34,-0.94,0.17
0.33,-0.94,0.18
0.32,-0.94,0.18
0.31,-0.94,0.18
0.31,-0.94,0.17
0.31,-0.94,0.16
0.31,-0.95,0.16
0.32,-0.95,0.16
0.32,-0.96,0.15
0.32,-0.96,0.16
0.32,-0.96,0.18
0.32,-0.96,0.18
0.32,-0.96,0.18
0.33,-0.96,0.16
0.34,-0.97,0.15
0.33,-0.97,0.14
0.33,-0.97,0.13
0.33,-0.96,0.13
0.34,-0.96,0.12
0.35,0.97,0.12
0.34,-0.96,0.12
0.34,-0.95,0.11
0.34,-0.94,0.1
0.35,-0.94,0.1
0.35,-0.94,0.1
0.35,-0.94,0.11
0.36,-0.94,0.11
0.37,-0.95,0.12
0.39,-0.96,0.13
0.39,-0.96,0.14
0.39,-0.96,0.15
0.39,-0.96,0.15
0.39,-0.96,0.16
0.39,-0.96,0.16
0.38,-0.96,0.17
0.38,-0.95,0.18
0.38,-0.95,0.18
0.37,-0.95,0.18
0.37,-0.95,0.19
0.37,-0.94,0.19
0.36,-0.94,0.2
0.35,-0.94,0.21
0.35,-0.95,0.22
0.36,-0.95,0.21
0.37,-0.95,0.19
0.37,-0.95,0.17
0.38,-0.94,0.16
0.38,-0.93,0.15
0.39,-0.92,0.14
0.39,-0.91,0.14
0.38,-0.91,0.14
0.35,-0.91,0.15
0.33,-0.91,0.14
0.31,-0.91,0.13
0.3,-0.92,0.13
0.29,-0.93,0.12
0.3,-0.93,0.13
0.31,-0.93,0.13
0.32,-0.93,0.13
0.34,-0.93,0.14
0.35,-0.92,0.14
0.35,-0.92,0.15
0.36,-0.92,0.15
0.36,-0.92,0.14
0.37,-0.93,0.14
0.37,-0.93,0.14
0.37,-0.93,0.15
0.37,-0.93,0.15
0.37,-0.94,0.14
0.37,-0.95,0.14
0.37,-0.97,0.15
0.37,-0.99,0.15
0.37,-1.01,0.16
0.38,-1.02,0.17
0.38,-1.02,0.17
0.37,-1.01,0.17
0.37,-1,0.19
0.37,-0.99,0.21
0.37,-0.97,0.22
0.38,-0.95,0.22
0.38,-0.94,0.21
0.38,-0.94,0.2
0.39,-0.93,0.17
0.38,-0.92,0.17
0.36,-0.92,0.17
0.35,-0.92,0.16
0.35,-0.92,0.15
0.36,-0.93,0.16
0.38,-0.93,0.17
0.39,-0.92,0.17
0.4,-0.91,0.16
0.4,-0.91,0.14
0.39,-0.9,0.13
0.39,-0.9,0.11
0.39,-0.9,0.12
0.38,-0.91,0.13
0.36,-0.91,0.14
0.34,-0.91,0.16
0.32,-0.91,0.16
0.31,-0.91,0.15
0.31,-0.92,0.14
0.31,-0.93,0.14
0.31,-0.93,0.14
0.31,-0.93,0.15
0.33,-0.93,0.15
0.35,-0.93,0.15
0.36,-0.93,0.15
0.37,-0.93,0.14
0.38,-0.94,0.14
0.39,-0.94,0.14
0.39,-0.95,0.14
0.39,-0.95,0.14
0.39,-0.96,0.13
0.39,-0.97,0.13
0.38,-0.98,0.14
0.38,-0.99,0.15
0.38,-1.01,0.16
0.38,-1.01,0.17
0.37,-1.01,0.18
0.37,-1,0.18
0.38,-0.99,0.19
0.38,-0.97,0.19
0.38,-0.95,0.19
0.38,-0.94,0.19
0.37,-0.94,0.17
0.37,-0.94,0.15
0.36,-0.94,0.15
0.36,-0.94,0.15
0.35,-0.94,0.15
0.34,-0.94,0.15
0.34,-0.93,0.16
0.34,-0.93,0.16
0.34,-0.93,0.16
0.34,-0.93,0.15
0.36,-0.92,0.15
0.37,-0.91,0.15
0.37,-0.91,0.14
0.36,-0.9,0.14
0.34,-0.9,0.14
0.34,-0.9,0.14
0.33,-0.91,0.14
0.33,-0.92,0.14
0.33,-0.93,0.14
0.32,-0.94,0.14
0.33,-0.94,0.14
0.34,-0.95,0.14
0.35,-0.95,0.14
0.36,-0.95,0.14
0.36,-0.95,0.14
0.36,-0.95,0.14
0.36,-0.95,0.14
0.36,-0.95,0.14
0.35,-0.96,0.13
0.35,-0.96,0.14
0.34,-0.96,0.14
0.34,-0.97,0.15
0.32,-0.98,0.16
0.31,-0.99,0.17
0.32,-0.99,0.18
0.32,-0.99,0.19
0.33,-0.99,0.19
0.35,-0.98,0.2
0.35,-0.98,0.2
0.36,-0.97,0.2
0.36,-0.96,0.19
0.36,-0.96,0.19
0.36,-0.95,0.19
0.37,-0.95,0.18
0.37,-0.94,0.17
0.37,-0.94,0.17
0.37,-0.93,0.16
0.37,-0.93,0.16
0.37,-0.93,0.15
0.36,-0.92,0.15
0.37,-0.92,0.14
0.37,-0.92,0.14
0.36,-0.91,0.14
0.36,-0.91,0.14
0.36,-0.91,0.14
0.36,-0.91,0.14
0.35,-0.92,0.14
0.34,-0.92,0.14
0.34,-0.93,0.14
0.33,-0.94,0.14
0.33,-0.95,0.14
0.33,-0.95,0.14
0.32,-0.96,0.15
0.31,-0.96,0.15
0.3,-0.96,0.15
0.3,-0.96,0.15
0.3,-0.95,0.15
0.3,-0.95,0.15
0.31,-0.95,0.15
0.31,-0.95,0.15
0.31,-0.95,0.15
0.32,-0.94,0.15
0.32,-0.94,0.15
0.32,-0.94,0.15
0.33,-0.93,0.15
0.34,-0.93,0.15
0.34,-0.94,0.15
0.34,-0.94,0.15
0.35,-0.94,0.15
0.35,-0.94,0.15
0.36,-0.94,0.14
0.37,-0.94,0.14
0.38,-0.94,0.14
0.41,-0.93,0.14
0.44,-0.92,0.15
0.49,-0.94,0.18
0.54,-0.95,0.24
0.57,-0.94,0.32
0.57,-0.94,0.55
0.63,-0.96,0.66
0.66,-0.99,0.72
0.71,-1.02,0.73
0.8,-1.02,0.79
0.93,-1.02,0.9
1.01,-1.05,1.02
0.99,-1.07,1.07
0.94,-1.08,1.11
0.87,-1.1,1.15
0.84,-1.13,1.16
0.85,-1.17,1.19
0.89,-1.21,1.22
0.93,-1.23,1.23
0.96,-1.25,1.22
0.99,-1.28,1.17
1.03,-1.31,1.11
1.07,-1.35,1.07
1.11,-1.37,1.03
1.13,-1.39,1.01
1.11,-1.41,1
1.07,-1.41,0.98
1,-1.38,0.96
0.96,-1.33,0.95
0.93,-1.28,0.93
0.92,-1.23,0.89
0.9,-1.18,0.85
0.86,-1.07,0.83
0.83,-1.02,0.8
0.8,-0.96,0.76
0.76,-0.91,0.74
0.73,-0.84,0.73
0.7,-0.77,0.7
0.65,-0.73,0.66
0.62,-0.66,0.61
0.63,-0.6,0.57
0.59,-0.57,0.55
0.58,-0.48,0.5
0.54,-0.42,0.45
0.5,-0.38,0.45
0.45,-0.37,0.43
0.41,-0.36,0.38
0.42,-0.27,0.37
0.38,-0.18,0.34
0.33,-0.18,0.32
0.31,-0.16,0.32
0.26,-0.1,0.28
0.29,0.04,0.23
0.27,0.09,0.21
0.18,-0.04,0.2
0.17,0.01,0.21
0.14,0.13,0.2
0.11,0.19,0.21
0.03,0.11,0.18
0.03,0.21,0.16
-0.01,0.25,0.18
-0.03,0.21,0.18
-0.04,0.21,0.15
-0.06,0.29,0.15
-0.06,0.3,0.14
-0.06,0.29,0.12
-0.08,0.3,0.1
-0.06,0.31,0.08
-0.05,0.31,0.06
-0.05,0.31,0.05
-0.03,0.33,0.04
-0.03,0.34,0.03
-0.03,0.34,0.02
-0.03,0.35,0.03
-0.02,0.36,0.04
-0.02,0.36,0.04
-0.02,0.34,0.03
-0.02,0.31,0.01
-0.02,0.27,-0.01
-0.03,0.24,-0.03
-0.04,0.22,-0.02
-0.02,0.23,0
0.01,0.25,0.02
0.04,0.24,0.04
0.07,0.16,0.06
0.14,0.09,0.03
0.19,0.01,0
0.27,-0.07,-0.01
0.36,-0.15,-0.01
0.41,-0.22,0.05
0.45,-0.28,0.16
0.49,-0.36,0.24
0.53,-0.44,0.28
0.57,-0.52,0.29
0.57,-0.62,0.29
0.6,-0.71,0.26
0.67,-0.8,0.23
0.72,-0.86,0.27
0.76,-0.91,0.33
0.81,-0.98,0.39
0.86,-1.06,0.43
0.86,-1.14,0.46
0.84,-1.25,0.52
0.81,-1.44,0.61
0.8,-1.59,0.71
0.85,-1.62,0.78
0.89,-1.68,0.78
0.92,-1.76,0.73
0.94,-1.81,0.66
0.93,-1.91,0.62
0.93,-2.09,0.63
1.02,-2.08,0.86
1.01,-2.04,1.09
1,-1.99,1.08
0.91,-1.94,0.99
0.8,-1.91,0.93
0.79,-1.85,0.88
0.71,-1.82,1.23
-1.25,-2.08,2.79
-0.27,-2,3.46
3.2,-2.06,1.71
3.6,-1.64,-0.21
2.98,-0.84,-0.63
1.87,-0.99,-0.04
1.2,-0.95,0.31
1.43,-0.82,0.17
1.35,-0.83,-0.11
0.91,-0.79,-0.26
0.59,-0.79,-0.37
0.37,-0.76,-0.35
0.15,-0.71,-0.25
0.06,-0.68,-0.22
0.2,-0.73,-0.27
0.3,-0.79,-0.32
0.35,-0.84,-0.31
0.42,-0.89,-0.29
0.42,-0.92,-0.23
0.4,-0.95,-0.2
0.35,-0.96,-0.16
0.28,-0.97,-0.1
0.24,-0.98,-0.03
0.18,-0.99,0.06
0.11,-1.01,0.17
0.05,-1,0.3
0.04,-1,0.45
0.02,-1.03,0.57
-0.03,-1.08,0.63
0,-1.09,0.58
0.04,-1.07,0.45
0.06,-1.05,0.33
0.09,-1.02,0.25
0.15,-1.01,0.21
0.22,-1.01,0.17
0.29,-1.01,0.14
0.33,-0.99,0.13
0.36,-0.99,0.11
0.36,-0.98,0.1
0.36,-0.97,0.08
0.35,-0.96,0.06
0.35,-0.95,0.04
0.36,-0.93,0.02
0.36,-0.93,0
0.37,-0.95,0.01
0.39,-0.95,0.03
0.41,-0.94,0.05
0.41,-0.94,0.08
0.39,-0.94,0.1
0.38,-0.94,0.12
0.36,-0.95,0.14
0.35,-0.95,0.16
0.33,-0.94,0.17
0.32,-0.94,0.17
0.31,-0.94,0.17
0.3,-0.94,0.17
0.29,-0.95,0.16
0.28,-0.95,0.14
0.28,-0.96,0.13
0.28,-0.96,0.12
0.29,-1,0.16
0.3,-1,0.17
0.3,-0.99,0.19
0.3,-0.97,0.2
0.3,-0.96,0.2
0.31,-0.96,0.16
0.3,-0.95,0.14
0.3,-0.96,0.11
0.3,-0.96,0.09
0.3,-0.96,0.09
0.32,-0.97,0.12
0.32,-0.97,0.13
0.32,-0.96,0.13
0.32,-0.96,0.14
0.32,-0.96,0.15
0.32,-0.96,0.16
0.31,-0.96,0.17
0.3,-0.96,0.18
0.31,-0.97,0.17
0.31,-0.96,0.16
0.32,-0.96,0.14
0.32,-0.96,0.12
0.32,-0.95,0.12
0.32,-0.95,0.12
0.32,-0.95,0.12
0.32,-0.96,0.11
0.32,-0.96,0.12
0.32,-0.96,0.12
0.32,-0.96,0.13
0.33,-0.96,0.13
0.33,-0.96,0.14
0.33,-0.96,0.14
0.33,-0.96,0.13
0.33,-0.96,0.13
0.33,-0.96,0.12
0.33,-0.96,0.12
0.32,-0.95,0.12
0.32,-0.95,0.12
0.32,-0.95,0.12
0.33,-0.96,0.12
0.32,-0.96,0.12
0.32,-0.96,0.13
0.32,-0.96,0.12
0.32,-0.96,0.12
0.33,-0.96,0.13
0.33,-0.96,0.13
0.33,-0.96,0.13
0.33,-0.96,0.12
0.33,-0.96,0.12
0.32,-0.96,0.12
0.32,-0.96,0.12
0.33,-0.96,0.13
0.32,-0.96,0.13
0.32,-0.96,0.12
0.33,-0.96,0.12
0.33,-0.96,0.13
0.33,-0.96,0.13
0.32,-0.96,0.13
0.32,-0.96,0.13
0.32,-0.95,0.13
0.32,-0.95,0.13
0.32,-0.96,0.13
0.32,-0.96,0.13
0.32,-0.96,0.13
0.32,-0.96,0.13
0.32,-0.96,0.13
0.32,-0.96,0.13
0.32,-0.96,0.13
0.32,-0.96,0.13
0.32,-0.96,0.13
0.32,-0.96,0.13
0.32,-0.96,0.13
0.32,-0.96,0.13
0.32,-0.96,0.13
0.32,-0.96,0.13
0.32,-0.96,0.13
0.32,-0.96,0.13
0.32,-0.96,0.12
0.31,-0.96,0.12
0.32,-0.96,0.12
0.32,-0.96,0.13
0.32,-0.96,0.13
0.32,-0.95,0.13
0.33,-0.96,0.13
0.33,-0.96,0.13
0.32,-0.96,0.13
0.33,-0.96,0.13
0.33,-0.97,0.12
0.33,-0.96,0.13
0.33,-0.96,0.13
0.34,-0.96,0.13
0.34,-0.96,0.13
0.33,-0.96,0.13
0.33,-0.96,0.13
0.34,-0.96,0.13
0.34,-0.96,0.14
0.34,-0.96,0.14
0.34,-0.96,0.14
0.34,-0.96,0.14
0.34,-0.96,0.14
0.35,-0.96,0.14
0.34,-0.96,0.14
0.34,-0.95,0.13
0.34,-0.95,0.13
0.34,-0.94,0.12
0.33,-0.94,0.12
0.34,-0.93,0.12
0.34,-0.93,0.12
0.33,-0.93,0.12
0.33,-0.94,0.12
0.33,-0.94,0.12
0.33,-0.94,0.12
0.33,-0.94,0.12
0.33,-0.94,0.12
0.33,-0.94,0.12
0.32,-0.94,0.12
0.32,-0.94,0.12
0.32,-0.94,0.12
0.32,-0.95,0.12
0.32,-0.96,0.13
0.32,-0.96,0.13
0.32,-0.96,0.12
0.32,-0.97,0.12
0.32,-0.97,0.12
0.32,-0.98,0.12
0.33,-0.98,0.13
0.33,-0.99,0.13
0.34,-0.99,0.14
0.34,-0.99,0.14
0.34,-0.99,0.14
0.34,-0.98,0.14
0.34,-0.98,0.15
0.35,-0.97,0.15
0.35,-0.96,0.15
0.34,-0.95,0.15
0.34,-0.95,0.14
0.34,-0.94,0.14
0.34,-0.94,0.14
0.33,-0.94,0.13
0.32,-0.94,0.14
0.33,-0.95,0.13
0.34,-0.95,0.13
0.35,-0.95,0.13
0.35,-0.95,0.13
0.37,-0.95,0.13
0.37,-0.95,0.13
0.37,-0.95,0.14
0.37,-0.95,0.15
0.38,-0.95,0.14
0.38,-0.95,0.14
0.38,-0.95,0.14
0.37,-0.95,0.14
0.37,-0.95,0.14
0.36,-0.95,0.14
0.35,-0.95,0.14
0.34,-0.94,0.13
0.34,-0.94,0.13
0.33,-0.94,0.12
0.32,-0.94,0.12
0.31,-0.94,0.11
0.31,-0.94,0.11
0.3,-0.94,0.11
0.3,-0.94,0.11
0.3,-0.94,0.11
0.31,-0.94,0.11
0.31,-0.94,0.11
0.31,-0.95,0.11
0.33,-0.95,0.12
0.33,-0.95,0.12
0.33,-0.95,0.13
0.33,-0.95,0.13
0.33,-0.95,0.14
0.33,-0.94,0.14
0.33,-0.94,0.14
0.32,-0.94,0.14
0.32,-0.94,0.13
0.33,-0.94,0.13
0.33,-0.94,0.12
0.34,-0.94,0.12
0.34,-0.95,0.12
0.35,-0.96,0.12
0.36,-0.96,0.12
0.36,-0.97,0.12
0.35,-0.98,0.12
0.34,-0.98,0.12
0.33,-1,0.13
0.32,-1.01,0.14
0.33,-1.01,0.15
0.34,-1.01,0.15
0.33,-1,0.16
0.34,-0.99,0.16
0.36,-0.97,0.17
0.36,-0.96,0.17
0.36,-0.94,0.16
0.35,-0.94,0.15
0.35,-0.94,0.14
0.34,-0.94,0.15
0.34,-0.94,0.15
0.35,-0.94,0.14
0.35,-0.94,0.13
0.36,-0.95,0.13
0.37,-0.94,0.12
0.38,-0.94,0.11
0.37,-0.93,0.11
0.37,-0.93,0.11
0.38,-0.93,0.1
0.37,-0.92,0.1
0.36,-0.93,0.1
0.35,-0.93,0.11
0.33,-0.93,0.11
0.32,-0.93,0.12
0.31,-0.93,0.14
0.3,-0.93,0.15
0.3,-0.93,0.14
0.29,-0.94,0.14
0.3,-0.95,0.14
0.3,-0.95,0.13
0.31,-0.96,0.13
0.31,-0.97,0.13
0.3,-0.98,0.13
0.3,-0.99,0.13
0.3,-1,0.14
0.3,-1,0.14
0.3,-1.01,0.15
0.3,-1.01,0.16
0.3,-1,0.17
0.31,-0.99,0.16
0.33,-0.99,0.17
0.33,-0.99,0.17
0.34,-0.98,0.17
0.33,-0.96,0.17
0.33,-0.95,0.16
0.33,-0.94,0.16
0.34,-0.94,0.15
0.34,-0.93,0.15
0.34,-0.93,0.14
0.33,-0.93,0.13
0.34,-0.93,0.12
0.34,-0.92,0.11
0.34,-0.92,0.11
0.33,-0.92,0.1
0.33,-0.92,0.11
0.33,-0.92,0.11
0.32,-0.93,0.12
0.32,-0.94,0.12
0.32,-0.95,0.13
0.33,-0.94,0.13
0.34,-0.95,0.12
0.36,-0.95,0.12
0.36,-0.95,0.13
0.36,-0.96,0.13
0.37,-0.97,0.13
0.37,-0.98,0.13
0.38,-0.99,0.13
0.38,-0.99,0.13
0.38,-0.99,0.14
0.38,-0.99,0.14
0.37,-0.99,0.15
0.36,-0.98,0.15
0.35,-0.98,0.15
0.35,-0.98,0.15
0.35,-0.97,0.15
0.34,-0.97,0.15
0.34,-0.96,0.14
0.34,-0.96,0.13
0.34,-0.95,0.12
0.34,-0.95,0.11
0.34,-0.95,0.12
0.33,-0.95,0.12
0.32,-0.95,0.12
0.31,-0.96,0.12
0.3,-0.96,0.15
0.29,-0.95,0.16
0.29,-0.95,0.18
0.29,-0.95,0.19
0.3,-0.96,0.18
0.31,-0.96,0.17
0.32,-0.96,0.16
0.33,-0.96,0.15
0.32,-0.96,0.15
0.32,-0.96,0.15
0.32,-0.96,0.15
0.31,-0.96,0.14
0.31,-0.97,0.14
0.31,-0.96,0.14
0.31,-0.96,0.14
0.31,-0.97,0.14
0.3,-0.97,0.14
0.3,-0.97,0.15
0.3,-0.97,0.15
0.3,-0.97,0.15
0.3,-0.97,0.15
0.31,-0.97,0.15
0.31,-0.97,0.15
0.31,-0.97,0.15
0.31,-0.97,0.15
0.31,-0.96,0.14
0.3,-0.96,0.14
0.3,-0.96,0.14
0.3,-0.96,0.14
0.3,-0.96,0.14
0.3,-0.96,0.14
0.3,-0.96,0.14
0.3,-0.96,0.14
0.3,-0.96,0.15
0.3,-0.95,0.16
0.3,-0.94,0.16
0.3,-0.95,0.16
0.29,-0.95,0.17
0.3,-0.95,0.16
0.29,-0.95,0.16
0.28,-0.95,0.16
0.29,-0.95,0.15
0.29,-0.96,0.15
0.28,-0.96,0.16
0.29,-0.96,0.16
0.3,-0.97,0.16
0.29,-0.97,0.16
0.3,-0.97,0.16
0.3,-0.97,0.16
0.3,-0.97,0.16
0.29,-0.97,0.16
0.3,-0.97,0.16
0.3,-0.96,0.15
0.3,-0.96,0.15
0.3,-0.96,0.15
0.3,-0.96,0.15
0.31,-0.95,0.15
0.31,-0.95,0.15
0.3,-0.96,0.16
0.31,-0.96,0.16
0.31,-0.95,0.15
0.32,-0.96,0.16
0.32,-0.96,0.16
0.32,-0.95,0.16
0.32,-0.95,0.16
0.32,-0.95,0.16
0.32,-0.95,0.16
0.32,-0.96,0.16
0.32,-0.95,0.16
0.32,-0.95,0.16
0.32,-0.95,0.16
0.32,-0.95,0.16
0.32,-0.95,0.16
0.32,-0.94,0.16
0.33,-0.95,0.16
0.33,-0.95,0.16
0.33,-0.95,0.16
0.33,-0.96,0.16
0.34,-0.96,0.17
0.38,-0.94,0.21
0.42,-0.94,0.28
0.47,-0.95,0.39
0.54,-0.97,0.5
0.62,-1.01,0.56
0.69,-1.06,0.6
0.75,-1.09,0.71
0.8,-1.06,0.91
0.83,-1.01,1.05
0.84,-1.01,1.08
0.87,-1.03,1.06
0.88,-1.05,1.06
0.87,-1.09,1.09
0.92,-1.12,1.1
0.97,-1.13,1.12
0.92,-1.14,1.18
0.9,-1.18,1.21
0.89,-1.2,1.21
0.9,-1.23,1.19
0.92,-1.28,1.17
0.95,-1.34,1.15
1,-1.38,1.13
1.04,-1.41,1.1
1.05,-1.4,1.06
1.05,-1.4,1.01
1.04,-1.41,0.89
0.97,-1.42,0.84
0.93,-1.4,0.79
0.91,-1.37,0.72
0.9,-1.32,0.67
0.88,-1.26,0.62
0.84,-1.2,0.56
0.8,-1.16,0.53
0.76,-1.12,0.5
0.72,-1.06,0.49
0.68,-1,0.45
0.64,-0.96,0.39
0.59,-0.91,0.35
0.55,-0.83,0.34
0.51,-0.76,0.33
0.46,-0.7,0.33
0.46,-0.64,0.31
0.43,-0.59,0.32
0.36,-0.54,0.35
0.36,-0.46,0.33
0.37,-0.39,0.3
0.33,-0.37,0.29
0.31,-0.3,0.24
0.32,-0.17,0.25
0.3,-0.07,0.25
0.22,-0.09,0.22
0.18,-0.02,0.23
0.11,0.04,0.22
0.09,0.12,0.2
0.11,0.19,0.23
0.07,0.2,0.26
0.08,0.24,0.27
0.07,0.3,0.29
0.02,0.28,0.32
0,0.28,0.31
0.03,0.31,0.32
0.06,0.37,0.34
0.09,0.36,0.36
0.1,0.33,0.42
0.09,0.32,0.45
0.09,0.32,0.46
0.09,0.34,0.49
0.08,0.38,0.51
0.06,0.38,0.54
0.06,0.34,0.55
0.04,0.35,0.56
0.05,0.35,0.56
0.05,0.3,0.55
0.06,0.29,0.54
0.08,0.3,0.54
0.09,0.3,0.54
0.09,0.3,0.55
0.1,0.31,0.55
0.11,0.3,0.54
0.11,0.3,0.52
0.1,0.28,0.5
0.08,0.27,0.5
0.07,0.24,0.5
0.07,0.22,0.48
0.07,0.19,0.44
0.08,0.16,0.37
0.1,0.14,0.31
0.12,0.12,0.29
0.15,0.11,0.3
0.18,0.08,0.32
0.21,0.05,0.35
0.21,0.02,0.38
0.2,-0.02,0.41
0.19,-0.06,0.43
0.2,-0.11,0.39
0.22,-0.14,0.32
0.24,-0.17,0.26
0.26,-0.21,0.22
0.32,-0.24,0.21
0.4,-0.3,0.23
0.46,-0.39,0.27
0.49,-0.46,0.33
0.52,-0.5,0.41
0.53,-0.53,0.46
0.54,-0.58,0.43
0.57,-0.64,0.37
0.61,-0.72,0.31
0.66,-0.82,0.27
0.71,-0.91,0.3
0.75,-0.96,0.42
0.82,-1,0.56
0.9,-1.03,0.62
0.94,-1.09,0.64
0.93,-1.17,0.65
0.91,-1.25,0.65
0.91,-1.33,0.62
0.91,-1.41,0.56
0.93,-1.47,0.54
0.98,-1.5,0.59
1.05,-1.51,0.66
1.09,-1.56,0.73
1.1,-1.6,0.78
1.09,-1.59,0.79
1.07,-1.57,0.76
1.03,-1.57,0.74
1.01,-1.52,0.75
0.99,-1.45,0.77
0.95,-1.44,0.78
0.94,-1.44,0.76
0.96,-1.44,0.75
0.39,-1.14,3.5
0.57,-1.79,2.94
2.84,-1.84,1.17
2.82,-0.93,0.23
1.76,-0.72,-0.07
1.38,-1.03,-0.14
1.41,-0.84,0.02
1.29,-0.63,0.09
1.15,-0.69,0.02
0.98,-0.78,-0.14
0.65,-0.78,-0.28
0.49,-0.75,-0.37
0.48,-0.72,-0.42
0.33,-0.79,-0.42
0.18,-0.86,-0.38
0.12,-0.87,-0.33
0.14,-0.87,-0.29
0.22,-0.88,-0.26
0.28,-0.9,-0.23
0.32,-0.9,-0.2
0.32,-0.9,-0.17
0.3,-0.9,-0.13
0.3,-0.9,-0.1
0.29,-0.9,-0.08
0.29,-0.91,-0.07
0.3,-0.92,-0.07
0.33,-0.98,-0.08
0.4,-1.01,-0.08
0.48,-1.02,-0.06
0.53,-1.04,0.1
0.45,-1.08,0.57
0.37,-1.09,0.94
0.26,-1.07,0.97
0.06,-1.06,0.82
-0.08,-1.03,0.57
-0.11,-0.99,0.37
-0.01,-0.99,0.26
0.12,-1.02,0.21
0.22,-1.02,0.19
0.29,-0.98,0.17
0.33,-0.96,0.16
0.36,-0.96,0.13
0.38,-0.96,0.08
0.37,-0.94,0.04
0.36,-0.92,0.02
0.37,-0.91,0
0.36,-0.91,-0.01
0.35,-0.89,0.01
0.34,-0.88,0.02
0.33,-0.88,0.04
0.33,-0.89,0.05
0.35,-0.89,0.07
0.38,-0.89,0.13
0.44,-0.91,0.16
0.46,-0.92,0.18
0.47,-0.92,0.19
0.48,-0.94,0.19
0.5,-0.95,0.18
0.51,-0.95,0.16
0.52,-0.95,0.16
0.54,-0.94,0.16
0.54,-0.93,0.16
0.54,-0.92,0.15
0.51,-0.92,0.14
0.46,-0.91,0.13
0.44,-0.9,0.12
0.42,-0.9,0.12
0.4,-0.9,0.12
0.37,-0.91,0.12
0.36,-0.91,0.12
0.35,-0.91,0.12
0.34,-0.92,0.12
0.33,-0.92,0.12
0.33,-0.93,0.11
0.33,-0.93,0.11
0.33,-0.94,0.1
0.33,-0.96,0.09
0.33,-0.98,0.09
0.32,-0.99,0.1
0.31,-1,0.11
0.32,-1,0.12
0.32,-1,0.13
0.33,-1,0.15
0.34,-0.98,0.16
0.34,-0.97,0.18
0.34,-0.96,0.18
0.34,-0.95,0.18
0.34,-0.94,0.17
0.34,-0.94,0.16
0.33,-0.94,0.17
0.33,-0.95,0.17
0.34,-0.95,0.17
0.34,-0.95,0.16
0.34,-0.95,0.14
0.35,-0.95,0.13
0.35,-0.94,0.14
0.36,-0.93,0.14
0.36,-0.93,0.14
0.37,-0.93,0.13
0.37,-0.92,0.12
0.36,-0.92,0.12
0.36,-0.93,0.11
0.36,-0.93,0.11
0.36,-0.93,0.12
0.35,-0.93,0.11
0.35,-0.93,0.12
0.35,-0.93,0.12
0.35,-0.94,0.12
0.35,-0.94,0.11
0.35,-0.94,0.11
0.35,-0.95,0.11
0.35,-0.96,0.11
0.36,-0.97,0.11
0.36,-0.98,0.13
0.36,-0.99,0.14
0.35,-0.99,0.14
0.34,-0.98,0.15
0.34,-0.98,0.16
0.34,-0.99,0.15
0.34,-0.99,0.15
0.34,-0.98,0.15
0.34,-0.97,0.15
0.34,-0.96,0.15
0.34,-0.96,0.16
0.34,-0.96,0.17
0.35,-0.96,0.16
0.35,-0.96,0.16
0.35,-0.96,0.16
0.35,-0.95,0.15
0.35,-0.95,0.14
0.35,-0.94,0.12
0.36,-0.92,0.1
0.36,-0.92,0.1
0.35,-0.92,0.1
0.34,-0.92,0.11
0.34,-0.92,0.11
0.34,-0.92,0.12
0.34,-0.92,0.12
0.33,-0.93,0.12
0.33,-0.94,0.13
0.34,-0.94,0.13
0.33,-0.94,0.14
0.33,-0.95,0.14
0.32,-0.96,0.13
0.32,-0.97,0.13
0.32,-0.98,0.12
0.32,-0.99,0.12
0.32,-1,0.12
0.32,-1,0.12
0.33,-1.01,0.13
0.33,-1.01,0.14
0.33,-1,0.14
0.34,-0.99,0.14
0.35,-0.98,0.15
0.36,-0.97,0.15
0.36,-0.96,0.15
0.37,-0.95,0.15
0.37,-0.94,0.15
0.36,-0.93,0.15
0.36,-0.93,0.14
0.36,-0.93,0.14
0.35,-0.93,0.13
0.35,-0.93,0.14
0.35,-0.93,0.14
0.36,-0.93,0.13
0.37,-0.93,0.13
0.36,-0.93,0.13
0.36,-0.93,0.13
0.37,-0.93,0.12
0.37,-0.94,0.12
0.38,-0.94,0.12
0.37,-0.95,0.12
0.37,-0.95,0.12
0.37,-0.95,0.13
0.37,-0.94,0.13
0.36,-0.94,0.13
0.35,-0.93,0.12
0.33,-0.93,0.12
0.32,-0.92,0.11
0.32,-0.93,0.1
0.29,-0.96,0.16
0.28,-0.96,0.16
0.29,-0.92,0.1
0.29,-0.93,0.11
0.3,-0.92,0.12
0.3,-0.93,0.11
0.31,-0.95,0.11
0.32,-0.96,0.11
0.31,-0.98,0.1
0.31,-1.01,0.09
0.31,-1.02,0.09
0.3,-1.04,0.1
0.3,-1.06,0.11
0.31,-1.06,0.12
0.32,-1.06,0.14
0.33,-1.05,0.15
0.33,-1.03,0.16
0.34,-1,0.16
0.35,-0.97,0.15
0.37,-0.95,0.16
0.37,-0.94,0.17
0.37,-0.94,0.16
0.36,-0.94,0.16
0.35,-0.93,0.16
0.34,-0.94,0.15
0.33,-0.94,0.14
0.33,-0.94,0.13
0.32,-0.93,0.12
0.33,-0.93,0.11
0.34,-0.92,0.09
0.34,-0.92,0.09
0.34,-0.91,0.09
0.34,-0.91,0.09
0.34,-0.91,0.09
0.34,-0.92,0.09
0.34,-0.91,0.09
0.34,-0.91,0.1
0.34,-0.92,0.1
0.34,-0.92,0.11
0.33,-0.92,0.11
0.33,-0.92,0.12
0.33,-0.92,0.12
0.33,-0.92,0.12
0.33,-0.92,0.11
0.34,-0.93,0.1
0.35,-0.95,0.09
0.34,-0.97,0.09
0.33,-0.99,0.08
0.33,-1.01,0.08
0.32,-1.02,0.08
0.31,-1.05,0.08
0.31,-1.07,0.09
0.32,-1.07,0.11
0.32,-1.07,0.13
0.32,-1.05,0.15
0.34,-0.99,0.14
0.37,-0.96,0.15
0.38,-0.94,0.15
0.37,-0.93,0.15
0.38,-0.93,0.15
0.37,-0.92,0.14
0.36,-0.92,0.14
0.35,-0.92,0.14
0.35,-0.92,0.13
0.34,-0.93,0.12
0.35,-0.94,0.12
0.35,-0.93,0.11
0.35,-0.92,0.1
0.37,-0.91,0.09
0.38,-0.92,0.08
0.39,-0.92,0.08
0.39,-0.92,0.08
0.39,-0.92,0.09
0.39,-0.93,0.09
0.39,-0.94,0.1
0.39,-0.95,0.1
0.41,-0.95,0.07
0.44,-0.94,0.06
0.46,-0.94,0.1
0.47,-0.96,0.16
0.51,-0.97,0.23
0.56,-0.96,0.36
0.6,-0.94,0.41
0.62,-0.91,0.4
0.71,-0.89,0.42
0.87,-0.91,0.5
0.98,-0.96,0.61
0.98,-0.99,0.72
0.94,-1.02,0.77
0.86,-1.06,0.77
0.82,-1.07,0.75
0.76,-1.1,0.74
0.71,-1.12,0.78
0.73,-1.15,0.83
0.73,-1.21,0.88
0.76,-1.24,0.94
0.79,-1.26,1
0.83,-1.26,1.02
0.83,-1.24,1.02
0.81,-1.23,1.01
0.79,-1.22,1
0.78,-1.22,1
0.78,-1.22,1.01
0.78,-1.21,1
0.77,-1.2,0.98
0.76,-1.19,0.95
0.76,-1.18,0.93
0.76,-1.16,0.87
0.78,-1.14,0.85
0.81,-1.12,0.81
0.82,-1.09,0.8
0.8,-1.05,0.82
0.78,-1.01,0.84
0.76,-0.97,0.83
0.73,-0.92,0.82
0.71,-0.88,0.8
0.69,-0.84,0.78
0.67,-0.8,0.77
0.66,-0.75,0.77
0.64,-0.71,0.75
0.63,-0.67,0.73
0.61,-0.63,0.72
0.57,-0.6,0.69
0.53,-0.57,0.66
0.49,-0.52,0.63
0.48,-0.49,0.61
0.46,-0.46,0.61
0.41,-0.44,0.59
0.38,-0.4,0.56
0.36,-0.36,0.53
0.36,-0.29,0.5
0.34,-0.24,0.48
0.27,-0.22,0.46
0.26,-0.2,0.37
0.25,-0.11,0.32
0.26,-0.02,0.31
0.21,0.04,0.28
0.14,-0.01,0.26
0.1,0.02,0.26
0.09,0.07,0.23
0.1,0.07,0.21
0.06,0.11,0.2
0.02,0.17,0.19
0.01,0.18,0.18
0,0.22,0.18
-0.01,0.28,0.18
-0.04,0.29,0.18
-0.05,0.34,0.18
-0.03,0.38,0.18
-0.04,0.39,0.16
-0.06,0.37,0.15
-0.06,0.35,0.13
-0.07,0.34,0.12
-0.07,0.34,0.11
-0.06,0.35,0.12
-0.06,0.36,0.13
-0.06,0.36,0.13
-0.06,0.35,0.13
-0.06,0.33,0.14
-0.06,0.3,0.12
-0.04,0.26,0.12
-0.02,0.24,0.12
0,0.22,0.12
0.01,0.2,0.13
0.02,0.16,0.14
0.04,0.12,0.16
0.06,0.1,0.18
0.09,0.08,0.21
0.13,0.05,0.21
0.16,0.01,0.17
0.17,-0.04,0.13
0.21,-0.1,0.1
0.3,-0.17,0.1
0.4,-0.24,0.13
0.48,-0.29,0.16
0.53,-0.32,0.17
0.57,-0.39,0.18
0.59,-0.48,0.19
0.6,-0.57,0.22
0.57,-0.66,0.3
0.57,-0.74,0.38
0.62,-0.81,0.4
0.72,-0.84,0.38
0.75,-0.92,0.38
0.77,-1.02,0.41
0.84,-1.09,0.4
0.9,-1.32,0.46
0.91,-1.39,0.5
0.87,-1.49,0.58
0.87,-1.56,0.65
0.88,-1.65,0.7
0.88,-1.76,0.73
0.92,-1.81,0.74
0.97,-1.86,0.74
1.05,-1.93,0.7
1.07,-1.98,0.67
1.06,-1.99,0.67
1.07,-1.98,0.67
1.06,-1.97,0.68
1.09,-1.91,0.74
1.12,-1.82,0.82
1.16,-1.85,0.85
-0.67,-2.46,2.41
-0.81,-1.71,3.99
2.41,-1.63,2.37
3.71,-1.78,-0.1
3.08,-0.6,-0.74
1.91,-0.86,-0.16
1.41,-1.06,0.27
1.58,-0.86,0.18
1.44,-0.83,-0.06
1.17,-0.82,-0.19
0.8,-0.79,-0.38
0.49,-0.69,-0.39
0.3,-0.72,-0.34
0.23,-0.76,-0.26
0.24,-0.77,-0.22
0.26,-0.79,-0.2
0.3,-0.83,-0.18
0.35,-0.86,-0.18
0.38,-0.89,-0.18
0.39,-0.9,-0.16
0.39,-0.9,-0.14
0.37,-0.9,-0.13
0.36,-0.89,-0.12
0.34,-0.89,-0.11
0.33,-0.89,-0.1
0.32,-0.89,-0.09
0.32,-0.9,-0.09
0.35,-0.92,-0.09
0.39,-0.94,-0.09
0.39,-0.95,-0.07
0.38,-0.97,-0.03
0.37,-1,0.07
0.29,-1.04,0.27
0.19,-1.05,0.51
0.18,-1.06,0.68
0.16,-1.06,0.72
0.11,-1.06,0.56
0.1,-1.01,0.44
0.12,-0.98,0.34
0.19,-0.97,0.29
0.21,-0.94,0.28
0.25,-0.97,0.26
0.31,-1.01,0.2
0.33,-0.99,0.16
0.34,-0.97,0.15
0.35,-0.95,0.14
0.35,-0.94,0.1
0.35,-0.93,0.06
0.35,-0.93,0.03
0.35,-0.92,0.02
0.35,-0.92,0.01
0.34,-0.92,0.02
0.34,-0.92,0.04
0.35,-0.92,0.06
0.36,-0.92,0.08
0.38,-0.91,0.1
0.4,-0.9,0.11
0.42,-0.9,0.11
0.44,-0.91,0.12
0.47,-0.91,0.13
0.5,-0.93,0.14
0.51,-0.93,0.15
0.51,-0.92,0.17
0.49,-0.92,0.17
0.47,-0.91,0.16
0.45,-0.92,0.15
0.43,-0.92,0.15
0.42,-0.91,0.15
0.41,-0.92,0.15
0.4,-0.92,0.13
0.4,-0.93,0.11
0.4,-0.94,0.1
0.4,-0.94,0.1
0.39,-0.94,0.1
0.39,-0.94,0.09
0.4,-0.94,0.07
0.4,-0.93,0.06
0.41,-0.92,0.05
0.41,-0.91,0.05
0.41,-0.89,0.04
0.41,-0.89,0.03
0.41,-0.88,0.02
0.41,-0.86,0.02
0.41,-0.84,0.02
0.42,-0.83,0.02
0.44,-0.83,0.01
0.47,-0.82,-0.01
0.48,-0.83,-0.01
0.49,-0.84,-0.02
0.49,-0.88,-0.02
0.5,-0.9,-0.03
0.52,-0.92,-0.04
0.54,-0.93,-0.05
0.54,-0.94,-0.05
0.54,-0.94,-0.04
0.55,-0.93,-0.03
0.54,-0.93,-0.02
0.55,-0.92,-0.01
0.56,-0.92,-0.01
0.56,-0.91,0
0.55,-0.91,0.01
0.54,-0.9,0.02
0.52,-0.89,0.03
0.51,-0.89,0.03
0.5,-0.89,0.02
0.48,-0.89,0.02
0.47,-0.9,0.02
0.46,-0.9,0.03
0.45,-0.9,0.04
0.44,-0.91,0.04
0.43,-0.93,0.04
0.43,-0.94,0.04
0.42,-0.95,0.04
0.42,-0.96,0.04
0.41,-0.96,0.03
0.41,-0.97,0.03
0.41,-0.98,0.03
0.41,-0.99,0.03
0.41,-0.98,0.02
0.42,-0.98,0.02
0.42,-0.97,0.02
0.41,-0.97,0.02
0.4,-0.97,0.02
0.4,-0.96,0.03
0.39,-0.96,0.03
0.39,-0.95,0.03
0.39,-0.95,0.03
0.4,-0.94,0.03
0.4,-0.93,0.02
0.39,-0.92,0.02
0.39,-0.92,0.02
0.38,-0.92,0.01
0.36,-0.94,0.01
0.35,-0.96,0.01
0.34,-0.97,0.02
0.33,-0.99,0.02
0.32,-1.01,0.02
0.31,-1.05,0.01
0.31,-1.07,0
0.31,-1.07,-0.02
0.3,-1.07,-0.03
0.3,-1.06,-0.03
0.29,-1.07,-0.02
0.28,-1.1,-0.02
0.26,-1.16,-0.03
0.24,-1.21,-0.04
0.22,-1.25,-0.05
0.21,-1.29,-0.07
0.2,-1.3,-0.08
0.18,-1.26,-0.1
0.17,-1.18,-0.1
0.16,-1.1,-0.09
0.16,-1.03,-0.06
0.21,-0.96,-0.02
0.26,-0.9,0.03
0.28,-0.88,0.08
0.29,-0.86,0.12
0.28,-0.85,0.15
0.29,-0.85,0.16
0.27,-0.87,0.15
0.19,-0.92,0.13
0.1,-0.97,0.1
0.04,-1.02,0.06
0,-1.06,0.03
-0.01,-1.1,0.02
-0.02,-1.13,0.02
0,-1.15,0.07
0.04,-1.17,0.1
0.06,-1.16,0.12
0.08,-1.14,0.14
0.1,-1.11,0.14
0.14,-1.07,0.14
0.17,-1.04,0.14
0.19,-1.01,0.14
0.2,-0.98,0.15
0.21,-0.96,0.16
0.22,-0.94,0.17
0.23,-0.92,0.18
0.24,-0.9,0.2
0.25,-0.88,0.21
0.25,-0.88,0.22
0.26,-0.88,0.22
0.26,-0.88,0.22
0.25,-0.88,0.23
0.26,-0.87,0.22
0.25,-0.85,0.21
0.24,-0.84,0.21
0.25,-0.83,0.21
0.27,-0.83,0.24
0.3,-0.83,0.27
0.32,-0.83,0.3
0.33,-0.83,0.31
0.34,-0.81,0.31
0.32,-0.8,0.3
0.32,-0.79,0.29
0.32,-0.78,0.28
0.32,-0.77,0.29
0.33,-0.74,0.29
0.34,-0.71,0.3
0.33,-0.69,0.3
0.31,-0.68,0.32
0.3,-0.69,0.34
0.3,-0.72,0.35
0.3,-0.76,0.36
0.31,-0.81,0.38
0.33,-0.85,0.4
0.34,-0.88,0.41
0.35,-0.9,0.41
0.36,-0.91,0.41
0.37,-0.92,0.42
0.36,-0.92,0.44
0.34,-0.9,0.46
0.32,-0.89,0.49
0.3,-0.86,0.52
0.29,-0.84,0.55
0.28,-0.84,0.54
0.26,-0.85,0.48
0.26,-0.87,0.43
0.27,-0.87,0.42
0.26,-0.86,0.4
0.2,-0.86,0.38
0.17,-0.85,0.37
0.16,-0.86,0.36
0.16,-0.88,0.33
0.14,-0.91,0.3
0.14,-0.94,0.27
0.13,-0.96,0.25
0.11,-0.99,0.22
0.11,-1.01,0.18
0.1,-1.02,0.14
0.08,-1.01,0.12
0.08,-1.01,0.11
0.07,-1.03,0.09
0.04,-1.07,0.03
0.02,-1.13,-0.05
-0.01,-1.18,-0.11
-0.04,-1.17,-0.16
-0.06,-1.16,-0.18
-0.09,-1.15,-0.19
-0.09,-1.1,-0.22
-0.08,-1.06,-0.25
-0.06,-1.08,-0.27
-0.07,-1.02,-0.26
-0.08,-0.98,-0.23
-0.02,-1.03,-0.26
0.02,-1.02,-0.21
0.09,-1.03,-0.17
0.11,-1.03,-0.13
0.12,-1.03,-0.07
0.12,-1.04,-0.03
0.11,-1.05,0.01
0.1,-1.05,0.04
0.11,-1.03,0.06
0.13,-1.01,0.07
0.14,-1,0.09
0.14,-1,0.12
0.15,-0.99,0.14
0.15,-0.97,0.17
0.14,-0.95,0.19
0.12,-0.94,0.17
0.12,-0.94,0.2
0.09,-0.93,0.27
-0.07,-0.88,-0.06
-0.05,-1.04,-0.1
0.36,-1.2,0.3
0.64,-1.26,0.43
0.71,-1.42,0.56
0.72,-1.49,0.68
0.67,-1.55,0.74
0.6,-1.58,0.7
0.42,-1.48,0.54
0.17,-1.16,0.22
0.11,-1.03,0.17
