Acc_x,Acc_y,Acc_z
0.12,0.28,0.79
0.17,0.32,0.78
0.17,0.36,0.8
0.11,0.34,0.83
0.09,0.33,0.84
0.09,0.35,0.84
0.09,0.37,0.83
0.1,0.39,0.82
0.1,0.41,0.81
0.11,0.42,0.8
0.14,0.43,0.8
0.14,0.44,0.82
0.12,0.44,0.85
0.11,0.44,0.89
0.11,0.45,0.9
0.11,0.45,0.9
0.1,0.46,0.89
0.09,0.45,0.88
0.08,0.44,0.87
0.07,0.44,0.86
0.08,0.43,0.87
0.08,0.43,0.88
0.08,0.43,0.89
0.07,0.43,0.89
0.06,0.42,0.9
0.05,0.42,0.94
0.01,0.39,0.96
0.01,0.4,0.98
0.03,0.4,0.98
0.05,0.4,0.97
0.06,0.4,0.97
0.07,0.39,0.97
0.09,0.38,0.96
0.09,0.37,0.97
0.1,0.35,0.99
0.12,0.33,1.01
0.13,0.31,1.01
0.14,0.31,1.01
0.16,0.31,0.99
0.19,0.3,0.98
0.23,0.31,0.97
0.28,0.3,0.98
0.31,0.28,0.99
0.33,0.27,1
0.35,0.27,1.01
0.36,0.28,1.01
0.37,0.28,1
0.39,0.29,1
0.41,0.29,0.99
0.43,0.29,1
0.48,0.28,1
0.53,0.28,1.03
0.59,0.25,1.03
0.59,0.23,1.02
0.6,0.22,1
0.61,0.2,0.97
0.63,0.19,0.96
0.66,0.18,0.96
0.69,0.16,0.98
0.74,0.13,1.02
0.8,0.08,1.07
0.81,0.05,1.1
0.79,0.02,1.08
0.77,-0.02,1.02
0.74,-0.05,0.93
0.74,-0.08,0.85
0.75,-0.11,0.8
0.76,-0.11,0.78
0.76,-0.11,0.81
0.79,-0.14,0.86
0.81,-0.16,0.89
0.82,-0.19,0.9
0.83,-0.23,0.9
0.8,-0.24,0.86
0.74,-0.25,0.79
0.69,-0.26,0.71
0.69,-0.27,0.65
0.72,-0.26,0.62
0.74,-0.25,0.63
0.76,-0.25,0.66
0.78,-0.26,0.68
0.78,-0.26,0.69
0.75,-0.23,0.66
0.7,-0.21,0.61
0.66,-0.19,0.55
0.65,-0.17,0.49
0.65,-0.14,0.47
0.65,-0.1,0.47
0.64,-0.08,0.46
0.63,-0.07,0.47
0.65,-0.07,0.47
0.66,-0.08,0.48
0.66,-0.07,0.48
0.66,-0.08,0.46
0.67,-0.09,0.45
0.66,-0.1,0.44
0.66,-0.11,0.43
0.67,-0.12,0.43
0.69,-0.13,0.44
0.71,-0.14,0.46
0.74,-0.17,0.49
0.78,-0.19,0.51
0.8,-0.21,0.53
0.8,-0.23,0.53
0.77,-0.25,0.52
0.79,-0.26,0.52
0.81,-0.27,0.53
0.81,-0.28,0.53
0.81,-0.28,0.53
0.83,-0.29,0.54
0.85,-0.3,0.56
0.86,-0.32,0.58
0.87,-0.33,0.59
0.86,-0.33,0.6
0.84,-0.34,0.59
0.82,-0.34,0.58
0.82,-0.33,0.58
0.82,-0.32,0.59
0.82,-0.3,0.59
0.83,-0.29,0.6
0.82,-0.28,0.6
0.82,-0.26,0.6
0.82,-0.25,0.61
0.81,-0.24,0.62
0.81,-0.23,0.63
0.8,-0.23,0.64
0.79,-0.21,0.64
0.78,-0.2,0.63
0.77,-0.19,0.62
0.75,-0.17,0.61
0.75,-0.13,0.61
0.76,-0.12,0.63
0.76,-0.12,0.64
0.76,-0.11,0.65
0.75,-0.12,0.65
0.73,-0.12,0.65
0.72,-0.13,0.64
0.71,-0.12,0.63
0.69,-0.09,0.61
0.68,-0.08,0.6
0.67,-0.08,0.59
0.69,-0.09,0.6
0.72,-0.09,0.62
0.74,-0.11,0.65
0.76,-0.13,0.66
0.76,-0.15,0.65
0.74,-0.15,0.63
0.74,-0.13,0.6
0.74,-0.12,0.58
0.75,-0.1,0.55
0.76,-0.09,0.55
0.75,-0.12,0.58
0.77,-0.16,0.61
0.79,-0.21,0.65
0.78,-0.28,0.67
0.75,-0.32,0.66
0.72,-0.38,0.61
0.68,-0.36,0.59
0.67,-0.37,0.57
0.66,-0.4,0.58
0.64,-0.43,0.59
0.64,-0.49,0.62
0.66,-0.55,0.66
0.66,-0.59,0.67
0.63,-0.63,0.65
0.58,-0.66,0.61
0.53,-0.71,0.58
0.5,-0.79,0.55
0.5,-0.84,0.54
0.54,-0.82,0.54
0.55,-0.84,0.54
0.54,-0.88,0.53
0.53,-0.9,0.52
0.51,-0.91,0.51
0.5,-0.89,0.5
0.51,-0.85,0.5
0.5,-0.87,0.53
0.47,-0.92,0.57
0.46,-0.94,0.59
0.47,-0.98,0.58
0.47,-0.96,0.58
0.49,-0.92,0.58
0.5,-0.9,0.53
0.59,-0.89,0.53
0.63,-0.83,0.52
0.64,-0.79,0.53
0.62,-0.79,0.53
0.6,-0.79,0.53
0.59,-0.76,0.55
0.6,-0.73,0.56
0.65,-0.73,0.57
0.7,-0.74,0.59
0.73,-0.73,0.59
0.75,-0.71,0.59
0.76,-0.72,0.59
0.78,-0.73,0.59
0.8,-0.69,0.61
0.79,-0.67,0.62
0.79,-0.68,0.63
0.8,-0.67,0.63
0.8,-0.67,0.64
0.81,-0.67,0.66
0.8,-0.65,0.69
0.79,-0.63,0.71
0.79,-0.61,0.71
0.79,-0.61,0.7
0.8,-0.59,0.68
0.81,-0.57,0.68
0.8,-0.56,0.67
0.77,-0.58,0.68
0.76,-0.57,0.68
0.75,-0.57,0.67
0.74,-0.58,0.68
0.72,-0.58,0.69
0.7,-0.58,0.7
0.7,-0.58,0.71
0.7,-0.59,0.73
0.7,-0.57,0.73
0.7,-0.55,0.7
0.7,-0.53,0.7
0.68,-0.52,0.71
0.67,-0.52,0.72
0.67,-0.51,0.72
0.67,-0.51,0.72
0.67,-0.51,0.73
0.66,-0.52,0.74
0.64,-0.51,0.75
0.64,-0.51,0.75
0.63,-0.5,0.74
0.62,-0.51,0.74
0.59,-0.52,0.74
0.55,-0.54,0.74
0.54,-0.55,0.72
0.56,-0.55,0.69
0.57,-0.57,0.69
0.53,-0.68,0.73
0.51,-0.71,0.74
0.52,-0.76,0.72
0.5,-0.83,0.72
0.47,-0.89,0.74
0.46,-0.91,0.74
0.45,-0.94,0.72
0.4,-0.99,0.74
0.35,-1.1,0.78
0.35,-1.11,0.83
0.4,-1.02,0.83
0.34,-1.16,0.83
0.32,-1.33,0.93
0.31,-1.35,0.95
0.23,-1.33,0.88
0.23,-1.28,0.84
0.2,-1.27,0.79
0.18,-1.23,0.75
0.13,-1.19,0.73
0.07,-1.12,0.75
0.05,-1.05,0.77
0.04,-0.99,0.77
0.03,-0.92,0.75
0.03,-0.85,0.73
0.02,-0.77,0.71
0,-0.72,0.66
-0.01,-0.61,0.65
-0.04,-0.56,0.64
-0.05,-0.53,0.66
-0.04,-0.5,0.68
-0.03,-0.48,0.7
-0.02,-0.47,0.69
-0.02,-0.47,0.68
-0.03,-0.47,0.68
-0.04,-0.48,0.67
-0.04,-0.49,0.66
-0.03,-0.48,0.65
-0.03,-0.47,0.64
-0.05,-0.46,0.65
-0.06,-0.46,0.67
-0.07,-0.45,0.7
-0.09,-0.45,0.75
-0.11,-0.45,0.78
-0.15,-0.45,0.81
-0.19,-0.45,0.82
-0.23,-0.44,0.81
-0.28,-0.42,0.79
-0.33,-0.39,0.78
-0.38,-0.36,0.79
-0.41,-0.32,0.81
-0.44,-0.28,0.83
-0.46,-0.25,0.84
-0.48,-0.23,0.84
-0.49,-0.24,0.85
-0.51,-0.26,0.86
-0.54,-0.28,0.87
-0.58,-0.27,0.89
-0.6,-0.24,0.87
-0.59,-0.22,0.85
-0.6,-0.22,0.86
-0.62,-0.22,0.89
-0.63,-0.21,0.94
-0.61,-0.19,0.96
-0.58,-0.18,0.96
-0.58,-0.18,0.97
-0.6,-0.18,0.97
-0.61,-0.18,0.97
-0.6,-0.18,0.95
-0.58,-0.17,0.93
-0.56,-0.16,0.91
-0.53,-0.16,0.91
-0.48,-0.15,0.92
-0.43,-0.15,0.92
-0.39,-0.15,0.92
-0.35,-0.16,0.92
-0.33,-0.16,0.92
-0.3,-0.15,0.91
-0.27,-0.14,0.88
-0.24,-0.12,0.85
-0.21,-0.12,0.83
-0.18,-0.13,0.81
-0.16,-0.15,0.82
-0.14,-0.18,0.84
-0.14,-0.23,0.83
-0.14,-0.27,0.82
-0.15,-0.31,0.8
-0.15,-0.34,0.78
-0.15,-0.36,0.78
-0.16,-0.37,0.8
-0.16,-0.35,0.85
-0.17,-0.31,0.94
-0.17,-0.29,1.03
-0.18,-0.33,1.1
-0.19,-0.38,1.1
-0.19,-0.4,1.08
-0.2,-0.4,1.07
-0.18,-0.39,1.09
-0.13,-0.39,1.13
-0.07,-0.4,1.18
-0.03,-0.38,1.24
0,-0.36,1.3
0.04,-0.37,1.32
0.08,-0.38,1.32
0.08,-0.4,1.31
0.04,-0.43,1.34
0.01,-0.44,1.38
0,-0.46,1.4
-0.02,-0.47,1.38
-0.04,-0.48,1.34
-0.05,-0.49,1.28
-0.06,-0.48,1.19
-0.05,-0.47,1.1
-0.04,-0.47,1.02
-0.02,-0.47,0.94
0.01,-0.46,0.88
0.03,-0.46,0.83
0.04,-0.46,0.8
0.05,-0.46,0.77
0.06,-0.46,0.73
0.08,-0.46,0.68
0.09,-0.46,0.63
0.09,-0.45,0.6
0.08,-0.41,0.59
0.03,-0.34,0.73
0.03,-0.34,0.73
0,-0.31,0.78
-0.02,-0.28,0.82
-0.03,-0.25,0.84
-0.04,-0.22,0.86
-0.06,-0.15,0.91
-0.09,-0.1,0.95
-0.1,-0.06,1.01
-0.07,0,1.07
-0.04,0.04,1.13
-0.06,0.04,1.17
-0.05,0.04,1.18
-0.05,0,1.19
-0.03,-0.04,1.21
-0.02,-0.07,1.25
-0.01,-0.07,1.3
0,-0.07,1.34
0,-0.08,1.36
0.01,-0.12,1.33
0.01,-0.15,1.29
0.01,-0.17,1.23
0.02,-0.18,1.19
0.02,-0.19,1.19
0.03,-0.19,1.19
0.06,-0.17,1.17
0.08,-0.15,1.13
0.08,-0.14,1.07
0.08,-0.15,1.01
0.09,-0.15,0.94
0.1,-0.14,0.87
0.11,-0.12,0.81
0.13,-0.12,0.75
0.15,-0.14,0.74
0.16,-0.16,0.73
0.17,-0.19,0.71
0.18,-0.22,0.69
0.19,-0.25,0.65
0.19,-0.28,0.63
0.17,-0.3,0.63
0.16,-0.32,0.64
0.14,-0.33,0.7
0.08,-0.32,0.82
0.05,-0.28,0.92
0.04,-0.22,1.02
0.01,-0.18,1.14
-0.01,-0.16,1.23
-0.03,-0.14,1.27
-0.07,-0.13,1.28
-0.1,-0.11,1.29
-0.14,-0.1,1.3
-0.17,-0.12,1.31
-0.19,-0.15,1.34
-0.17,-0.16,1.38
-0.13,-0.13,1.43
-0.1,-0.1,1.49
-0.07,-0.08,1.53
-0.04,-0.07,1.52
-0.04,-0.07,1.32
-0.09,-0.15,1.21
-0.09,-0.21,1.15
-0.08,-0.24,1.15
-0.02,-0.23,1.17
0.05,-0.2,1.17
0.09,-0.19,1.13
0.13,-0.2,1.06
0.15,-0.22,0.96
0.14,-0.26,0.87
0.11,-0.31,0.81
0.08,-0.32,0.78
0.07,-0.32,0.75
0.05,-0.31,0.73
0.04,-0.3,0.71
0.03,-0.29,0.71
0.02,-0.26,0.72
-0.02,-0.22,0.75
-0.08,-0.18,0.8
-0.12,-0.14,0.84
-0.18,-0.05,0.87
-0.2,0.1,0.88
-0.25,0.24,0.87
-0.27,0.31,0.88
-0.23,0.29,0.93
-0.23,0.24,0.92
-0.2,0.25,0.88
-0.11,0.27,0.91
-0.09,0.18,0.96
-0.05,0.11,1.04
-0.03,0.09,1.12
-0.01,0.06,1.18
0.01,0.03,1.2
0.05,-0.01,1.16
0.08,-0.05,1.1
0.07,-0.08,1.07
0.07,-0.09,1.04
0.08,-0.08,1.02
0.1,-0.07,1.01
0.12,-0.07,1.03
0.15,-0.07,1.07
0.16,-0.07,1.1
0.18,-0.07,1.09
0.2,-0.08,1.07
0.21,-0.11,1.04
0.21,-0.16,1.05
0.17,-0.2,1.1
0.13,-0.21,1.17
0.11,-0.17,1.18
0.08,-0.16,1.16
0.05,-0.21,1.13
0.02,-0.26,1.06
-0.02,-0.28,0.93
-0.06,-0.25,0.89
-0.06,-0.2,0.88
-0.06,-0.14,0.93
-0.08,-0.13,1.05
-0.11,-0.15,1.2
-0.11,-0.14,1.32
-0.12,-0.12,1.39
-0.16,-0.11,1.41
-0.2,-0.12,1.37
-0.23,-0.15,1.29
-0.3,-0.19,1.21
-0.4,-0.23,1.18
-0.48,-0.25,1.19
-0.54,-0.26,1.21
-0.54,-0.29,1.22
-0.47,-0.33,1.19
-0.38,-0.37,1.13
-0.29,-0.42,1.07
-0.22,-0.47,1
-0.16,-0.51,0.93
-0.11,-0.52,0.86
-0.08,-0.52,0.81
-0.06,-0.5,0.76
-0.06,-0.48,0.73
-0.06,-0.45,0.7
-0.05,-0.43,0.68
-0.08,-0.38,0.71
-0.09,-0.36,0.75
-0.09,-0.34,0.77
-0.11,-0.32,0.76
-0.15,-0.26,0.77
-0.23,-0.2,0.81
-0.29,-0.12,0.87
-0.28,0.02,0.93
-0.27,0.12,0.97
-0.19,0.19,1.03
-0.1,0.19,1.09
-0.13,0.22,1.12
-0.15,0.25,1.13
-0.12,0.2,1.14
-0.11,0.19,1.16
-0.11,0.17,1.22
-0.09,0.13,1.34
-0.05,0.08,1.47
0,0.01,1.54
0.03,-0.06,1.53
0.02,-0.12,1.46
0,-0.16,1.35
0,-0.17,1.25
0.01,-0.2,1.18
0.03,-0.24,1.14
0.07,-0.28,1.08
0.18,-0.29,1.03
0.23,-0.28,0.97
0.27,-0.27,0.9
0.31,-0.26,0.83
0.34,-0.24,0.78
0.35,-0.21,0.74
0.36,-0.19,0.7
0.34,-0.19,0.67
0.32,-0.21,0.65
0.32,-0.23,0.62
0.3,-0.23,0.61
0.26,-0.24,0.61
0.22,-0.24,0.62
0.2,-0.28,0.61
0.14,-0.27,0.61
0.15,-0.19,0.61
0.2,-0.17,0.58
0.24,-0.14,0.61
0.25,-0.12,0.69
0.2,-0.11,0.79
0.18,-0.07,0.9
0.21,-0.03,1.01
0.2,0,1.14
0.15,0.02,1.31
0.1,0,1.45
0.05,-0.04,1.5
-0.17,-0.07,1.45
-0.25,-0.1,1.43
-0.28,-0.14,1.41
-0.27,-0.22,1.39
-0.26,-0.29,1.36
-0.23,-0.34,1.35
-0.16,-0.36,1.34
-0.06,-0.36,1.31
0.02,-0.36,1.25
0.07,-0.35,1.18
0.09,-0.33,1.13
0.1,-0.33,1.09
0.11,-0.32,1.06
0.1,-0.32,1.03
0.08,-0.31,1
0.06,-0.3,0.98
0.03,-0.28,0.96
0,-0.23,0.96
-0.02,-0.17,0.97
-0.04,-0.09,0.98
-0.04,0.01,0.97
-0.03,0.12,0.94
0,0.19,0.91
0.02,0.25,0.92
0.05,0.28,0.94
0.08,0.29,0.96
0.12,0.31,1
0.01,0.31,1.06
-0.01,0.23,1.15
-0.02,0.18,1.26
-0.02,0.16,1.37
-0.02,0.12,1.46
-0.01,0.07,1.48
-0.02,0.04,1.45
-0.06,0,1.36
-0.1,-0.05,1.27
-0.1,-0.08,1.2
-0.06,-0.12,1.16
-0.02,-0.16,1.13
0.04,-0.18,1.09
0.11,-0.19,1.03
0.17,-0.18,0.97
0.22,-0.16,0.91
0.26,-0.15,0.86
0.28,-0.13,0.8
0.28,-0.11,0.74
0.29,-0.09,0.7
0.29,-0.08,0.67
0.28,-0.07,0.65
0.28,-0.05,0.62
0.26,-0.01,0.61
0.27,0,0.62
0.32,-0.04,0.63
0.37,-0.05,0.62
0.32,-0.05,0.63
0.25,-0.08,0.64
0.21,-0.08,0.65
0.22,-0.01,0.71
0.22,0.02,0.78
0.22,0.03,0.87
0.21,0.07,0.96
0.2,0.11,1.02
0.2,0.13,1.06
0.21,0.13,1.11
0.2,0.12,1.17
0.15,0.14,1.26
0.11,0.15,1.41
0.09,0.15,1.57
0.07,0.13,1.67
0.03,0.09,1.67
-0.04,0.05,1.61
-0.11,0,1.53
-0.14,-0.04,1.47
-0.14,-0.07,1.43
-0.12,-0.1,1.4
-0.09,-0.13,1.39
-0.06,-0.15,1.34
-0.02,-0.15,1.24
0.02,-0.16,1.04
0.05,-0.18,0.99
0.07,-0.2,0.94
0.09,-0.2,0.88
0.1,-0.19,0.81
0.11,-0.19,0.73
0.11,-0.18,0.67
0.11,-0.17,0.63
0.11,-0.15,0.61
0.1,-0.12,0.61
0.11,-0.09,0.62
0.1,-0.07,0.63
0.09,-0.05,0.64
0.08,-0.03,0.66
0.09,0,0.69
0.09,0.02,0.71
0.11,0,0.7
0.09,0.03,0.69
0.05,0.09,0.71
0.06,0.12,0.74
0.09,0.15,0.77
0.11,0.18,0.8
0.13,0.22,0.83
0.16,0.23,0.87
0.2,0.24,0.93
0.23,0.25,0.99
0.22,0.25,1.16
0.17,0.22,1.21
0.15,0.2,1.23
0.13,0.17,1.22
0.1,0.14,1.19
0.08,0.11,1.17
0.07,0.1,1.17
0.08,0.11,1.16
0.11,0.13,1.14
0.15,0.16,1.12
0.18,0.19,1.1
0.2,0.22,1.08
0.21,0.24,1.04
0.21,0.26,1.01
0.22,0.27,0.98
0.23,0.27,0.96
0.24,0.25,0.96
0.25,0.24,0.97
0.29,0.25,1
0.33,0.26,1.04
0.33,0.27,1.05
0.33,0.28,1.04
0.34,0.29,1.02
0.34,0.28,0.99
0.35,0.28,0.97
0.35,0.28,0.97
0.35,0.29,1
0.4,0.34,0.99
0.41,0.37,0.97
0.4,0.38,0.95
0.4,0.39,0.93
0.4,0.4,0.91
0.39,0.41,0.89
0.39,0.42,0.88
0.4,0.43,0.88
0.42,0.44,0.88
0.43,0.44,0.88
0.45,0.44,0.89
0.46,0.45,0.9
0.46,0.45,0.91
0.45,0.46,0.92
0.43,0.45,0.92
0.41,0.44,0.93
0.41,0.43,0.94
0.41,0.41,0.94
0.41,0.4,0.94
0.42,0.38,0.95
0.43,0.37,0.96
0.43,0.36,0.96
0.42,0.35,0.96
0.42,0.33,0.96
0.41,0.31,0.95
0.41,0.25,0.96
0.45,0.22,1
0.45,0.17,1.06
0.42,0.13,1.09
0.4,0.08,1.09
0.4,0.05,1.08
0.39,0.01,1.07
0.39,-0.02,1.06
0.39,-0.03,1.05
0.39,-0.05,1.05
0.39,-0.07,1.04
0.39,-0.1,1.03
0.39,-0.12,1.04
0.39,-0.13,1.03
0.38,-0.14,1.04
0.37,-0.17,1.05
0.37,-0.19,1.06
0.36,-0.22,1.06
0.34,-0.26,1.08
0.32,-0.29,1.09
0.31,-0.3,1.09
0.29,-0.31,1.09
0.27,-0.31,1.08
0.26,-0.33,1.07
0.26,-0.35,1.04
0.26,-0.36,1.02
0.28,-0.35,1.01
0.3,-0.36,0.96
0.29,-0.36,0.94
0.28,-0.36,0.94
0.28,-0.34,0.93
0.29,-0.32,0.93
0.31,-0.29,0.93
0.34,-0.25,0.93
0.35,-0.22,0.91
0.36,-0.19,0.89
0.37,-0.16,0.86
0.4,-0.12,0.83
0.43,-0.08,0.83
0.46,-0.06,0.87
0.5,-0.05,0.91
0.52,-0.05,0.94
0.54,-0.05,0.96
0.54,-0.06,0.97
0.53,-0.07,0.97
0.53,-0.09,0.97
0.55,-0.11,0.97
0.57,-0.12,0.99
0.59,-0.14,1.04
0.59,-0.17,1.06
0.58,-0.17,1.07
0.59,-0.17,1.07
0.6,-0.17,1.1
0.6,-0.17,1.17
0.58,-0.17,1.2
0.55,-0.2,1.24
0.53,-0.22,1.27
0.5,-0.23,1.3
0.49,-0.25,1.32
0.49,-0.26,1.32
0.48,-0.27,1.3
0.48,-0.28,1.3
0.48,-0.29,1.31
0.49,-0.29,1.3
0.51,-0.3,1.26
0.51,-0.31,1.21
0.52,-0.34,1.16
0.52,-0.37,1.12
0.54,-0.39,1.08
0.55,-0.42,1.04
0.56,-0.46,0.98
0.56,-0.48,0.94
0.57,-0.49,0.9
0.59,-0.5,0.87
0.59,-0.53,0.84
0.61,-0.56,0.83
0.62,-0.59,0.81
0.62,-0.61,0.8
0.64,-0.65,0.78
0.65,-0.74,0.75
0.61,-0.76,0.74
0.59,-0.79,0.73
0.57,-0.83,0.76
0.53,-0.87,0.8
0.5,-0.89,0.81
0.49,-0.9,0.8
0.48,-0.91,0.8
0.45,-0.91,0.83
0.42,-0.92,0.86
0.4,-0.95,0.87
0.38,-0.99,0.88
0.35,-1.02,0.89
0.33,-1.06,0.89
0.33,-1.08,0.89
0.32,-1.06,0.91
0.31,-1.05,0.95
0.32,-1.03,1.03
0.35,-1.01,1.11
0.38,-0.99,1.19
0.39,-0.98,1.26
0.38,-0.98,1.33
0.37,-0.97,1.37
0.36,-0.96,1.41
0.33,-0.95,1.45
0.28,-0.94,1.5
0.25,-0.85,1.55
0.28,-0.8,1.57
0.33,-0.77,1.59
0.37,-0.76,1.61
0.38,-0.76,1.59
0.38,-0.78,1.54
0.39,-0.81,1.49
0.39,-0.86,1.44
0.38,-0.9,1.38
0.38,-0.93,1.31
0.41,-0.95,1.25
0.44,-0.97,1.2
0.45,-1,1.15
0.45,-1.02,1.11
0.45,-1.02,1.05
0.43,-1.02,0.99
0.4,-1.03,0.95
0.38,-1.03,0.92
0.35,-1.01,0.9
0.32,-0.98,0.89
0.29,-0.95,0.89
0.26,-0.93,0.9
0.23,-0.92,0.91
0.2,-0.91,0.92
0.17,-0.89,0.93
0.14,-0.86,0.93
0.11,-0.83,0.96
0.07,-0.79,0.98
0.06,-0.76,0.99
0.05,-0.73,0.99
0.05,-0.71,0.99
0.06,-0.69,0.99
0.06,-0.68,1
0.05,-0.67,1.01
0.05,-0.65,1.01
0.06,-0.63,1.01
0.08,-0.61,1.01
0.11,-0.59,1.01
0.12,-0.58,1.02
0.12,-0.56,1.03
0.12,-0.54,1.05
0.1,-0.52,1.07
0.09,-0.49,1.09
0.09,-0.46,1.09
0.09,-0.45,1.07
0.08,-0.44,1.06
0.07,-0.43,1.04
0.06,-0.42,1.03
0.06,-0.4,1.03
0.07,-0.37,1.05
0.08,-0.36,1.08
0.07,-0.36,1.07
0.05,-0.38,1.07
0.01,-0.39,1.08
-0.01,-0.38,1.11
-0.04,-0.37,1.14
-0.05,-0.37,1.17
-0.07,-0.36,1.2
-0.08,-0.36,1.22
-0.1,-0.36,1.27
-0.13,-0.35,1.3
-0.15,-0.35,1.31
-0.18,-0.34,1.31
-0.22,-0.33,1.29
-0.25,-0.31,1.26
-0.27,-0.3,1.23
-0.28,-0.29,1.22
-0.27,-0.27,1.21
-0.26,-0.26,1.19
-0.24,-0.26,1.18
-0.22,-0.25,1.16
-0.2,-0.23,1.14
-0.2,-0.22,1.12
-0.2,-0.23,1.09
-0.2,-0.23,1.08
-0.21,-0.24,1.07
-0.22,-0.24,1.06
-0.24,-0.25,1.04
-0.25,-0.26,0.99
-0.27,-0.27,0.97
-0.28,-0.27,0.96
-0.3,-0.27,0.93
-0.31,-0.26,0.9
-0.34,-0.26,0.88
-0.35,-0.26,0.87
-0.37,-0.26,0.87
-0.64,-0.25,0.85
-0.64,-0.25,0.85
-0.69,-0.24,0.84
-0.74,-0.22,0.84
-0.8,-0.22,0.84
-0.83,-0.21,0.86
-0.85,-0.2,0.87
-0.87,-0.19,0.88
-0.88,-0.2,0.88
-0.89,-0.21,0.89
-0.91,-0.23,0.89
-0.91,-0.23,0.88
-0.91,-0.23,0.88
-0.9,-0.23,0.89
-0.88,-0.23,0.9
-0.87,-0.24,0.92
-0.84,-0.24,0.94
-0.83,-0.25,0.94
-0.83,-0.26,0.95
-0.81,-0.27,0.95
-0.8,-0.28,0.95
-0.78,-0.29,0.96
-0.76,-0.3,0.95
-0.74,-0.31,0.95
-0.72,-0.32,0.97
-0.69,-0.32,0.99
-0.67,-0.33,1
-0.66,-0.34,1.02
-0.64,-0.34,1.03
-0.62,-0.34,1.04
-0.61,-0.35,1.05
-0.6,-0.37,1.07
-0.58,-0.39,1.1
-0.57,-0.41,1.12
-0.56,-0.41,1.13
-0.52,-0.42,1.13
-0.49,-0.43,1.13
-0.46,-0.43,1.13
-0.43,-0.43,1.13
-0.39,-0.43,1.13
-0.36,-0.43,1.12
-0.33,-0.44,1.12
-0.31,-0.44,1.12
-0.29,-0.45,1.11
-0.28,-0.45,1.1
-0.27,-0.44,1.1
-0.26,-0.44,1.1
-0.23,-0.45,1.1
-0.21,-0.45,1.09
-0.18,-0.46,1.08
-0.16,-0.46,1.07
-0.15,-0.45,1.06
-0.13,-0.44,1.05
-0.11,-0.44,1.05
-0.1,-0.44,1.04
-0.08,-0.46,1.05
-0.06,-0.48,1.07
-0.03,-0.5,1.07
0,-0.51,1.09
0.02,-0.51,1.11
0.04,-0.51,1.12
0.04,-0.46,1.12
0.07,-0.45,1.12
0.08,-0.47,1.13
0.1,-0.49,1.13
0.13,-0.49,1.11
0.18,-0.47,1.09
0.25,-0.43,1.09
0.32,-0.41,1.1
0.37,-0.41,1.11
0.4,-0.41,1.13
0.42,-0.38,1.15
0.42,-0.35,1.15
0.39,-0.32,1.15
0.37,-0.31,1.17
0.36,-0.32,1.19
0.36,-0.34,1.23
0.35,-0.38,1.26
0.32,-0.42,1.28
0.29,-0.46,1.31
0.26,-0.48,1.32
0.24,-0.51,1.32
0.21,-0.53,1.31
0.18,-0.54,1.3
0.17,-0.54,1.3
0.16,-0.54,1.29
0.14,-0.52,1.27
0.12,-0.51,1.26
0.11,-0.51,1.26
0.1,-0.51,1.25
0.09,-0.51,1.24
0.07,-0.5,1.22
0.07,-0.5,1.2
0.08,-0.51,1.19
0.09,-0.53,1.18
0.1,-0.56,1.18
0.12,-0.58,1.17
0.15,-0.59,1.17
0.17,-0.6,1.16
0.2,-0.6,1.14
0.24,-0.6,1.14
0.27,-0.61,1.14
0.29,-0.61,1.15
0.31,-0.61,1.15
0.32,-0.61,1.17
0.32,-0.62,1.18
0.33,-0.6,1.2
0.35,-0.61,1.19
0.36,-0.63,1.19
0.39,-0.62,1.18
0.42,-0.63,1.17
0.45,-0.64,1.16
0.48,-0.65,1.15
0.5,-0.66,1.15
0.53,-0.67,1.16
0.53,-0.67,1.15
0.54,-0.66,1.15
0.54,-0.63,1.15
0.54,-0.58,1.16
0.55,-0.52,1.17
0.55,-0.48,1.19
0.55,-0.45,1.2
0.52,-0.45,1.21
0.48,-0.44,1.2
0.45,-0.43,1.18
0.43,-0.4,1.16
0.44,-0.38,1.14
0.45,-0.36,1.13
0.43,-0.34,1.13
0.42,-0.33,1.16
0.42,-0.29,1.17
0.42,-0.24,1.17
0.4,-0.22,1.2
0.37,-0.22,1.23
0.33,-0.23,1.26
0.27,-0.23,1.29
0.22,-0.23,1.31
0.19,-0.23,1.33
0.19,-0.2,1.34
0.18,-0.18,1.34
0.17,-0.2,1.34
0.18,-0.19,1.3
0.18,-0.18,1.26
0.18,-0.18,1.22
0.19,-0.18,1.18
0.2,-0.17,1.16
0.22,-0.15,1.13
0.25,-0.15,1.1
0.26,-0.15,1.08
0.27,-0.15,1.05
0.27,-0.14,1.02
0.27,-0.12,1
0.28,-0.11,0.98
0.29,-0.1,0.96
0.31,-0.1,0.92
0.33,-0.1,0.89
0.36,-0.09,0.86
0.38,-0.08,0.85
0.4,-0.07,0.84
0.4,-0.07,0.83
0.4,-0.07,0.83
0.4,-0.06,0.83
0.4,-0.05,0.82
0.39,-0.02,0.82
0.39,-0.01,0.83
0.4,0.01,0.87
0.41,0.03,0.88
0.41,0.04,0.9
0.39,0.05,0.92
0.38,0.06,0.92
0.37,0.06,0.92
0.37,0.05,0.93
0.36,0.04,0.94
0.36,0.04,0.95
0.36,0.03,0.96
0.35,0.01,0.97
0.35,-0.01,0.98
0.35,-0.03,0.98
0.34,-0.04,0.98
0.34,-0.06,0.98
0.33,-0.06,0.97
0.31,-0.06,0.97
0.28,-0.05,0.99
0.27,-0.03,1.02
0.26,-0.01,1.04
0.25,0.01,1.06
0.23,0.02,1.08
0.22,0.03,1.11
0.2,0.03,1.14
0.17,0.03,1.18
0.12,0.02,1.21
0.08,0,1.27
0.03,-0.04,1.29
0.01,-0.05,1.3
0,-0.05,1.3
0,-0.07,1.3
0,-0.08,1.3
0.01,-0.09,1.28
0.01,-0.1,1.26
0,-0.1,1.23
0,-0.1,1.2
-0.01,-0.1,1.18
-0.02,-0.11,1.18
-0.02,-0.12,1.16
-0.02,-0.11,1.14
-0.02,-0.09,1.12
-0.02,-0.08,1.1
-0.02,-0.09,1.07
-0.02,-0.1,1.05
-0.02,-0.11,1.03
-0.02,-0.11,1.02
-0.02,-0.12,1
-0.02,-0.11,0.99
-0.01,-0.09,0.97
0,-0.08,0.96
0.02,-0.07,0.95
0.04,-0.07,0.94
0.04,-0.06,0.94
0.1,-0.07,0.94
0.09,-0.06,0.95
0.08,-0.04,0.95
0.08,-0.01,0.94
0.1,0.01,0.93
0.14,0.01,0.92
0.14,0.01,0.93
0.15,0.01,0.95
0.16,0,0.96
0.17,-0.01,0.96
0.18,-0.01,0.95
0.19,0,0.93
0.2,0,0.92
0.2,0.01,0.9
0.21,0.02,0.9
0.22,0.02,0.9
0.23,0.02,0.9
0.23,0.03,0.9
0.22,0.04,0.9
0.22,0.05,0.9
0.22,0.06,0.89
0.22,0.08,0.89
0.22,0.08,0.9
0.23,0.06,0.92
0.23,0.05,0.95
0.22,0.05,0.96
0.23,0.07,0.97
0.23,0.08,0.96
0.24,0.09,0.95
0.25,0.09,0.94
0.27,0.08,0.94
0.29,0.08,0.94
0.31,0.08,0.94
0.32,0.07,0.94
0.34,0.05,0.94
0.36,0.04,0.94
0.36,0.03,0.93
0.35,0.01,0.93
0.34,-0.01,0.92
0.33,-0.01,0.92
0.34,0,0.92
0.35,-0.01,0.92
0.35,-0.03,0.93
0.36,-0.05,0.94
0.36,-0.05,0.97
0.36,-0.02,0.99
0.36,0.01,0.99
0.35,0.03,0.98
0.33,0.02,0.98
0.31,0.01,0.99
0.3,0.01,1
0.27,0.02,1.02
0.26,0.05,1.07
0.26,0.07,1.11
0.27,0.09,1.13
0.29,0.11,1.15
0.29,0.11,1.14
0.29,0.11,1.12
0.28,0.11,1.1
0.26,0.11,1.07
0.26,0.12,1.07
0.27,0.12,1.06
0.29,0.1,1.05
0.33,0.1,1.04
0.37,0.1,1.04
0.41,0.11,1.06
0.42,0.12,1.08
0.4,0.13,1.09
0.38,0.14,1.09
0.37,0.14,1.11
0.35,0.13,1.13
0.35,0.12,1.16
0.35,0.11,1.18
0.34,0.09,1.18
0.33,0.08,1.17
0.33,0.07,1.15
0.33,0.06,1.12
0.34,0.07,1.1
0.34,0.08,1.06
0.35,0.09,1.03
0.34,0.1,1.02
0.33,0.11,1
0.31,0.12,0.98
0.29,0.14,0.96
0.28,0.15,0.95
0.27,0.16,0.95
0.27,0.17,0.95
0.27,0.18,0.95
0.27,0.19,0.94
0.27,0.19,0.94
0.26,0.19,0.94
0.26,0.18,0.96
0.27,0.18,0.97
0.27,0.18,0.98
0.27,0.17,0.99
0.29,0.18,0.99
0.29,0.18,0.99
0.28,0.17,0.99
0.29,0.15,1
0.3,0.14,1
0.32,0.14,1
0.34,0.13,1.02
0.37,0.13,1.02
0.39,0.11,1.02
0.42,0.1,0.98
0.46,0.1,0.96
0.49,0.09,0.95
0.52,0.08,0.95
0.53,0.07,0.94
0.53,0.06,0.94
0.53,0.06,0.95
0.55,0.04,0.94
0.56,0.02,0.92
0.56,0.01,0.92
0.56,0,0.92
0.57,-0.03,0.92
0.57,-0.05,0.93
0.56,-0.06,0.93
0.55,-0.09,0.93
0.54,-0.13,0.95
0.55,-0.15,0.99
0.57,-0.15,0.99
0.57,-0.16,0.97
0.56,-0.17,0.96
0.55,-0.19,0.95
0.54,-0.2,0.93
0.52,-0.22,0.91
0.5,-0.25,0.9
0.48,-0.28,0.9
0.46,-0.3,0.91
0.44,-0.32,0.92
0.4,-0.37,0.93
0.38,-0.4,0.93
0.36,-0.42,0.94
0.33,-0.45,0.94
0.31,-0.48,0.93
0.28,-0.51,0.93
0.26,-0.53,0.94
0.25,-0.54,0.95
0.23,-0.54,0.97
0.21,-0.53,0.99
0.2,-0.52,1
0.18,-0.51,1.02
0.15,-0.51,1.03
0.12,-0.5,1.03
0.1,-0.48,1.03
0.07,-0.47,1.04
0.05,-0.46,1.04
0.03,-0.43,1.04
0.02,-0.39,1.04
0.03,-0.37,1.04
0.04,-0.37,1.03
0.05,-0.37,1.01
0.05,-0.37,1
0.07,-0.38,0.98
0.08,-0.37,0.96
0.1,-0.35,0.94
0.14,-0.33,0.93
0.16,-0.32,0.92
0.18,-0.33,0.9
0.19,-0.34,0.89
0.22,-0.35,0.89
0.25,-0.36,0.88
0.26,-0.36,0.87
0.28,-0.38,0.87
0.31,-0.4,0.88
0.33,-0.43,0.9
0.35,-0.45,0.9
0.36,-0.46,0.9
0.39,-0.44,0.91
0.41,-0.41,0.92
0.42,-0.36,0.97
0.44,-0.32,1.04
0.46,-0.31,1.09
0.47,-0.35,1.12
0.46,-0.39,1.11
0.45,-0.42,1.06
0.43,-0.44,1.01
0.4,-0.45,0.99
0.36,-0.46,1
0.33,-0.45,1
0.33,-0.46,1.01
0.34,-0.48,1.04
0.33,-0.5,1.04
0.32,-0.5,1.04
0.29,-0.49,1.07
0.28,-0.48,1.11
0.26,-0.47,1.15
0.23,-0.46,1.18
0.18,-0.46,1.2
0.15,-0.45,1.21
0.13,-0.45,1.2
0.13,-0.44,1.18
0.14,-0.44,1.16
0.17,-0.44,1.13
0.22,-0.43,1.1
0.26,-0.42,1.07
0.3,-0.42,1.03
0.33,-0.41,1.01
0.36,-0.41,0.99
0.38,-0.41,0.97
0.4,-0.42,0.95
0.43,-0.44,0.94
0.45,-0.45,0.93
0.46,-0.46,0.92
0.47,-0.47,0.92
0.47,-0.48,0.92
0.46,-0.51,0.91
0.47,-0.54,0.91
0.46,-0.56,0.9
0.46,-0.6,0.9
0.47,-0.62,0.9
0.49,-0.63,0.89
0.5,-0.64,0.89
0.5,-0.63,0.89
0.51,-0.64,0.9
0.5,-0.64,0.91
0.48,-0.63,0.92
0.45,-0.62,0.94
0.43,-0.6,0.96
0.42,-0.6,0.97
0.4,-0.61,0.99
0.38,-0.61,1.02
0.38,-0.6,1.02
0.37,-0.6,1
0.36,-0.62,0.95
0.34,-0.66,0.94
0.32,-0.69,0.98
0.33,-0.71,1.04
0.33,-0.73,1.1
0.33,-0.75,1.13
0.33,-0.78,1.14
0.3,-0.82,1.14
0.26,-0.86,1.1
0.23,-0.91,1.05
0.21,-0.94,0.97
0.21,-0.93,0.97
0.22,-0.9,0.94
0.25,-0.89,0.91
0.31,-0.88,0.9
0.39,-0.88,0.88
0.41,-0.85,0.87
0.41,-0.81,0.86
0.41,-0.8,0.83
0.38,-0.8,0.82
0.34,-0.8,0.84
0.34,-0.78,0.89
0.35,-0.78,0.92
0.32,-0.78,0.94
0.29,-0.76,0.96
0.28,-0.75,0.96
0.28,-0.74,0.95
0.29,-0.72,0.96
0.31,-0.71,0.97
0.33,-0.7,0.98
0.35,-0.69,0.98
0.35,-0.68,0.99
0.35,-0.67,0.99
0.34,-0.66,1
0.33,-0.65,1.01
0.34,-0.64,1.03
0.34,-0.62,1.08
0.33,-0.61,1.1
0.31,-0.59,1.1
0.29,-0.58,1.11
0.28,-0.57,1.12
0.27,-0.57,1.13
0.26,-0.57,1.14
0.25,-0.57,1.15
0.24,-0.57,1.15
0.23,-0.56,1.14
0.23,-0.55,1.14
0.24,-0.53,1.13
0.25,-0.53,1.12
0.26,-0.54,1.11
0.25,-0.53,1.09
0.24,-0.52,1.07
0.22,-0.51,1.05
0.21,-0.5,1.03
0.2,-0.49,1.02
0.2,-0.47,1.01
0.2,-0.45,1.01
0.21,-0.43,1.01
0.2,-0.41,1.02
0.19,-0.39,1.02
0.17,-0.39,1.04
0.17,-0.39,1.08
0.16,-0.37,1.07
0.14,-0.36,1.07
0.12,-0.36,1.07
0.1,-0.35,1.06
0.08,-0.34,1.06
0.08,-0.34,1.08
0.09,-0.33,1.11
0.09,-0.32,1.12
0.08,-0.31,1.13
0.07,-0.29,1.16
0.08,-0.27,1.18
0.07,-0.25,1.18
0.07,-0.23,1.18
0.07,-0.22,1.17
0.04,-0.23,1.16
0.02,-0.24,1.15
0.02,-0.25,1.14
0.02,-0.24,1.12
0.03,-0.23,1.11
0.05,-0.2,1.1
0.07,-0.19,1.09
0.06,-0.18,1.08
0.05,-0.16,1.06
0.04,-0.15,1.03
0.03,-0.14,1.01
0.01,-0.12,0.99
0,-0.1,0.98
0.03,-0.09,0.99
0.06,-0.09,1
0.07,-0.09,0.98
0.05,-0.09,0.98
0.03,-0.1,0.97
0.01,-0.1,0.96
0,-0.09,0.95
0,-0.09,0.95
0.01,-0.09,0.95
0.03,-0.08,0.94
0.05,-0.09,0.93
0.06,-0.1,0.93
0.08,-0.11,0.94
0.1,-0.1,0.94
0.1,-0.1,0.94
0.1,-0.09,0.94
0.11,-0.09,0.95
0.11,-0.08,0.96
0.12,-0.08,0.96
0.12,-0.09,0.97
0.12,-0.1,0.97
0.12,-0.12,0.98
0.13,-0.14,1
0.14,-0.15,0.99
0.15,-0.16,0.97
0.15,-0.17,0.97
0.16,-0.21,0.99
0.16,-0.23,1.01
0.17,-0.25,1.04
0.16,-0.26,1.06
0.15,-0.28,1.06
0.14,-0.29,1.05
0.12,-0.3,1.04
0.09,-0.3,1.04
0.07,-0.3,1.06
0.07,-0.29,1.06
0.08,-0.29,1.05
0.1,-0.28,1.04
0.11,-0.28,1.02
0.13,-0.27,0.99
0.13,-0.27,0.97
0.13,-0.27,0.96
0.13,-0.27,0.97
0.13,-0.27,0.97
0.12,-0.27,0.97
0.11,-0.27,0.98
0.11,-0.26,0.98
0.11,-0.27,0.98
0.11,-0.28,0.98
0.1,-0.28,0.99
0.09,-0.28,1
0.08,-0.26,1
0.1,-0.23,1.01
0.11,-0.24,1.02
0.1,-0.26,1.02
0.08,-0.28,1.02
0.06,-0.3,1.02
0.05,-0.29,1.02
0.05,-0.28,1.04
0.06,-0.28,1.07
0.05,-0.29,1.08
0.04,-0.3,1.08
0.03,-0.31,1.08
0.01,-0.32,1.09
-0.01,-0.31,1.1
-0.03,-0.3,1.09
-0.05,-0.29,1.09
-0.06,-0.29,1.1
-0.08,-0.29,1.1
-0.11,-0.3,1.12
-0.13,-0.3,1.13
-0.17,-0.29,1.13
-0.2,-0.27,1.12
-0.24,-0.25,1.12
-0.27,-0.24,1.11
-0.3,-0.22,1.1
-0.33,-0.2,1.1
-0.35,-0.2,1.09
-0.39,-0.18,1.08
-0.41,-0.17,1.07
-0.42,-0.17,1.06
-0.44,-0.17,1.04
-0.46,-0.17,1.03
-0.46,-0.17,1.03
-0.47,-0.17,1.02
-0.48,-0.16,1.01
-0.48,-0.15,1.01
-0.48,-0.14,1
-0.48,-0.14,1
-0.48,-0.14,1
-0.48,-0.14,1
-0.49,-0.14,1
-0.48,-0.14,1
-0.48,-0.14,1
-0.47,-0.13,0.99
-0.45,-0.12,0.99
-0.44,-0.12,0.98
-0.43,-0.12,0.97
-0.42,-0.13,0.96
-0.42,-0.14,0.96
-0.41,-0.14,0.98
-0.41,-0.14,0.98
-0.42,-0.15,0.99
-0.41,-0.16,1
-0.39,-0.19,1.01
-0.39,-0.2,1.02
-0.38,-0.21,1.02
-0.38,-0.21,1.03
-0.38,-0.22,1.04
-0.37,-0.23,1.04
-0.37,-0.24,1.05
-0.37,-0.25,1.06
-0.37,-0.26,1.07
-0.37,-0.27,1.07
-0.37,-0.29,1.07
-0.37,-0.3,1.07
-0.37,-0.32,1.07
-0.36,-0.33,1.07
-0.35,-0.35,1.07
-0.34,-0.37,1.06
-0.33,-0.38,1.06
-0.31,-0.4,1.06
-0.3,-0.41,1.06
-0.3,-0.42,1.07
-0.29,-0.45,1.07
-0.29,-0.46,1.07
-0.28,-0.47,1.07
-0.27,-0.48,1.07
-0.26,-0.49,1.08
-0.25,-0.5,1.08
-0.24,-0.53,1.09
-0.23,-0.55,1.09
-0.23,-0.57,1.1
-0.22,-0.59,1.11
-0.22,-0.6,1.1
-0.22,-0.61,1.1
-0.22,-0.61,1.11
-0.21,-0.62,1.12
-0.19,-0.63,1.12
-0.17,-0.64,1.13
-0.16,-0.66,1.14
-0.15,-0.67,1.13
-0.14,-0.68,1.12
-0.14,-0.68,1.11
-0.14,-0.68,1.12
-0.12,-0.65,1.12
-0.1,-0.63,1.12
-0.08,-0.62,1.12
-0.05,-0.62,1.12
-0.03,-0.63,1.12
-0.01,-0.64,1.12
0.01,-0.64,1.12
0.02,-0.65,1.1
0.04,-0.65,1.09
0.07,-0.66,1.08
0.09,-0.67,1.08
0.12,-0.73,1.04
0.17,-0.76,1.04
0.18,-0.78,1.05
0.21,-0.78,1.05
0.23,-0.78,1.04
0.23,-0.78,1.05
0.24,-0.78,1.05
0.26,-0.77,1.06
0.27,-0.77,1.07
0.26,-0.79,1.1
0.25,-0.78,1.12
0.24,-0.78,1.13
0.24,-0.79,1.13
0.24,-0.81,1.11
0.23,-0.84,1.11
0.24,-0.88,1.14
0.26,-0.92,1.17
0.3,-0.95,1.17
0.31,-0.93,1.13
0.3,-0.88,1.09
0.27,-0.83,1.07
0.26,-0.79,1.07
0.25,-0.78,1.09
0.28,-0.78,1.13
0.31,-0.79,1.17
0.35,-0.78,1.18
0.38,-0.77,1.2
0.35,-0.77,1.2
0.33,-0.78,1.2
0.33,-0.79,1.19
0.33,-0.82,1.2
0.33,-0.84,1.2
0.33,-0.86,1.2
0.33,-0.87,1.19
0.34,-0.88,1.17
0.36,-0.87,1.15
0.35,-0.87,1.13
0.35,-0.88,1.12
0.34,-0.88,1.11
0.33,-0.87,1.1
0.3,-0.85,1.1
0.28,-0.83,1.09
0.26,-0.8,1.09
0.24,-0.78,1.1
0.22,-0.76,1.11
0.21,-0.76,1.12
0.22,-0.75,1.13
0.23,-0.74,1.14
0.24,-0.73,1.14
0.23,-0.74,1.13
0.22,-0.74,1.13
0.21,-0.73,1.14
0.22,-0.73,1.18
0.28,-0.73,1.19
0.32,-0.74,1.17
0.34,-0.74,1.16
0.35,-0.75,1.17
0.35,-0.77,1.17
0.35,-0.78,1.16
0.35,-0.77,1.13
0.35,-0.72,1.07
0.34,-0.66,1.04
0.34,-0.61,1.04
0.39,-0.52,0.91
0.39,-0.45,0.9
0.35,-0.39,1.01
0.34,-0.31,1.04
0.32,-0.26,1.09
0.3,-0.27,1.13
0.28,-0.29,1.14
0.26,-0.3,1.12
0.23,-0.3,1.1
0.21,-0.32,1.1
0.21,-0.35,1.1
0.24,-0.37,1.1
0.28,-0.37,1.1
0.32,-0.38,1.1
0.33,-0.39,1.1
0.32,-0.38,1.09
0.26,-0.38,1.09
0.23,-0.36,1.09
0.22,-0.35,1.1
0.21,-0.33,1.11
0.19,-0.32,1.13
0.17,-0.31,1.15
0.15,-0.3,1.16
0.1,-0.29,1.17
0.06,-0.29,1.17
0.03,-0.3,1.16
-0.01,-0.31,1.16
-0.03,-0.32,1.18
-0.04,-0.32,1.19
-0.05,-0.33,1.17
-0.07,-0.35,1.13
-0.08,-0.37,1.1
-0.07,-0.39,1.08
-0.05,-0.42,1.07
-0.03,-0.46,1.08
0,-0.47,1.11
0.02,-0.46,1.14
0.02,-0.47,1.17
0.02,-0.47,1.2
0.01,-0.48,1.21
0.01,-0.49,1.18
0.04,-0.52,1.05
0.15,-0.52,0.99
0.22,-0.5,0.94
0.29,-0.48,0.9
0.36,-0.47,0.9
0.42,-0.46,0.93
0.46,-0.42,0.95
0.48,-0.4,0.96
0.46,-0.4,0.96
0.41,-0.41,0.97
0.36,-0.43,0.99
0.32,-0.44,1.04
0.32,-0.44,1.09
0.34,-0.44,1.11
0.36,-0.45,1.11
0.39,-0.48,1.1
0.42,-0.5,1.07
0.43,-0.49,1.05
0.42,-0.49,1.03
0.4,-0.49,1.02
0.37,-0.47,1.01
0.35,-0.46,0.99
0.34,-0.46,0.98
0.31,-0.45,0.97
0.29,-0.44,0.98
0.26,-0.43,1
0.25,-0.42,1.06
0.24,-0.38,1.07
0.23,-0.35,1.07
0.22,-0.32,1.07
0.21,-0.31,1.08
0.2,-0.31,1.09
0.18,-0.31,1.09
0.16,-0.32,1.09
0.15,-0.32,1.1
0.17,-0.32,1.1
0.2,-0.32,1.1
0.22,-0.34,1.09
0.24,-0.39,1.08
0.26,-0.43,1.06
0.27,-0.46,1.03
0.28,-0.47,1.01
0.28,-0.48,0.98
0.3,-0.48,0.95
0.32,-0.45,0.92
0.33,-0.38,0.9
0.36,-0.31,0.88
0.38,-0.26,0.92
0.39,-0.19,1.02
0.38,-0.15,1.12
0.34,-0.14,1.21
0.31,-0.14,1.24
0.25,-0.15,1.21
0.16,-0.19,1.19
0.04,-0.19,1.23
0.02,-0.2,1.26
0.03,-0.25,1.25
0.06,-0.29,1.19
0.07,-0.29,1.13
0.06,-0.29,1.07
0.03,-0.28,1.04
-0.01,-0.27,1.02
-0.06,-0.24,1.03
-0.11,-0.21,1.06
-0.15,-0.18,1.09
-0.18,-0.15,1.1
-0.22,-0.14,1.12
-0.24,-0.14,1.13
-0.25,-0.13,1.13
-0.25,-0.13,1.11
-0.25,-0.14,1.09
-0.23,-0.15,1.06
-0.2,-0.18,1.04
-0.16,-0.19,1.02
-0.11,-0.19,1
-0.05,-0.17,0.98
-0.01,-0.16,0.97
0.02,-0.16,0.95
0.05,-0.15,0.94
0.07,-0.13,0.95
0.13,-0.14,0.97
0.15,-0.15,0.99
0.16,-0.17,1.01
0.18,-0.18,1.03
0.19,-0.18,1.05
0.21,-0.19,1.06
0.22,-0.19,1.07
0.24,-0.2,1.08
0.24,-0.19,1.09
0.23,-0.19,1.09
0.22,-0.19,1.1
0.2,-0.18,1.1
0.19,-0.17,1.09
0.17,-0.16,1.09
0.16,-0.15,1.1
0.16,-0.14,1.1
0.15,-0.13,1.09
0.14,-0.15,1.06
0.13,-0.16,1.04
0.12,-0.17,1.02
0.12,-0.17,1
0.11,-0.18,0.99
0.11,-0.19,0.99
0.12,-0.18,0.98
0.12,-0.18,0.99
0.1,-0.16,1.02
0.08,-0.14,1.04
0.08,-0.13,1.05
0.08,-0.14,1.04
0.09,-0.16,1.02
0.11,-0.17,1
0.13,-0.19,0.99
0.15,-0.21,0.97
0.17,-0.22,0.94
0.18,-0.23,0.92
0.19,-0.24,0.91
0.21,-0.25,0.91
0.23,-0.24,0.91
0.24,-0.23,0.91
0.23,-0.22,0.91
0.22,-0.22,0.94
0.2,-0.22,0.97
0.18,-0.21,0.99
0.16,-0.22,1.01
0.14,-0.22,1.04
0.13,-0.23,1.05
0.11,-0.24,1.05
0.11,-0.25,1.04
0.11,-0.25,1.02
0.11,-0.25,1.02
0.12,-0.25,1.01
0.13,-0.22,1
0.13,-0.21,1
0.13,-0.22,1.01
0.14,-0.23,1.03
0.14,-0.23,1.04
0.14,-0.21,1.04
0.13,-0.2,1.05
0.11,-0.2,1.06
0.11,-0.19,1.07
0.11,-0.18,1.07
0.11,-0.17,1.07
0.12,-0.17,1.07
0.13,-0.17,1.07
0.15,-0.17,1.06
0.16,-0.17,1.05
0.17,-0.18,1.04
0.16,-0.18,1.03
0.16,-0.19,1.02
0.17,-0.21,1.02
0.18,-0.22,1.03
0.19,-0.23,1.03
0.18,-0.24,1.04
0.18,-0.24,1.05
0.17,-0.23,1.06
0.16,-0.23,1.06
0.16,-0.22,1.07
0.17,-0.22,1.07
0.17,-0.21,1.07
0.18,-0.2,1.07
0.2,-0.19,1.05
0.19,-0.18,1.04
0.19,-0.16,1.04
0.18,-0.14,1.05
0.17,-0.12,1.05
0.17,-0.09,1.05
0.18,-0.07,1.06
0.17,-0.05,1.08
0.16,-0.02,1.09
0.16,-0.01,1.09
0.15,-0.01,1.09
0.15,-0.02,1.09
0.14,-0.03,1.07
0.14,-0.03,1.05
0.16,-0.04,1.02
0.17,-0.05,0.99
0.18,-0.06,0.96
0.2,-0.07,0.92
0.21,-0.08,0.88
0.22,-0.08,0.84
0.23,-0.07,0.84
0.22,-0.07,0.85
0.21,-0.07,0.87
0.21,-0.07,0.88
0.19,-0.05,0.89
0.17,-0.04,0.9
0.17,-0.02,0.91
0.17,-0.01,0.92
0.17,0.02,0.95
0.17,0.05,0.97
0.16,0.07,1
0.15,0.08,1.03
0.13,0.08,1.05
0.12,0.07,1.07
0.11,0.06,1.1
0.12,0.06,1.12
0.13,0.05,1.15
0.14,0.04,1.16
0.15,0.02,1.16
0.17,0,1.15
0.19,-0.01,1.14
0.2,-0.02,1.13
0.21,-0.02,1.11
0.21,-0.02,1.1
0.22,-0.01,1.09
0.22,-0.02,1.08
0.22,-0.02,1.06
0.22,-0.02,1.06
0.21,0,1.05
0.2,0,1.04
0.21,0.01,1.03
0.21,0.01,1.01
0.22,0.01,1
0.23,0.01,0.99
0.24,0.02,0.98
0.24,0.02,0.98
0.25,0.02,0.97
0.26,0.03,0.96
0.26,0.04,0.95
0.25,0.04,0.94
0.25,0.04,0.93
0.26,0.04,0.94
0.28,0.05,0.94
0.29,0.05,0.95
0.29,0.06,0.96
0.29,0.07,0.96
0.28,0.08,0.97
0.28,0.09,0.97
0.28,0.1,0.97
0.28,0.11,0.97
0.27,0.13,0.97
0.29,0.12,0.98
0.3,0.12,0.98
0.29,0.13,0.98
0.29,0.14,0.99
0.29,0.15,0.99
0.3,0.15,0.98
0.32,0.14,0.98
0.33,0.14,0.98
0.33,0.11,0.97
0.33,0.1,0.96
0.35,0.09,0.95
0.37,0.1,0.94
0.39,0.1,0.93
0.4,0.08,0.92
0.4,0.07,0.93
0.4,0.06,0.94
0.39,0.05,0.95
0.38,0.04,0.94
0.38,0.04,0.93
0.38,0.04,0.91
0.39,0.03,0.89
0.42,0.02,0.87
0.45,0.02,0.86
0.47,0.03,0.85
0.48,0.03,0.83
0.48,0.02,0.83
0.47,0.02,0.83
0.48,0.02,0.83
0.47,0.03,0.84
0.47,0.02,0.86
0.47,0.02,0.88
0.48,0.02,0.91
0.51,0.01,0.93
0.52,0,0.93
0.53,0,0.94
0.55,0,0.96
0.56,-0.01,0.97
0.56,-0.02,0.98
0.56,-0.03,0.99
0.56,-0.03,0.98
0.56,-0.04,0.98
0.56,-0.06,0.98
0.57,-0.07,0.98
0.57,-0.07,0.98
0.58,-0.08,0.98
0.58,-0.08,0.97
0.58,-0.08,0.97
0.58,-0.09,0.97
0.56,-0.09,0.97
0.55,-0.09,0.97
0.54,-0.09,0.98
0.53,-0.09,0.98
0.53,-0.1,0.97
0.53,-0.1,0.97
0.53,-0.11,0.97
0.53,-0.11,0.97
0.53,-0.11,0.96
0.53,-0.15,0.94
0.52,-0.16,0.93
0.52,-0.17,0.92
0.5,-0.18,0.9
0.5,-0.19,0.89
0.52,-0.21,0.88
0.52,-0.22,0.88
0.52,-0.23,0.87
0.52,-0.24,0.86
0.51,-0.24,0.85
0.5,-0.26,0.83
0.49,-0.27,0.83
0.48,-0.28,0.83
0.47,-0.3,0.83
0.48,-0.31,0.83
0.49,-0.32,0.82
0.48,-0.33,0.8
0.47,-0.34,0.81
0.46,-0.34,0.82
0.45,-0.35,0.83
0.44,-0.35,0.85
0.44,-0.35,0.86
0.44,-0.36,0.87
0.43,-0.36,0.87
0.42,-0.35,0.88
0.41,-0.33,0.89
0.41,-0.3,0.95
0.4,-0.29,0.98
0.4,-0.29,1.01
0.4,-0.29,1.03
0.4,-0.3,1.04
0.4,-0.31,1.03
0.4,-0.33,1.02
0.41,-0.34,1.02
0.42,-0.35,1.02
0.42,-0.35,1.02
0.43,-0.34,1
0.44,-0.33,0.99
0.45,-0.33,0.98
0.46,-0.33,0.98
0.47,-0.34,0.99
0.48,-0.36,1
0.47,-0.38,1.02
0.47,-0.39,1.07
0.46,-0.39,1.13
0.45,-0.39,1.18
0.44,-0.39,1.2
0.44,-0.41,1.22
0.44,-0.42,1.23
0.45,-0.44,1.22
0.47,-0.45,1.21
0.5,-0.45,1.21
0.54,-0.45,1.17
0.58,-0.47,1.13
0.6,-0.48,1.09
0.61,-0.49,1.05
0.62,-0.5,1.02
0.63,-0.51,0.99
0.62,-0.53,0.95
0.62,-0.55,0.92
0.62,-0.57,0.88
0.62,-0.59,0.86
0.63,-0.61,0.82
0.63,-0.62,0.8
0.63,-0.63,0.78
0.63,-0.67,0.76
0.63,-0.71,0.74
0.62,-0.74,0.73
0.61,-0.77,0.72
0.6,-0.79,0.72
0.59,-0.81,0.73
0.58,-0.82,0.74
0.57,-0.82,0.75
0.55,-0.83,0.76
0.53,-0.85,0.77
0.51,-0.87,0.79
0.49,-0.87,0.81
0.47,-0.87,0.85
0.46,-0.88,0.93
0.44,-0.89,0.95
0.43,-0.88,0.96
0.41,-0.89,0.94
0.41,-0.9,0.93
0.4,-0.93,0.93
0.39,-0.96,0.96
0.38,-1,0.99
0.36,-1.05,1.04
0.35,-1.1,1.09
0.36,-1.13,1.12
0.35,-1.17,1.12
0.31,-1.21,1.11
0.29,-1.23,1.08
0.27,-1.24,1.05
0.23,-1.24,1.04
0.19,-1.24,1.03
0.16,-1.22,1.03
0.16,-1.19,1.03
0.16,-1.14,1.04
0.17,-1.08,1.05
0.19,-1.04,1.06
0.2,-1,1.05
0.19,-0.98,1.06
0.17,-0.96,1.09
0.15,-0.94,1.12
0.12,-0.9,1.11
0.06,-0.84,1.11
0.03,-0.82,1.12
0.01,-0.8,1.12
0,-0.78,1.13
0.02,-0.75,1.13
0.05,-0.72,1.11
0.09,-0.68,1.07
0.13,-0.65,1.05
0.17,-0.62,1.05
0.21,-0.59,1.05
0.22,-0.56,1.04
0.2,-0.55,1.04
0.2,-0.54,1.04
0.21,-0.52,1.04
0.21,-0.51,1.03
0.21,-0.49,1.03
0.23,-0.47,1.03
0.27,-0.47,1.03
0.31,-0.47,1.01
0.34,-0.46,1
0.36,-0.46,0.98
0.37,-0.47,0.96
0.38,-0.46,0.95
0.38,-0.46,0.93
0.39,-0.47,0.89
0.41,-0.48,0.81
0.4,-0.45,0.81
0.42,-0.41,0.85
0.47,-0.38,0.93
0.51,-0.39,1
0.52,-0.46,1.03
0.48,-0.51,1.04
0.42,-0.53,1.04
0.37,-0.53,1.03
0.33,-0.51,1.03
0.3,-0.49,1.03
0.25,-0.49,1.04
0.25,-0.47,1.05
0.29,-0.45,1.09
0.33,-0.43,1.13
0.33,-0.42,1.13
0.32,-0.42,1.12
0.28,-0.42,1.13
0.23,-0.42,1.15
0.18,-0.41,1.16
0.14,-0.41,1.17
0.12,-0.4,1.19
0.1,-0.39,1.2
0.11,-0.39,1.19
0.15,-0.38,1.17
0.21,-0.38,1.13
0.26,-0.38,1.09
0.35,-0.39,1.06
0.37,-0.4,1.04
0.36,-0.41,1.01
0.34,-0.43,0.99
0.32,-0.45,0.97
0.32,-0.46,0.97
0.33,-0.46,0.97
0.35,-0.47,0.98
0.35,-0.48,0.99
0.35,-0.49,1
0.35,-0.51,1
0.33,-0.52,0.98
0.32,-0.54,0.97
0.32,-0.55,0.98
0.34,-0.55,1
0.33,-0.54,1.01
0.3,-0.54,1.01
0.27,-0.53,1.01
0.24,-0.53,1.01
0.23,-0.52,1.03
0.24,-0.5,1.02
0.24,-0.49,1.01
0.24,-0.49,1.02
0.25,-0.48,1.03
0.26,-0.46,1.03
0.24,-0.46,1.03
0.23,-0.52,1.05
0.23,-0.54,1.04
0.23,-0.58,1.02
0.23,-0.62,1.01
0.23,-0.67,1.01
0.24,-0.71,1.01
0.24,-0.74,1.01
0.25,-0.76,1
0.26,-0.75,0.99
0.26,-0.74,0.98
0.25,-0.75,0.97
0.24,-0.78,0.97
0.23,-0.8,0.98
0.22,-0.8,0.98
0.22,-0.78,0.97
0.2,-0.75,0.97
0.19,-0.72,0.98
0.19,-0.7,0.99
0.2,-0.7,1
0.2,-0.71,1.02
0.19,-0.71,1.03
0.16,-0.71,1.05
0.14,-0.68,1.06
0.12,-0.64,1.07
0.11,-0.6,1.09
0.1,-0.58,1.12
0.11,-0.57,1.13
0.13,-0.59,1.12
0.12,-0.61,1.12
0.12,-0.63,1.1
0.11,-0.63,1.07
0.09,-0.63,1.06
0.09,-0.63,1.06
0.09,-0.62,1.09
0.09,-0.61,1.13
0.08,-0.58,1.17
0.07,-0.54,1.19
0.06,-0.5,1.2
0.06,-0.46,1.19
0.04,-0.42,1.18
0.02,-0.4,1.19
0.01,-0.4,1.19
0,-0.38,1.16
0,-0.36,1.13
0.02,-0.35,1.09
0.05,-0.36,1.07
0.07,-0.36,1.05
0.09,-0.36,1.03
0.11,-0.35,1
0.13,-0.34,0.96
0.15,-0.33,0.95
0.17,-0.33,0.94
0.19,-0.32,0.93
0.21,-0.32,0.92
0.21,-0.32,0.92
0.21,-0.31,0.91
0.22,-0.29,0.9
0.23,-0.29,0.9
0.23,-0.29,0.92
0.25,-0.3,0.95
0.25,-0.3,0.97
0.22,-0.3,0.97
0.2,-0.28,0.98
0.19,-0.27,0.97
0.18,-0.24,0.95
0.17,-0.23,0.95
0.17,-0.23,0.98
0.17,-0.23,1
0.16,-0.23,1.02
0.13,-0.22,1.04
0.11,-0.22,1.06
0.07,-0.22,1.06
0.03,-0.22,1.07
-0.01,-0.23,1.09
-0.04,-0.23,1.11
-0.09,-0.22,1.12
-0.13,-0.2,1.12
-0.16,-0.18,1.13
-0.18,-0.15,1.12
-0.26,-0.1,1.13
-0.28,-0.08,1.15
-0.3,-0.06,1.16
-0.34,-0.04,1.16
-0.39,-0.02,1.16
-0.43,-0.02,1.17
-0.47,-0.02,1.18
-0.49,-0.02,1.19
-0.52,-0.01,1.22
-0.53,0.02,1.24
-0.54,0.03,1.24
-0.55,0.04,1.24
-0.55,0.04,1.23
-0.55,0.03,1.23
-0.53,0.03,1.21
-0.52,0.02,1.18
-0.5,0.01,1.15
-0.48,0,1.13
-0.45,0,1.1
-0.43,0,1.07
-0.42,0,1.04
-0.41,0.01,1.02
-0.4,0.01,1
-0.4,0,0.99
-0.4,0,0.97
-0.41,0,0.94
-0.42,0,0.94
-0.43,0,0.94
-0.43,0,0.93
-0.44,0,0.92
-0.44,0.01,0.91
-0.43,0.02,0.91
-0.42,0.02,0.92
-0.41,0,0.92
-0.42,-0.01,0.92
-0.42,-0.01,0.93
-0.41,0,0.94
-0.4,0.01,0.96
-0.39,0.01,0.99
-0.39,0.01,1
-0.38,0.01,1.02
-0.39,-0.01,1.03
-0.39,-0.01,1.05
-0.37,-0.01,1.06
-0.35,0,1.06
-0.33,0.02,1.07
-0.31,0.01,1.08
-0.29,-0.01,1.1
-0.28,-0.02,1.11
-0.27,-0.03,1.12
-0.26,-0.03,1.12
-0.26,-0.03,1.1
-0.25,-0.04,1.09
-0.23,-0.05,1.09
-0.23,-0.07,1.08
-0.21,-0.09,1.07
-0.19,-0.1,1.05
-0.17,-0.11,1.04
-0.15,-0.12,1.04
-0.12,-0.13,1.05
-0.11,-0.15,1.06
-0.1,-0.15,1.06
-0.09,-0.15,1.06
-0.09,-0.16,1.05
-0.08,-0.17,1.03
-0.06,-0.17,1.02
-0.04,-0.18,1.02
-0.02,-0.18,1.02
0,-0.18,1.03
0.01,-0.19,1.04
0.02,-0.21,1.05
0.02,-0.22,1.06
0.03,-0.24,1.06
0.04,-0.25,1.06
0.04,-0.27,1.07
0.03,-0.29,1.06
0.04,-0.31,1.05
0.06,-0.32,1.04
0.08,-0.33,1.04
0.1,-0.31,1.04
0.12,-0.3,1.06
0.15,-0.3,1.08
0.18,-0.31,1.1
0.21,-0.33,1.1
0.21,-0.35,1.08
0.19,-0.37,1.06
0.18,-0.38,1.05
0.19,-0.39,1.04
0.21,-0.4,1.05
0.23,-0.41,1.06
0.25,-0.4,1.07
0.29,-0.4,1.09
0.33,-0.41,1.1
0.36,-0.41,1.08
0.35,-0.4,1.05
0.33,-0.41,1.02
0.31,-0.42,1
0.3,-0.43,0.99
0.31,-0.43,0.98
0.33,-0.43,0.98
0.34,-0.42,0.99
0.34,-0.42,1
0.34,-0.42,1
0.35,-0.41,1
0.35,-0.38,0.95
0.35,-0.38,0.95
0.33,-0.38,0.97
0.34,-0.37,0.99
0.36,-0.35,0.99
0.35,-0.35,0.99
0.36,-0.35,1.02
0.37,-0.34,1.04
0.37,-0.33,1.06
0.38,-0.33,1.09
0.4,-0.32,1.11
0.41,-0.31,1.12
0.41,-0.31,1.13
0.4,-0.32,1.14
0.39,-0.34,1.16
0.38,-0.36,1.17
0.36,-0.38,1.17
0.36,-0.39,1.16
0.38,-0.39,1.15
0.39,-0.39,1.14
0.41,-0.41,1.13
0.42,-0.41,1.12
0.42,-0.4,1.11
0.41,-0.4,1.1
0.4,-0.4,1.09
0.4,-0.4,1.06
0.39,-0.38,1
0.38,-0.38,0.96
0.38,-0.36,0.92
0.38,-0.34,0.87
0.38,-0.3,0.85
0.39,-0.24,0.85
0.39,-0.18,0.88
0.4,-0.13,0.92
0.41,-0.11,0.95
0.41,-0.12,0.95
0.38,-0.14,0.94
0.34,-0.16,0.92
0.32,-0.19,0.92
0.31,-0.2,0.94
0.31,-0.21,0.96
0.32,-0.22,0.97
0.34,-0.21,0.97
0.33,-0.19,0.97
0.31,-0.18,0.97
0.28,-0.17,0.98
0.25,-0.16,0.99
0.23,-0.15,1.01
0.21,-0.14,1.04
0.18,-0.14,1.08
0.13,-0.15,1.12
0.08,-0.14,1.15
0.03,-0.13,1.18
-0.08,-0.14,1.19
-0.13,-0.14,1.2
-0.17,-0.15,1.21
-0.2,-0.16,1.21
-0.22,-0.15,1.21
-0.22,-0.14,1.22
-0.21,-0.14,1.21
-0.18,-0.15,1.19
-0.15,-0.16,1.17
-0.11,-0.17,1.14
-0.09,-0.18,1.11
-0.08,-0.19,1.09
-0.06,-0.19,1.07
-0.02,-0.2,1.06
0.03,-0.2,1.04
0.07,-0.21,1.01
0.09,-0.21,0.97
0.12,-0.21,0.94
0.14,-0.21,0.92
0.16,-0.2,0.91
0.17,-0.19,0.9
0.17,-0.18,0.9
0.16,-0.16,0.89
0.15,-0.14,0.9
0.16,-0.13,0.91
0.18,-0.12,0.95
0.2,-0.11,0.97
0.22,-0.12,0.99
0.23,-0.14,0.99
0.22,-0.17,0.99
0.21,-0.2,1.01
0.2,-0.22,1.04
0.21,-0.24,1.07
0.22,-0.25,1.09
0.23,-0.26,1.09
0.23,-0.28,1.1
0.23,-0.3,1.11
0.23,-0.32,1.13
0.22,-0.34,1.16
0.22,-0.36,1.19
0.22,-0.39,1.21
0.23,-0.45,1.19
0.22,-0.53,1.13
0.19,-0.59,1.04
0.18,-0.61,0.97
0.19,-0.58,0.91
0.22,-0.53,0.87
0.24,-0.49,0.88
0.26,-0.44,0.92
0.3,-0.39,0.97
0.34,-0.32,1
0.38,-0.27,1.05
0.3,-0.27,1.1
0.25,-0.28,1.15
0.21,-0.3,1.16
0.17,-0.33,1.16
0.15,-0.37,1.17
0.14,-0.43,1.17
0.15,-0.49,1.15
0.2,-0.53,1.11
0.26,-0.55,1.04
0.32,-0.57,0.98
0.36,-0.58,0.94
0.38,-0.59,0.9
0.38,-0.58,0.86
0.36,-0.56,0.84
0.34,-0.54,0.83
0.31,-0.53,0.83
0.28,-0.5,0.85
0.26,-0.47,0.86
0.25,-0.45,0.89
0.24,-0.43,0.93
0.23,-0.41,0.96
0.22,-0.39,0.99
0.2,-0.37,1.02
0.19,-0.34,1.05
0.18,-0.33,1.08
0.18,-0.33,1.16
0.21,-0.35,1.18
0.22,-0.37,1.18
0.22,-0.39,1.18
0.23,-0.41,1.17
0.23,-0.42,1.16
0.25,-0.44,1.15
0.26,-0.46,1.16
0.26,-0.48,1.17
0.28,-0.49,1.18
0.28,-0.48,1.18
0.28,-0.48,1.17
0.29,-0.46,1.16
0.29,-0.45,1.14
0.29,-0.44,1.13
0.28,-0.45,1.11
0.28,-0.45,1.08
0.28,-0.43,1.05
0.29,-0.41,1.03
0.29,-0.39,1.01
0.3,-0.37,1
0.3,-0.34,0.99
0.32,-0.31,0.99
0.33,-0.3,1.01
0.33,-0.31,1.02
0.33,-0.32,1.02
0.31,-0.33,0.98
0.28,-0.36,0.97
0.27,-0.38,0.98
0.26,-0.39,0.99
0.27,-0.39,1.01
0.27,-0.37,1.02
0.28,-0.35,1.02
0.27,-0.34,1.01
0.26,-0.34,1
0.24,-0.34,0.99
0.22,-0.34,0.99
0.21,-0.34,0.99
0.2,-0.34,0.99
0.2,-0.34,1
0.21,-0.33,1
0.21,-0.31,1.01
0.22,-0.29,1.02
0.23,-0.26,1.02
0.24,-0.25,1.02
0.24,-0.24,1.01
0.24,-0.22,1
0.24,-0.21,0.99
0.24,-0.21,0.98
0.23,-0.2,0.96
0.24,-0.19,0.95
0.25,-0.19,0.96
0.26,-0.2,0.95
0.31,-0.2,0.94
0.33,-0.18,0.93
0.36,-0.17,0.93
0.37,-0.18,0.95
0.37,-0.19,0.96
0.38,-0.2,0.97
0.39,-0.19,0.98
0.4,-0.18,0.98
0.41,-0.17,0.99
0.42,-0.18,0.99
0.43,-0.19,0.99
0.46,-0.19,1
0.47,-0.19,1.01
0.48,-0.2,1.01
0.49,-0.18,1.01
0.5,-0.15,1.01
0.49,-0.15,1.01
0.47,-0.15,1
0.46,-0.16,1
0.45,-0.17,1
0.44,-0.17,0.99
0.45,-0.15,0.98
0.44,-0.12,0.98
0.43,-0.11,1
0.41,-0.11,1.01
0.39,-0.12,1.02
0.38,-0.15,0.96
0.31,-0.19,0.93
0.29,-0.21,0.91
0.29,-0.22,0.91
0.29,-0.22,0.92
0.28,-0.22,0.92
0.27,-0.23,0.93
0.25,-0.22,0.95
0.23,-0.19,0.98
0.22,-0.16,1.02
0.21,-0.14,1.05
0.19,-0.14,1.06
0.18,-0.15,1.06
0.15,-0.18,1.06
0.13,-0.21,1.05
0.12,-0.23,1.04
0.12,-0.23,1.02
0.14,-0.23,1.01
0.16,-0.23,1.01
0.19,-0.25,1
0.21,-0.27,0.99
0.22,-0.28,0.97
0.24,-0.27,0.97
0.26,-0.25,0.97
0.26,-0.25,0.97
0.23,-0.26,0.97
0.21,-0.29,0.99
0.22,-0.29,0.98
0.23,-0.31,0.98
0.24,-0.32,0.97
0.26,-0.32,0.95
0.27,-0.32,0.93
0.28,-0.32,0.91
0.29,-0.33,0.9
0.3,-0.33,0.89
0.3,-0.32,0.88
0.29,-0.31,0.88
0.28,-0.3,0.88
0.27,-0.29,0.89
0.28,-0.27,0.9
0.29,-0.26,0.92
0.29,-0.26,0.93
0.29,-0.26,0.94
0.3,-0.26,0.95
0.29,-0.27,0.97
0.28,-0.28,0.99
0.28,-0.29,1
0.28,-0.29,1.02
0.29,-0.3,1.03
0.3,-0.3,1.03
0.3,-0.31,1.04
0.31,-0.33,1.05
0.32,-0.35,1.07
0.33,-0.36,1.07
0.33,-0.36,1.08
0.33,-0.37,1.07
0.33,-0.38,1.06
0.33,-0.38,1.07
0.33,-0.37,1.08
0.33,-0.36,1.08
0.34,-0.35,1.07
0.34,-0.35,1.06
0.34,-0.35,1.05
0.35,-0.34,1.04
0.35,-0.32,1.02
0.35,-0.31,1
0.34,-0.3,0.99
0.35,-0.28,0.98
0.35,-0.27,0.96
0.36,-0.26,0.95
0.36,-0.25,0.94
0.37,-0.25,0.94
0.38,-0.24,0.94
0.39,-0.24,0.94
0.41,-0.23,0.94
0.42,-0.22,0.94
0.43,-0.21,0.95
0.44,-0.21,0.95
0.44,-0.21,0.93
0.45,-0.2,0.91
0.46,-0.17,0.89
0.49,-0.15,0.87
0.52,-0.15,0.85
0.54,-0.16,0.83
0.55,-0.16,0.82
0.58,-0.13,0.82
0.6,-0.1,0.82
0.63,-0.08,0.83
0.66,-0.07,0.82
0.67,-0.06,0.81
0.71,-0.03,0.81
0.73,-0.02,0.81
0.74,-0.01,0.83
0.76,0.01,0.83
0.77,0.02,0.83
0.76,0.01,0.83
0.77,0.03,0.84
0.79,0.03,0.82
0.81,0.01,0.8
0.82,0.02,0.81
0.86,0.05,0.83
0.88,0.05,0.83
0.9,0.04,0.83
0.91,0.05,0.82
0.9,0.05,0.82
0.87,0.06,0.82
0.87,0.06,0.82
0.87,0.03,0.81
0.87,0.03,0.8
0.86,0.03,0.79
0.86,0.02,0.79
0.86,0.01,0.79
0.87,0.02,0.81
0.89,0.04,0.81
0.89,0.03,0.8
0.89,0.02,0.78
0.88,0.01,0.77
0.88,0,0.77
0.89,-0.01,0.77
0.91,-0.03,0.77
0.92,-0.04,0.76
0.93,-0.05,0.76
0.93,-0.06,0.75
0.93,-0.09,0.74
0.92,-0.12,0.74
0.93,-0.14,0.74
0.92,-0.16,0.75
0.91,-0.19,0.75
0.9,-0.21,0.76
0.89,-0.23,0.77
0.86,-0.24,0.78
0.84,-0.29,0.79
0.85,-0.32,0.79
0.84,-0.35,0.8
0.82,-0.38,0.81
0.77,-0.4,0.82
0.73,-0.43,0.83
0.7,-0.45,0.85
0.69,-0.47,0.86
0.67,-0.49,0.87
0.67,-0.5,0.88
0.66,-0.52,0.89
0.66,-0.53,0.9
0.65,-0.54,0.9
0.63,-0.56,0.91
0.61,-0.57,0.92
0.6,-0.58,0.93
0.59,-0.6,0.93
0.58,-0.61,0.94
0.57,-0.62,0.94
0.56,-0.63,0.95
0.56,-0.64,0.95
0.55,-0.64,0.94
0.54,-0.64,0.94
0.54,-0.63,0.95
0.54,-0.64,0.95
0.54,-0.64,0.95
0.54,-0.63,0.96
0.55,-0.61,0.96
0.55,-0.61,0.95
0.55,-0.61,0.94
0.56,-0.62,0.92
0.57,-0.65,0.91
0.56,-0.67,0.91
0.55,-0.69,0.91
0.55,-0.7,0.9
0.55,-0.72,0.89
0.55,-0.73,0.9
0.55,-0.74,0.91
0.56,-0.74,0.91
0.55,-0.74,0.91
0.54,-0.74,0.9
0.53,-0.75,0.9
0.51,-0.78,0.89
0.5,-0.81,0.87
0.49,-0.83,0.86
0.49,-0.86,0.85
0.48,-0.89,0.84
0.47,-0.94,0.83
0.45,-0.99,0.82
0.43,-1.04,0.81
0.41,-1.07,0.82
0.4,-1.09,0.83
0.4,-1.11,0.85
0.37,-1.13,0.85
0.34,-1.16,0.88
0.31,-1.18,0.9
0.29,-1.18,0.91
0.26,-1.17,0.94
0.23,-1.14,0.97
0.23,-1.1,0.99
0.22,-1.06,1.01
0.2,-1.03,1.02
0.19,-0.99,1.03
0.16,-0.97,1.03
0.13,-0.94,1.03
0.09,-0.9,1.06
0.06,-0.86,1.12
0.06,-0.81,1.16
0.05,-0.76,1.17
0.05,-0.72,1.17
0.04,-0.69,1.17
0.03,-0.66,1.15
0.05,-0.64,1.12
0.06,-0.63,1.11
0.09,-0.64,1.12
0.13,-0.63,1.13
0.15,-0.6,1.12
0.15,-0.57,1.11
0.19,-0.57,1.07
0.21,-0.56,1.04
0.23,-0.55,1.02
0.24,-0.55,1
0.26,-0.54,0.98
0.28,-0.54,0.97
0.3,-0.53,0.97
0.32,-0.52,0.96
0.34,-0.51,0.96
0.36,-0.51,0.96
0.37,-0.52,0.95
0.37,-0.52,0.95
0.37,-0.51,0.94
0.37,-0.5,0.92
0.39,-0.49,0.92
0.41,-0.49,0.93
0.43,-0.51,0.93
0.43,-0.52,0.93
0.44,-0.52,0.93
0.45,-0.53,0.92
0.46,-0.54,0.92
0.47,-0.56,0.92
0.47,-0.57,0.93
0.47,-0.58,0.92
0.47,-0.59,0.93
0.47,-0.6,0.94
0.46,-0.62,0.95
0.46,-0.61,0.94
0.46,-0.6,0.92
0.46,-0.58,0.91
0.46,-0.55,0.92
0.45,-0.52,0.95
0.44,-0.49,0.99
0.42,-0.47,1.01
0.4,-0.47,1.03
0.39,-0.47,1.03
0.39,-0.48,1.01
0.38,-0.5,0.97
0.36,-0.52,0.96
0.35,-0.52,0.97
0.37,-0.51,0.97
0.37,-0.49,0.96
0.38,-0.47,0.95
0.4,-0.47,0.94
0.42,-0.46,0.93
0.43,-0.46,0.93
0.43,-0.46,0.95
0.41,-0.48,0.98
0.38,-0.49,1.02
0.35,-0.5,1.04
0.33,-0.52,1.08
0.32,-0.53,1.11
0.31,-0.54,1.12
0.29,-0.54,1.12
0.28,-0.54,1.12
0.26,-0.54,1.12
0.23,-0.55,1.14
0.21,-0.55,1.17
0.18,-0.54,1.18
0.15,-0.52,1.16
0.12,-0.51,1.14
0.09,-0.5,1.13
0.06,-0.5,1.14
0.05,-0.48,1.13
0.03,-0.46,1.11
0.01,-0.46,1.12
0.01,-0.47,1.12
0,-0.47,1.11
-0.03,-0.46,1.09
-0.06,-0.45,1.08
-0.08,-0.44,1.06
-0.09,-0.43,1.04
-0.1,-0.42,1.02
-0.1,-0.43,1
-0.11,-0.44,1
-0.13,-0.46,0.99
-0.16,-0.46,0.99
-0.19,-0.44,0.99
-0.2,-0.39,0.99
-0.2,-0.33,1
-0.2,-0.34,1.01
-0.22,-0.34,1.01
-0.25,-0.34,1.01
-0.27,-0.33,1
-0.3,-0.31,0.99
-0.32,-0.3,0.98
-0.33,-0.29,1
-0.33,-0.28,1.02
-0.32,-0.26,1.02
-0.32,-0.24,1.01
-0.32,-0.22,1.02
-0.32,-0.21,1.03
-0.33,-0.2,1.03
-0.35,-0.2,1.03
-0.37,-0.2,1.03
-0.38,-0.18,1.05
-0.39,-0.17,1.05
-0.39,-0.17,1.06
-0.4,-0.16,1.05
-0.4,-0.16,1.04
-0.41,-0.15,1.05
-0.42,-0.15,1.05
-0.44,-0.16,1.04
-0.45,-0.15,1.02
0.17,-0.86,0.91
0.2,-0.89,0.91
0.22,-0.91,0.9
0.25,-0.87,0.88
0.28,-0.8,0.86
0.25,-0.78,0.87
0.29,-0.76,0.87
0.36,-0.77,0.87
0.37,-0.78,0.92
0.34,-0.75,1
0.34,-0.71,1.03
0.35,-0.66,0.99
0.32,-0.6,0.93
0.28,-0.58,0.88
0.29,-0.58,0.86
0.33,-0.6,0.86
0.38,-0.65,0.84
0.41,-0.71,0.85
0.47,-0.72,0.87
0.5,-0.71,0.85
0.48,-0.69,0.81
0.41,-0.66,0.76
0.36,-0.66,0.75
0.33,-0.68,0.77
0.33,-0.72,0.8
0.34,-0.74,0.8
0.36,-0.74,0.79
0.43,-0.75,0.8
0.46,-0.76,0.84
0.44,-0.74,0.86
0.45,-0.73,0.83
0.41,-0.74,0.81
0.34,-0.75,0.81
0.33,-0.73,0.85
0.3,-0.74,0.86
0.28,-0.76,0.83
0.31,-0.75,0.81
0.27,-0.75,0.83
0.1,-0.72,0.98
-0.01,-0.67,1.13
-0.01,-0.66,1.12
0.1,-0.69,1
0.29,-0.72,0.88
0.44,-0.73,0.79
0.52,-0.71,0.62
0.47,-0.71,0.62
0.42,-0.72,0.64
0.41,-0.73,0.65
0.41,-0.73,0.66
0.4,-0.71,0.64
0.4,-0.69,0.62
0.39,-0.68,0.62
0.39,-0.67,0.61
0.39,-0.67,0.59
0.41,-0.66,0.57
0.42,-0.66,0.54
0.43,-0.66,0.52
0.43,-0.66,0.51
0.43,-0.65,0.49
0.44,-0.65,0.48
0.45,-0.66,0.47
0.44,-0.68,0.47
0.44,-0.72,0.45
0.45,-0.76,0.44
0.44,-0.81,0.43
0.43,-0.86,0.43
0.42,-0.9,0.42
0.41,-0.95,0.42
0.41,-1.01,0.4
0.4,-1.04,0.39
0.38,-1.08,0.36
0.33,-1.1,0.33
0.32,-1.12,0.28
0.28,-1.1,0.23
0.27,-1.08,0.21
0.27,-1.07,0.2
0.27,-1.09,0.18
0.28,-1.11,0.14
0.3,-1.13,0.11
0.32,-1.12,0.06
0.34,-1.1,0.02
0.34,-1.07,0.02
0.35,-1.04,0.02
0.38,-1.01,-0.01
0.42,-0.98,-0.03
0.39,-0.96,-0.02
0.36,-0.93,-0.01
0.36,-0.88,-0.01
0.36,-0.83,-0.02
0.36,-0.77,-0.02
0.38,-0.73,-0.04
0.39,-0.72,-0.05
0.38,-0.74,-0.03
0.35,-0.77,-0.03
0.36,-0.76,-0.02
0.37,-0.74,0.02
0.36,-0.72,0.03
0.35,-0.71,0.02
0.41,-0.71,0.03
0.48,-0.72,0.07
0.51,-0.73,0.12
0.48,-0.73,0.17
0.43,-0.71,0.2
0.41,-0.68,0.22
0.43,-0.67,0.24
0.46,-0.68,0.28
0.44,-0.72,0.29
0.42,-0.76,0.28
0.47,-0.77,0.28
0.53,-0.79,0.33
0.59,-0.82,0.41
0.62,-0.87,0.48
0.6,-0.91,0.53
0.59,-0.93,0.57
0.6,-0.94,0.6
0.59,-0.94,0.6
0.58,-0.95,0.58
0.61,-0.95,0.57
0.62,-0.93,0.55
0.6,-0.93,0.55
0.57,-0.95,0.54
0.56,-0.98,0.54
0.6,-1.01,0.57
0.63,-1.06,0.45
0.9,-1.22,0.83
1.42,-1.48,1.39
1.35,-1.6,1.61
0.89,-1.45,1.69
0.67,-1.16,1.37
0.52,-0.96,0.97
0.38,-0.78,0.68
0.3,-0.63,0.5
0.28,-0.53,0.37
0.3,-0.46,0.29
0.31,-0.44,0.27
0.27,-0.42,0.26
0.23,-0.39,0.29
0.22,-0.38,0.32
