Acc_x,Acc_y,Acc_z
0.25,-1.07,0.33
0.24,-1.07,0.35
0.23,-1.09,0.36
0.21,-1.09,0.39
0.19,-1.03,0.43
0.18,-1.04,0.45
0.15,-1.11,0.46
0.11,-1.1,0.48
0.06,-1.14,0.5
0.02,-1.15,0.53
-0.05,-1.17,0.55
-0.05,-1.15,0.57
-0.06,-1.17,0.58
-0.07,-1.19,0.58
-0.06,-1.18,0.58
-0.06,-1.18,0.57
-0.04,-1.18,0.57
-0.03,-1.16,0.6
-0.03,-1.14,0.62
-0.01,-1.11,0.64
0,-1.09,0.64
-0.01,-1.08,0.64
0,-1.07,0.62
0,-1.06,0.6
0,-1.05,0.6
0.01,-1.03,0.59
0.02,-1.02,0.58
0.03,-1.02,0.58
0.05,-1.02,0.58
0.06,-1.02,0.58
0.08,-1.02,0.58
0.09,-1.03,0.58
0.1,-1.03,0.58
0.11,-1.03,0.57
0.11,-1.05,0.58
0.11,-1.06,0.59
0.11,-1.08,0.6
0.11,-1.1,0.61
0.11,-1.11,0.62
0.11,-1.11,0.63
0.11,-1.14,0.64
0.1,-1.16,0.66
0.09,-1.16,0.67
0.08,-1.15,0.68
0.07,-1.14,0.68
0.06,-1.12,0.68
0.04,-1.11,0.68
0.03,-1.09,0.68
0.03,-1.06,0.66
0.03,-1.04,0.66
0.03,-1.03,0.66
0.03,-1.03,0.66
0.03,-1.01,0.66
0.04,-0.99,0.65
0.04,-0.95,0.64
0.04,-0.93,0.63
0.04,-0.91,0.63
0.04,-0.91,0.63
0.05,-0.9,0.62
0.05,-0.88,0.61
0.06,-0.85,0.6
0.07,-0.83,0.6
0.09,-0.77,0.59
0.09,-0.75,0.6
0.1,-0.73,0.62
0.09,-0.71,0.63
0.09,-0.7,0.64
0.08,-0.69,0.65
0.09,-0.68,0.64
0.1,-0.66,0.63
0.12,-0.63,0.63
0.12,-0.62,0.65
0.12,-0.62,0.69
0.14,-0.62,0.72
0.16,-0.63,0.73
0.17,-0.61,0.75
0.19,-0.57,0.75
0.21,-0.54,0.74
0.23,-0.52,0.73
0.26,-0.52,0.73
0.29,-0.55,0.73
0.31,-0.58,0.75
0.31,-0.59,0.79
0.3,-0.56,0.83
0.28,-0.51,0.88
0.27,-0.45,0.92
0.26,-0.4,0.95
0.27,-0.37,0.97
0.28,-0.35,0.94
0.31,-0.36,0.91
0.3,-0.37,0.89
0.29,-0.39,0.89
0.28,-0.4,0.9
0.28,-0.4,0.9
0.27,-0.39,0.91
0.26,-0.37,0.92
0.25,-0.36,0.93
0.25,-0.36,0.92
0.25,-0.37,0.91
0.26,-0.37,0.89
0.28,-0.37,0.89
0.29,-0.36,0.89
0.3,-0.35,0.89
0.3,-0.34,0.89
0.29,-0.34,0.9
0.29,-0.34,0.9
0.28,-0.35,0.92
0.27,-0.35,0.94
0.26,-0.35,0.94
0.27,-0.35,0.94
0.26,-0.35,0.94
0.23,-0.35,0.93
0.23,-0.35,0.93
0.23,-0.36,0.93
0.22,-0.37,0.94
0.22,-0.36,0.95
0.22,-0.35,0.96
0.22,-0.35,0.96
0.22,-0.36,0.95
0.22,-0.36,0.93
0.23,-0.36,0.93
0.23,-0.35,0.95
0.23,-0.35,0.97
0.23,-0.35,0.98
0.22,-0.35,0.97
0.21,-0.36,0.97
0.2,-0.37,0.98
0.19,-0.37,0.98
0.19,-0.35,0.97
0.19,-0.35,0.96
0.2,-0.33,0.96
0.19,-0.28,0.98
0.19,-0.22,0.99
0.2,-0.16,1.01
0.21,-0.08,1.04
0.23,-0.04,1.05
0.24,-0.03,1.03
0.24,-0.02,1.03
0.23,-0.04,1.03
0.22,-0.06,1.03
0.22,-0.08,1.04
0.23,-0.09,1.04
0.24,-0.11,1.04
0.25,-0.13,1.03
0.27,-0.14,1.02
0.28,-0.15,1.02
0.28,-0.15,1.01
0.28,-0.15,1
0.28,-0.15,1
0.28,-0.17,1.01
0.26,-0.16,1.02
0.25,-0.16,1.02
0.25,-0.18,1.03
0.23,-0.15,1.05
0.22,-0.15,1.05
0.22,-0.13,1.05
0.21,-0.11,1.04
0.19,-0.11,1.03
0.18,-0.1,1.02
0.18,-0.09,1.02
0.17,-0.09,1.03
0.17,-0.08,1.04
0.16,-0.06,1.04
0.16,-0.06,1.04
0.16,-0.05,1.04
0.16,-0.05,1.04
0.17,-0.05,1.05
0.19,-0.04,1.06
0.2,-0.06,1.06
0.22,-0.1,1.05
0.22,-0.16,1.05
0.23,-0.21,1.07
0.24,-0.23,1.07
0.26,-0.25,1.06
0.29,-0.28,1.03
0.31,-0.31,0.99
0.32,-0.35,0.95
0.34,-0.36,0.92
0.35,-0.34,0.91
0.35,-0.31,0.93
0.36,-0.27,0.97
0.36,-0.24,1.03
0.37,-0.19,1.07
0.38,-0.13,1.09
0.38,-0.08,1.09
0.38,-0.05,1.1
0.36,-0.04,1.12
0.33,-0.03,1.16
0.3,-0.04,1.18
0.29,-0.06,1.16
0.29,-0.08,1.12
0.3,-0.1,1.09
0.3,-0.14,1.06
0.3,-0.18,1.05
0.31,-0.21,1.03
0.32,-0.23,1.02
0.33,-0.25,0.99
0.33,-0.25,0.97
0.33,-0.24,0.94
0.33,-0.25,0.93
0.33,-0.26,0.92
0.32,-0.26,0.92
0.31,-0.26,0.92
0.3,-0.26,0.92
0.29,-0.25,0.91
0.28,-0.25,0.92
0.28,-0.24,0.93
0.28,-0.22,0.95
0.27,-0.21,0.96
0.27,-0.22,0.97
0.26,-0.22,0.98
0.25,-0.22,0.99
0.24,-0.22,1
0.23,-0.21,1.01
0.21,-0.18,1.02
0.17,-0.14,1.03
0.17,-0.08,1.04
0.19,-0.04,1.04
0.18,-0.03,1.05
0.2,0.07,1.07
0.2,0.1,1.07
0.2,0.1,1.06
0.2,0.08,1.06
0.2,0.04,1.06
0.18,0,1.05
0.18,-0.05,1.05
0.19,-0.09,1.04
0.21,-0.13,1.02
0.25,-0.15,1
0.27,-0.15,0.99
0.28,-0.16,0.98
0.29,-0.16,0.97
0.3,-0.14,0.97
0.29,-0.15,0.97
0.27,-0.17,0.95
0.25,-0.16,0.96
0.24,-0.14,0.99
0.23,-0.14,1.01
0.22,-0.12,1.03
0.21,-0.1,1.04
0.2,-0.08,1.07
0.2,-0.06,1.08
0.18,-0.04,1.08
0.16,-0.03,1.08
0.15,-0.02,1.09
0.14,-0.03,1.08
0.16,-0.04,1.08
0.17,-0.05,1.08
0.18,-0.05,1.07
0.19,-0.06,1.07
0.19,-0.06,1.08
0.21,-0.06,1.08
0.23,-0.06,1.07
0.26,-0.05,1.06
0.27,-0.06,1.05
0.27,-0.06,1.06
0.27,-0.06,1.07
0.28,-0.05,1.08
0.29,-0.05,1.08
0.3,-0.06,1.08
0.32,-0.07,1.06
0.35,-0.1,1.05
0.38,-0.14,1.04
0.39,-0.17,1.02
0.4,-0.2,0.99
0.4,-0.22,0.96
0.41,-0.24,0.93
0.42,-0.25,0.91
0.42,-0.22,0.9
0.43,-0.21,0.91
0.44,-0.21,0.92
0.42,-0.19,0.93
0.4,-0.2,0.93
0.38,-0.2,0.93
0.34,-0.21,0.93
0.35,-0.24,0.91
0.36,-0.25,0.92
0.34,-0.24,0.93
0.34,-0.24,0.93
0.33,-0.25,0.95
0.32,-0.26,0.95
0.32,-0.27,0.95
0.3,-0.27,0.96
0.3,-0.26,0.96
0.29,-0.26,0.96
0.29,-0.26,0.97
0.29,-0.27,0.97
0.29,-0.27,0.97
0.28,-0.27,0.97
0.27,-0.28,0.97
0.27,-0.29,0.98
0.26,-0.29,0.98
0.26,-0.28,0.99
0.26,-0.26,0.99
0.27,-0.24,0.99
0.28,-0.23,0.99
0.29,-0.22,0.98
0.29,-0.18,0.99
0.28,-0.14,1.02
0.27,-0.09,1.05
0.27,-0.05,1.07
0.28,-0.03,1.08
0.27,-0.01,1.09
0.27,0,1.1
0.27,0.01,1.1
0.27,0.02,1.09
0.28,0.02,1.08
0.29,0.02,1.08
0.3,0,1.07
0.31,-0.01,1.06
0.31,-0.03,1.05
0.31,-0.04,1.03
0.31,-0.04,1.01
0.31,-0.04,0.99
0.31,-0.04,0.98
0.32,-0.04,0.96
0.33,-0.04,0.95
0.35,-0.04,0.93
0.36,-0.04,0.92
0.35,-0.05,0.9
0.34,-0.06,0.89
0.33,-0.07,0.88
0.34,-0.04,0.88
0.35,-0.07,0.85
0.34,-0.04,0.85
0.34,-0.04,0.85
0.35,-0.02,0.85
0.35,0.01,0.86
0.34,0.03,0.86
0.35,0.05,0.87
0.37,0.08,0.87
0.37,0.11,0.88
0.39,0.12,0.89
0.4,0.11,0.9
0.41,0.11,0.91
0.41,0.11,0.92
0.42,0.1,0.92
0.42,0.08,0.91
0.45,0.07,0.91
0.5,0.06,0.89
0.53,0.06,0.89
0.55,0.06,0.9
0.55,0.07,0.92
0.54,0.07,0.93
0.55,0.06,0.94
0.56,0.05,0.94
0.57,0.05,0.93
0.59,0.06,0.93
0.61,0.07,0.92
0.63,0.07,0.92
0.67,0.06,0.92
0.68,0.07,0.92
0.68,0.08,0.92
0.66,0.1,0.92
0.65,0.1,0.92
0.64,0.1,0.93
0.64,0.11,0.92
0.64,0.11,0.91
0.64,0.11,0.91
0.64,0.11,0.92
0.63,0.11,0.92
0.61,0.1,0.93
0.59,0.11,0.94
0.59,0.12,0.94
0.59,0.12,0.93
0.59,0.13,0.94
0.59,0.14,0.94
0.58,0.14,0.94
0.58,0.14,0.94
0.59,0.15,0.94
0.59,0.15,0.94
0.6,0.15,0.94
0.59,0.14,0.94
0.6,0.14,0.94
0.6,0.14,0.93
0.6,0.15,0.92
0.6,0.15,0.92
0.61,0.15,0.91
0.61,0.15,0.91
0.62,0.15,0.9
0.62,0.15,0.89
0.62,0.15,0.89
0.62,0.14,0.89
0.62,0.13,0.89
0.61,0.13,0.9
0.61,0.13,0.9
0.61,0.13,0.91
0.61,0.13,0.92
0.61,0.13,0.93
0.61,0.13,0.94
0.62,0.13,0.94
0.62,0.13,0.95
0.61,0.13,0.96
0.61,0.14,0.97
0.63,0.12,0.97
0.65,0.1,0.98
0.64,0.1,0.98
0.63,0.11,0.98
0.65,0.1,0.97
0.66,0.09,0.96
0.66,0.08,0.95
0.66,0.06,0.92
0.66,0.05,0.91
0.66,0.06,0.91
0.68,0.05,0.9
0.68,0,0.89
0.68,-0.01,0.89
0.68,-0.01,0.89
0.69,-0.04,0.89
0.69,-0.06,0.88
0.69,-0.06,0.88
0.68,-0.07,0.88
0.67,-0.07,0.89
0.67,-0.09,0.91
0.66,-0.1,0.93
0.65,-0.13,0.94
0.65,-0.17,0.91
0.65,-0.21,0.9
0.65,-0.27,0.88
0.64,-0.32,0.88
0.63,-0.36,0.9
0.62,-0.38,0.93
0.62,-0.39,0.96
0.63,-0.4,0.99
0.63,-0.42,0.99
0.62,-0.46,0.98
0.6,-0.5,0.96
0.57,-0.55,0.93
0.54,-0.6,0.94
0.53,-0.63,0.95
0.51,-0.66,0.95
0.51,-0.68,0.94
0.5,-0.7,0.93
0.48,-0.72,0.92
0.47,-0.73,0.92
0.45,-0.73,0.93
0.43,-0.75,0.93
0.4,-0.76,0.94
0.36,-0.74,0.96
0.34,-0.72,0.98
0.32,-0.67,1
0.3,-0.63,1.02
0.28,-0.61,1.04
0.25,-0.6,1.06
0.22,-0.59,1.06
0.19,-0.57,1.05
0.18,-0.53,1.03
0.17,-0.5,1.01
0.16,-0.48,0.99
0.17,-0.45,0.98
0.18,-0.42,0.99
0.19,-0.39,1
0.2,-0.37,1
0.21,-0.35,0.97
0.24,-0.3,0.95
0.25,-0.28,0.93
0.28,-0.26,0.93
0.3,-0.23,0.92
0.31,-0.22,0.91
0.33,-0.21,0.9
0.35,-0.19,0.9
0.39,-0.18,0.88
0.42,-0.2,0.86
0.42,-0.21,0.84
0.43,-0.18,0.83
0.45,-0.13,0.85
0.47,-0.07,0.9
0.47,-0.02,0.96
0.48,0.01,1.01
0.5,-0.02,1.03
0.51,-0.08,1.01
0.52,-0.14,0.96
0.5,-0.21,0.92
0.45,-0.25,0.9
0.41,-0.28,0.91
0.41,-0.29,0.94
0.41,-0.25,0.98
0.41,-0.24,1.01
0.43,-0.24,1.03
0.44,-0.2,1.04
0.46,-0.14,1.04
0.44,-0.12,1.06
0.4,-0.11,1.09
0.37,-0.09,1.12
0.35,-0.08,1.14
0.34,-0.07,1.14
0.36,-0.07,1.11
0.38,-0.09,1.08
0.4,-0.11,1.04
0.43,-0.12,1
0.45,-0.14,0.97
0.47,-0.16,0.95
0.49,-0.18,0.94
0.49,-0.2,0.92
0.49,-0.21,0.91
0.49,-0.22,0.9
0.5,-0.23,0.87
0.52,-0.23,0.86
0.53,-0.23,0.85
0.54,-0.24,0.84
0.54,-0.21,0.84
0.55,-0.24,0.84
0.55,-0.3,0.84
0.55,-0.33,0.85
0.55,-0.36,0.85
0.56,-0.41,0.85
0.56,-0.49,0.86
0.57,-0.53,0.87
0.57,-0.57,0.89
0.56,-0.6,0.91
0.54,-0.62,0.92
0.52,-0.65,0.93
0.5,-0.69,0.94
0.48,-0.71,0.95
0.46,-0.72,0.96
0.44,-0.72,0.97
0.42,-0.68,0.99
0.42,-0.63,1.02
0.42,-0.57,1.05
0.42,-0.54,1.08
0.39,-0.51,1.11
0.36,-0.49,1.13
0.33,-0.48,1.13
0.3,-0.47,1.14
0.29,-0.45,1.13
0.28,-0.44,1.11
0.27,-0.44,1.11
0.27,-0.44,1.1
0.27,-0.44,1.09
0.3,-0.43,1.07
0.32,-0.42,1.06
0.32,-0.41,1.05
0.32,-0.4,1.03
0.32,-0.38,1.01
0.33,-0.37,1
0.34,-0.36,0.99
0.35,-0.35,0.98
0.35,-0.33,0.97
0.37,-0.31,0.95
0.39,-0.3,0.94
0.4,-0.3,0.93
0.41,-0.3,0.92
0.41,-0.3,0.91
0.42,-0.31,0.9
0.43,-0.31,0.89
0.44,-0.31,0.88
0.44,-0.31,0.87
0.43,-0.27,0.87
0.44,-0.22,0.89
0.45,-0.17,0.92
0.48,-0.13,0.95
0.5,-0.14,0.98
0.52,-0.18,0.98
0.53,-0.24,0.96
0.52,-0.29,0.94
0.49,-0.32,0.91
0.47,-0.34,0.89
0.46,-0.36,0.88
0.45,-0.36,0.87
0.43,-0.34,0.86
0.44,-0.31,0.87
0.44,-0.28,0.9
0.43,-0.24,0.95
0.43,-0.2,0.99
0.43,-0.17,1.03
0.39,-0.17,1.08
0.34,-0.17,1.13
0.3,-0.17,1.16
0.26,-0.18,1.15
0.24,-0.18,1.14
0.22,-0.18,1.12
0.22,-0.18,1.12
0.24,-0.2,1.12
0.27,-0.2,1.11
0.3,-0.2,1.09
0.34,-0.19,1.07
0.37,-0.19,1.04
0.38,-0.2,1.03
0.38,-0.2,1.01
0.38,-0.2,1
0.39,-0.19,0.97
0.39,-0.18,0.94
0.4,-0.17,0.91
0.41,-0.16,0.9
0.42,-0.16,0.89
0.45,-0.19,0.9
0.45,-0.2,0.91
0.45,-0.21,0.92
0.45,-0.22,0.92
0.45,-0.24,0.92
0.44,-0.26,0.92
0.42,-0.27,0.93
0.41,-0.27,0.93
0.41,-0.28,0.92
0.41,-0.28,0.92
0.41,-0.3,0.93
0.4,-0.3,0.94
0.39,-0.3,0.95
0.38,-0.31,0.95
0.38,-0.32,0.96
0.38,-0.34,0.97
0.38,-0.35,0.97
0.38,-0.35,0.97
0.38,-0.35,0.98
0.38,-0.35,0.98
0.38,-0.37,0.99
0.37,-0.4,0.98
0.35,-0.43,0.99
0.34,-0.46,1
0.33,-0.48,1
0.33,-0.48,0.99
0.35,-0.48,0.99
0.35,-0.48,0.99
0.34,-0.48,1
0.34,-0.47,1.01
0.34,-0.46,1.04
0.33,-0.43,1.06
0.31,-0.4,1.07
0.29,-0.37,1.09
0.28,-0.34,1.1
0.26,-0.31,1.11
0.23,-0.3,1.11
0.21,-0.3,1.1
0.19,-0.28,1.08
0.18,-0.26,1.06
0.18,-0.24,1.05
0.18,-0.21,1.03
0.19,-0.19,1.01
0.21,-0.18,0.98
0.24,-0.16,0.96
0.27,-0.14,0.95
0.28,-0.13,0.94
0.29,-0.12,0.93
0.29,-0.11,0.93
0.3,-0.11,0.92
0.31,-0.11,0.91
0.32,-0.12,0.88
0.35,-0.12,0.86
0.38,-0.11,0.85
0.4,-0.09,0.85
0.42,-0.08,0.86
0.44,-0.08,0.89
0.45,-0.08,0.92
0.47,-0.1,0.94
0.48,-0.14,0.95
0.48,-0.19,0.95
0.47,-0.22,0.94
0.44,-0.25,0.94
0.41,-0.27,0.96
0.39,-0.28,0.99
0.39,-0.27,1
0.38,-0.28,0.99
0.37,-0.28,0.98
0.35,-0.28,0.96
0.34,-0.28,0.95
0.34,-0.26,0.97
0.32,-0.22,1.02
0.3,-0.2,1.07
0.27,-0.18,1.12
0.23,-0.16,1.17
0.18,-0.14,1.2
0.14,-0.14,1.2
0.1,-0.15,1.16
0.03,-0.14,1.15
0.02,-0.14,1.17
0.01,-0.13,1.2
0.02,-0.12,1.21
0.02,-0.11,1.2
0.03,-0.1,1.17
0.03,-0.09,1.15
0.03,-0.09,1.11
0.03,-0.08,1.09
0.03,-0.07,1.07
0.03,-0.05,1.05
0.03,-0.04,1.03
0.03,-0.04,1
0.03,-0.03,0.98
0.03,-0.03,0.97
0.04,-0.03,0.96
0.06,-0.04,0.94
0.07,-0.07,0.93
0.07,-0.09,0.92
0.07,-0.1,0.91
0.06,-0.09,0.92
0.06,-0.08,0.92
0.07,-0.07,0.92
0.06,-0.08,0.9
0.05,-0.1,0.89
0.04,-0.13,0.9
0.02,-0.13,0.96
0.01,-0.12,0.98
0,-0.11,0.99
0,-0.11,1
0,-0.12,1.01
-0.01,-0.14,1
-0.01,-0.16,1
-0.02,-0.18,0.98
-0.03,-0.2,0.96
-0.04,-0.2,0.94
-0.03,-0.2,0.93
-0.03,-0.18,0.93
-0.02,-0.16,0.94
-0.02,-0.15,0.96
-0.02,-0.13,0.97
-0.02,-0.1,0.97
-0.02,-0.09,0.97
-0.03,-0.08,0.97
-0.04,-0.06,0.97
-0.05,-0.05,0.98
-0.07,-0.04,0.99
-0.07,-0.03,1.01
-0.08,-0.02,1.03
-0.1,-0.02,1.05
-0.12,-0.02,1.07
-0.14,-0.02,1.09
-0.15,-0.03,1.09
-0.18,-0.02,1.09
-0.19,-0.02,1.09
-0.19,-0.02,1.09
-0.19,-0.01,1.1
-0.18,-0.02,1.11
-0.18,-0.02,1.11
-0.18,-0.02,1.1
-0.18,-0.03,1.09
-0.18,-0.04,1.08
-0.19,-0.05,1.07
-0.19,-0.05,1.06
-0.2,-0.06,1.05
-0.2,-0.06,1.05
-0.2,-0.06,1.05
-0.2,-0.06,1.04
-0.2,-0.06,1.04
-0.2,-0.07,1.03
-0.21,-0.07,1.03
-0.22,-0.07,1.03
-0.22,-0.06,1.02
-0.23,-0.05,1.02
-0.22,-0.05,1.01
-0.22,-0.04,1.01
-0.21,-0.04,1
-0.19,-0.04,1
-0.19,-0.04,0.99
-0.16,-0.04,1.01
-0.14,-0.04,1.01
-0.14,-0.05,1.01
-0.14,-0.06,1.01
-0.13,-0.07,1.01
-0.13,-0.08,1.01
-0.12,-0.08,1.01
-0.11,-0.09,1.01
-0.1,-0.09,1.01
-0.08,-0.1,1.01
-0.07,-0.11,1.01
-0.06,-0.12,1.01
-0.05,-0.13,1.01
-0.05,-0.14,1
-0.04,-0.15,1
-0.04,-0.16,1.01
-0.03,-0.17,1.01
-0.02,-0.17,1.02
-0.01,-0.18,1.02
0,-0.19,1.03
0.01,-0.2,1.03
0.02,-0.22,1.03
0.03,-0.22,1.03
0.05,-0.21,1.03
0.06,-0.2,1.03
0.06,-0.19,1.05
0.03,-0.19,1.07
0.03,-0.2,1.07
0.03,-0.21,1.07
0.04,-0.21,1.07
0.04,-0.22,1.07
0.05,-0.21,1.08
0.06,-0.21,1.09
0.06,-0.19,1.11
0.04,-0.17,1.12
0.03,-0.16,1.14
0.03,-0.14,1.16
0.04,-0.13,1.16
0.05,-0.12,1.15
0.06,-0.13,1.15
0.07,-0.13,1.15
0.08,-0.13,1.14
0.09,-0.14,1.14
0.1,-0.14,1.15
0.11,-0.14,1.15
0.11,-0.13,1.14
0.13,-0.12,1.12
0.14,-0.11,1.1
0.16,-0.11,1.08
0.17,-0.11,1.07
0.18,-0.11,1.06
0.19,-0.11,1.02
0.19,-0.1,1
0.2,-0.1,0.98
0.21,-0.09,0.97
0.22,-0.09,0.97
0.23,-0.08,0.97
0.23,-0.08,0.96
0.23,-0.08,0.96
0.23,-0.09,0.96
0.23,-0.1,0.94
0.24,-0.11,0.93
0.25,-0.12,0.93
0.25,-0.14,0.92
0.25,-0.16,0.91
0.26,-0.17,0.9
0.26,-0.16,0.89
0.26,-0.15,0.9
0.27,-0.14,0.93
0.28,-0.13,0.97
0.28,-0.11,1.01
0.28,-0.1,1.04
0.29,-0.09,1.05
0.3,-0.09,1.06
0.32,-0.1,1.07
0.32,-0.12,1.08
0.3,-0.14,1.1
0.29,-0.16,1.11
0.32,-0.15,1.11
0.35,-0.15,1.1
0.37,-0.14,1.09
0.39,-0.13,1.09
0.41,-0.11,1.09
0.41,-0.09,1.09
0.41,-0.09,1.08
0.4,-0.09,1.07
0.4,-0.1,1.05
0.42,-0.24,0.9
0.42,-0.24,0.9
0.44,-0.25,0.86
0.44,-0.24,0.84
0.44,-0.23,0.82
0.43,-0.24,0.78
0.43,-0.24,0.78
0.43,-0.22,0.77
0.42,-0.2,0.78
0.41,-0.19,0.79
0.4,-0.18,0.79
0.39,-0.18,0.79
0.38,-0.19,0.81
0.38,-0.19,0.83
0.37,-0.18,0.85
0.36,-0.17,0.87
0.34,-0.17,0.88
0.32,-0.17,0.89
0.3,-0.15,0.91
0.28,-0.14,0.92
0.27,-0.15,0.92
0.25,-0.16,0.92
0.23,-0.11,0.94
0.21,-0.05,0.97
0.24,0,1
0.29,0.06,1.01
0.31,0.15,1.03
0.32,0.18,1.04
0.29,0.2,1.06
0.29,0.24,1.08
0.29,0.24,1.12
0.3,0.25,1.16
0.31,0.26,1.22
0.33,0.25,1.27
0.36,0.22,1.31
0.38,0.19,1.34
0.4,0.15,1.34
0.4,0.1,1.32
0.39,0.03,1.32
0.39,0.01,1.3
0.39,-0.02,1.27
0.4,-0.03,1.24
0.42,-0.04,1.19
0.45,-0.05,1.14
0.48,-0.07,1.07
0.5,-0.09,0.99
0.51,-0.1,0.91
0.52,-0.12,0.85
0.51,-0.12,0.81
0.5,-0.12,0.79
0.49,-0.1,0.77
0.47,-0.07,0.75
0.46,-0.07,0.74
0.46,-0.07,0.72
0.46,-0.07,0.71
0.46,-0.09,0.69
0.47,-0.11,0.68
0.47,-0.14,0.67
0.48,-0.16,0.68
0.49,-0.16,0.69
0.5,-0.18,0.7
0.5,-0.17,0.73
0.48,-0.1,0.76
0.47,-0.04,0.8
0.46,0.01,0.88
0.46,0.05,0.9
0.45,0.09,0.93
0.45,0.1,0.96
0.43,0.1,1
0.41,0.13,1.09
0.41,0.16,1.21
0.39,0.17,1.34
0.37,0.14,1.42
0.35,0.1,1.41
0.34,0.06,1.34
0.32,0.02,1.24
0.3,-0.02,1.16
0.29,-0.07,1.16
0.33,-0.1,1.19
0.4,-0.09,1.21
0.43,-0.08,1.17
0.44,-0.1,1.08
0.44,-0.13,0.99
0.44,-0.16,0.93
0.43,-0.17,0.9
0.4,-0.18,0.86
0.36,-0.18,0.82
0.33,-0.18,0.78
0.32,-0.16,0.74
0.3,-0.15,0.72
0.28,-0.12,0.69
0.27,-0.12,0.69
0.27,-0.11,0.69
0.26,-0.08,0.7
0.27,-0.03,0.72
0.29,0.01,0.76
0.26,0.03,0.82
0.21,0.08,0.87
0.16,0.12,0.91
0.16,0.16,0.95
0.15,0.2,0.97
0.13,0.2,0.99
0.14,0.23,1.01
0.12,0.27,1.01
0.08,0.29,1.03
0.06,0.31,1.08
0.04,0.33,1.16
0.04,0.39,1.26
0.03,0.44,1.37
0.04,0.43,1.45
0.04,0.39,1.47
0.03,0.33,1.43
0.03,0.29,1.33
0.04,0.26,1.23
0.02,0.2,1.19
0.02,0.15,1.23
0.06,0.1,1.22
0.15,0.06,1.14
0.2,0.04,1.06
0.26,0.03,0.99
0.29,0.02,0.93
0.29,0,0.89
0.29,-0.01,0.86
0.29,-0.01,0.83
0.29,-0.03,0.8
0.29,-0.04,0.77
0.29,-0.03,0.75
0.31,-0.03,0.72
0.31,-0.08,0.7
0.31,-0.14,0.67
0.35,-0.15,0.64
0.37,-0.16,0.63
0.35,-0.15,0.63
0.34,-0.1,0.65
0.33,-0.04,0.68
0.3,-0.02,0.71
0.27,-0.01,0.74
0.27,0.07,0.79
0.28,0.14,0.82
0.29,0.17,0.86
0.27,0.17,0.9
0.23,0.19,0.94
0.19,0.27,1.11
0.15,0.28,1.22
0.13,0.26,1.3
0.12,0.23,1.3
0.11,0.2,1.26
0.1,0.15,1.21
0.1,0.11,1.17
0.1,0.07,1.14
0.12,0.03,1.14
0.15,0,1.15
0.19,-0.03,1.14
0.22,-0.06,1.11
0.25,-0.08,1.08
0.25,-0.1,1.03
0.25,-0.12,0.98
0.23,-0.15,0.95
0.22,-0.15,0.92
0.22,-0.13,0.89
0.22,-0.11,0.86
0.23,-0.09,0.84
0.23,-0.09,0.83
0.24,-0.11,0.81
0.22,-0.1,0.79
0.2,-0.06,0.78
0.15,0.01,0.79
0.08,0.11,0.8
0.06,0.23,0.83
0.01,0.37,0.83
0.06,0.46,0.84
0.11,0.53,0.83
0.12,0.59,0.84
0.12,0.64,0.89
0.11,0.67,0.98
0.1,0.69,1.08
0.09,0.68,1.16
0.09,0.63,1.23
0.07,0.57,1.27
0.06,0.49,1.24
0.07,0.4,1.2
0.12,0.32,1.15
0.17,0.25,1.11
0.21,0.17,1.1
0.24,0.09,1.11
0.26,0.02,1.13
0.29,-0.03,1.13
0.31,-0.04,1.1
0.32,-0.04,1.05
0.33,-0.04,0.99
0.35,-0.04,0.93
0.38,-0.06,0.86
0.4,-0.08,0.8
0.39,-0.11,0.76
0.38,-0.11,0.71
0.35,-0.09,0.7
0.33,-0.02,0.69
0.32,-0.02,0.69
0.31,-0.05,0.7
0.29,-0.02,0.71
0.29,0.02,0.73
0.29,0.05,0.74
0.3,0.05,0.75
0.29,0.07,0.77
0.31,0.09,0.83
0.34,0.12,0.92
0.36,0.16,1.04
0.38,0.22,1.16
0.37,0.28,1.27
0.35,0.32,1.37
0.33,0.31,1.42
0.32,0.26,1.43
0.29,0.18,1.39
0.21,0.09,1.37
0.14,0.01,1.38
0.1,-0.05,1.39
0.1,-0.1,1.38
0.14,-0.13,1.34
0.2,-0.15,1.27
0.25,-0.18,1.2
0.28,-0.21,1.07
0.28,-0.27,0.99
0.27,-0.3,0.92
0.25,-0.31,0.85
0.22,-0.31,0.81
0.2,-0.28,0.78
0.18,-0.23,0.76
0.17,-0.18,0.74
0.17,-0.13,0.74
0.18,-0.08,0.75
0.18,-0.05,0.76
0.17,-0.02,0.75
0.14,0.06,0.75
0.11,0.14,0.76
0.08,0.18,0.77
0.05,0.24,0.78
0.06,0.32,0.82
0.1,0.36,0.87
0.12,0.39,0.92
0.13,0.43,0.94
0.15,0.43,0.93
0.17,0.45,0.93
0.17,0.47,0.95
0.16,0.48,1.03
0.17,0.48,1.14
0.19,0.47,1.25
0.21,0.43,1.35
0.24,0.32,1.32
0.24,0.26,1.26
0.23,0.2,1.2
0.23,0.13,1.16
0.23,0.08,1.16
0.27,0.05,1.15
0.33,0.02,1.13
0.38,0.01,1.07
0.41,-0.01,1
0.42,-0.04,0.93
0.42,-0.06,0.86
0.42,-0.07,0.81
0.43,-0.06,0.76
0.44,-0.07,0.72
0.44,-0.09,0.68
0.44,-0.08,0.65
0.45,-0.08,0.61
0.44,-0.1,0.58
0.42,-0.12,0.56
0.4,-0.11,0.56
0.37,-0.1,0.58
0.37,-0.09,0.59
0.38,-0.08,0.61
0.37,-0.05,0.68
0.36,0.02,0.8
0.34,0.07,0.9
0.31,0.17,1.08
0.28,0.2,1.15
0.26,0.22,1.2
0.26,0.25,1.26
0.27,0.29,1.32
0.28,0.31,1.41
0.28,0.31,1.51
0.27,0.29,1.56
0.24,0.26,1.57
0.22,0.23,1.53
0.22,0.17,1.45
0.23,0.1,1.38
0.26,0.04,1.31
0.32,-0.01,1.25
0.37,-0.06,1.18
0.4,-0.1,1.1
0.4,-0.15,1.02
0.39,-0.19,0.95
0.38,-0.23,0.86
0.38,-0.27,0.78
0.37,-0.29,0.71
0.36,-0.29,0.64
0.34,-0.27,0.6
0.32,-0.24,0.58
0.31,-0.18,0.57
0.29,-0.1,0.58
0.28,0.1,0.61
0.3,0.09,0.62
0.3,0.14,0.65
0.29,0.19,0.7
0.27,0.25,0.76
0.26,0.35,0.81
0.26,0.42,0.83
0.23,0.48,0.84
0.25,0.53,0.84
0.29,0.55,0.81
0.25,0.55,0.81
0.22,0.57,0.85
0.23,0.56,0.91
0.27,0.54,0.97
0.3,0.54,1.03
0.32,0.53,1.1
0.34,0.5,1.18
0.35,0.46,1.27
0.34,0.41,1.31
0.33,0.37,1.32
0.32,0.32,1.29
0.31,0.27,1.23
0.31,0.21,1.17
0.29,0.15,1.15
0.27,0.1,1.15
0.26,0.07,1.13
0.28,0.07,1.04
0.3,0.07,0.97
0.31,0.08,0.91
0.31,0.1,0.84
0.3,0.1,0.79
0.3,0.1,0.75
0.29,0.09,0.72
0.29,0.07,0.69
0.29,0.05,0.67
0.29,0.03,0.65
0.3,0.01,0.64
0.3,0.02,0.64
0.31,0.04,0.65
0.32,0.06,0.68
0.31,0.1,0.72
0.29,0.14,0.76
0.27,0.17,0.79
0.24,0.19,0.81
0.22,0.21,0.82
0.19,0.22,0.82
0.18,0.23,0.85
0.19,0.24,0.9
0.21,0.26,0.98
0.23,0.3,1.1
0.23,0.35,1.23
0.23,0.38,1.36
0.22,0.37,1.48
0.16,0.33,1.45
0.13,0.28,1.41
0.11,0.23,1.37
0.1,0.17,1.31
0.13,0.1,1.28
0.17,0.03,1.26
0.24,-0.02,1.24
0.29,-0.06,1.19
0.33,-0.08,1.12
0.34,-0.11,1.02
0.33,-0.13,0.93
0.33,-0.14,0.85
0.34,-0.14,0.78
0.34,-0.13,0.72
0.33,-0.13,0.67
0.33,-0.13,0.64
0.32,-0.12,0.61
0.31,-0.09,0.59
0.29,-0.05,0.59
0.28,0,0.61
0.26,0.05,0.63
0.25,0.11,0.63
0.22,0.14,0.6
0.19,0.2,0.6
0.14,0.28,0.61
0.13,0.38,0.67
0.15,0.42,0.7
0.18,0.51,0.75
0.21,0.58,0.79
0.27,0.62,0.82
0.31,0.63,0.86
0.34,0.6,0.92
0.33,0.54,0.99
0.3,0.47,1.06
0.29,0.42,1.14
0.29,0.37,1.22
0.32,0.32,1.27
0.34,0.27,1.28
0.35,0.2,1.25
0.36,0.14,1.21
0.37,0.09,1.16
0.37,0.05,1.12
0.38,0.02,1.1
0.4,-0.01,1.07
0.41,-0.02,1.02
0.41,-0.03,0.95
0.41,-0.05,0.89
0.4,-0.06,0.84
0.38,-0.04,0.8
0.36,-0.03,0.77
0.34,0,0.75
0.31,0.04,0.73
0.28,0.06,0.76
0.26,0.09,0.81
0.27,0.12,0.87
0.28,0.17,0.95
0.29,0.23,1.04
0.3,0.26,1.14
0.29,0.27,1.27
0.28,0.25,1.36
0.27,0.21,1.38
0.25,0.17,1.34
0.24,0.11,1.28
0.23,0.05,1.24
0.24,0,1.26
0.29,-0.04,1.29
0.36,-0.08,1.27
0.42,-0.13,1.21
0.49,-0.18,1.12
0.54,-0.21,1.03
0.56,-0.23,0.96
0.56,-0.23,0.9
0.54,-0.23,0.83
0.52,-0.23,0.77
0.49,-0.22,0.72
0.46,-0.21,0.7
0.43,-0.19,0.7
0.41,-0.14,0.72
0.39,0,0.73
0.39,0.07,0.74
0.36,0.14,0.76
0.32,0.18,0.77
0.29,0.23,0.79
0.26,0.32,0.83
0.25,0.38,0.85
0.26,0.42,0.86
0.25,0.48,0.89
0.25,0.51,0.92
0.26,0.52,0.96
0.27,0.52,1.01
0.27,0.53,1.08
0.28,0.54,1.15
0.28,0.51,1.21
0.28,0.46,1.25
0.28,0.4,1.28
0.28,0.35,1.27
0.3,0.3,1.24
0.31,0.25,1.19
0.33,0.2,1.12
0.34,0.15,1.05
0.36,0.08,1.01
0.42,0.05,1
0.48,0.06,0.97
0.51,0.09,0.87
0.53,0.07,0.81
0.53,0.06,0.77
0.52,0.05,0.74
0.51,0.01,0.71
0.53,-0.03,0.67
0.52,-0.07,0.65
0.51,-0.11,0.64
0.51,-0.13,0.62
0.49,-0.11,0.61
0.48,-0.1,0.6
0.47,-0.12,0.61
0.43,-0.11,0.65
0.39,-0.07,0.72
0.36,0.01,0.81
0.33,0.08,0.9
0.33,0.11,0.97
0.33,0.11,1.05
0.31,0.12,1.13
0.26,0.15,1.22
0.21,0.18,1.3
0.15,0.22,1.36
0.11,0.24,1.41
0.07,0.26,1.44
0,0.27,1.46
-0.08,0.27,1.46
-0.13,0.25,1.43
-0.15,0.12,1.33
-0.07,0.05,1.3
0.04,0,1.24
0.15,-0.05,1.14
0.24,-0.1,1.02
0.3,-0.14,0.91
0.35,-0.19,0.81
0.38,-0.23,0.75
0.39,-0.26,0.71
0.4,-0.26,0.68
0.38,-0.25,0.67
0.34,-0.24,0.68
0.3,-0.2,0.69
0.27,-0.15,0.68
0.27,-0.1,0.68
0.27,-0.05,0.69
0.28,0,0.71
0.28,0.05,0.71
0.26,0.12,0.71
0.24,0.18,0.7
0.21,0.22,0.7
0.24,0.34,0.72
0.26,0.41,0.75
0.26,0.45,0.8
0.26,0.49,0.83
0.27,0.5,0.86
0.29,0.56,0.92
0.31,0.58,0.98
0.33,0.57,1.05
0.34,0.54,1.14
0.35,0.5,1.21
0.35,0.43,1.25
0.36,0.35,1.26
0.37,0.25,1.22
0.38,0.17,1.18
0.38,0.1,1.15
0.42,0.04,1.13
0.48,0.03,1.09
0.51,0.03,1.05
0.53,0.05,1.01
0.54,0.06,0.97
0.53,0.07,0.93
0.51,0.08,0.9
0.48,0.09,0.86
0.44,0.1,0.8
0.4,0.12,0.75
0.38,0.14,0.7
0.36,0.14,0.67
0.35,0.12,0.64
0.34,0.09,0.62
0.35,0.07,0.6
0.35,0.06,0.58
0.36,0.03,0.61
0.36,0.04,0.65
0.34,0.1,0.69
0.35,0.15,0.71
0.37,0.2,0.74
0.38,0.24,0.78
0.4,0.25,0.82
0.39,0.24,0.89
0.39,0.23,0.98
0.39,0.26,1.09
0.39,0.29,1.22
0.4,0.31,1.33
0.4,0.31,1.38
0.38,0.29,1.36
0.35,0.27,1.29
0.31,0.23,1.21
0.28,0.15,1.17
0.31,0.06,1.21
0.4,0.03,1.25
0.49,0.02,1.23
0.57,0,1.15
0.61,-0.03,1.06
0.64,-0.05,0.94
0.63,-0.07,0.84
0.6,-0.09,0.81
0.59,-0.1,0.81
0.58,-0.05,0.74
0.54,-0.02,0.71
0.52,0.02,0.69
0.5,0.07,0.68
0.48,0.11,0.67
0.47,0.13,0.66
0.46,0.14,0.66
0.44,0.15,0.67
0.37,0.23,0.68
0.35,0.32,0.67
0.39,0.39,0.64
0.45,0.5,0.63
0.53,0.58,0.66
0.56,0.55,0.69
0.57,0.54,0.72
0.58,0.63,0.73
0.59,0.7,0.73
0.6,0.72,0.71
0.6,0.74,0.71
0.61,0.74,0.75
0.66,0.73,0.82
0.72,0.68,0.9
0.76,0.64,0.98
0.79,0.6,1.03
0.81,0.57,1.04
0.81,0.53,1.02
0.79,0.49,0.98
0.76,0.45,0.98
0.75,0.43,1
0.75,0.41,1.02
0.74,0.4,1.02
0.72,0.38,1
0.68,0.36,0.97
0.63,0.34,0.93
0.59,0.32,0.89
0.55,0.31,0.86
0.52,0.29,0.84
0.5,0.26,0.82
0.47,0.23,0.8
0.43,0.2,0.77
0.4,0.18,0.73
0.39,0.19,0.68
0.39,0.18,0.66
0.38,0.15,0.63
0.37,0.14,0.61
0.37,0.14,0.59
0.37,0.15,0.58
0.36,0.16,0.58
0.36,0.18,0.59
0.35,0.22,0.6
0.36,0.24,0.61
0.39,0.21,0.62
0.42,0.19,0.62
0.42,0.15,0.62
0.44,0.16,0.64
0.47,0.17,0.69
0.49,0.19,0.75
0.52,0.23,0.82
0.54,0.27,0.88
0.56,0.3,0.92
0.58,0.33,0.96
0.59,0.35,0.97
0.58,0.35,0.94
0.56,0.33,0.91
0.55,0.38,0.91
0.56,0.45,0.91
0.59,0.45,0.94
0.62,0.43,0.98
0.63,0.42,1.02
0.64,0.42,1.03
0.65,0.42,1.04
0.64,0.41,1.07
0.64,0.41,1.1
0.65,0.4,1.12
0.67,0.37,1.13
0.68,0.33,1.11
0.68,0.28,1.08
0.69,0.24,1.06
0.69,0.2,1.01
0.7,0.17,0.97
0.72,0.15,0.93
0.74,0.13,0.88
0.74,0.1,0.83
0.73,0.07,0.79
0.7,0.06,0.77
0.67,0.07,0.75
0.66,0.06,0.74
0.66,0.03,0.73
0.66,-0.02,0.71
0.65,-0.08,0.68
0.64,-0.14,0.66
0.64,-0.19,0.65
0.63,-0.23,0.66
0.63,-0.28,0.69
0.61,-0.32,0.75
0.58,-0.36,0.78
0.54,-0.38,0.78
0.51,-0.4,0.78
0.5,-0.39,0.78
0.49,-0.36,0.79
0.49,-0.31,0.82
0.5,-0.24,0.88
0.5,-0.17,0.95
0.51,-0.11,1.03
0.51,-0.06,1.22
0.46,-0.03,1.29
0.42,-0.04,1.3
0.38,-0.05,1.26
0.35,-0.07,1.21
0.33,-0.1,1.19
0.32,-0.14,1.19
0.34,-0.17,1.17
0.39,-0.2,1.13
0.46,-0.23,1.08
0.55,-0.24,1.02
0.62,-0.26,0.98
0.64,-0.28,0.94
0.62,-0.3,0.9
0.6,-0.31,0.85
0.57,-0.32,0.8
0.53,-0.32,0.77
0.49,-0.32,0.75
0.46,-0.29,0.74
0.44,-0.26,0.73
0.44,-0.21,0.73
0.46,-0.16,0.71
0.48,-0.1,0.7
0.47,-0.05,0.69
0.45,-0.03,0.68
0.44,0,0.68
0.43,0.08,0.69
0.42,0.21,0.71
0.42,0.22,0.71
0.43,0.22,0.7
0.47,0.21,0.74
0.52,0.24,0.84
0.56,0.32,0.96
0.6,0.37,1.06
0.61,0.37,1.1
0.61,0.31,1.11
0.63,0.23,1.12
0.66,0.14,1.12
0.7,0.04,1.13
0.73,-0.03,1.12
0.76,-0.09,1.1
0.78,-0.14,1.08
0.78,-0.21,1.05
0.79,-0.25,1.02
0.79,-0.28,1
0.77,-0.3,0.99
0.78,-0.31,0.98
0.78,-0.32,0.96
0.78,-0.35,0.91
0.77,-0.4,0.85
0.75,-0.48,0.79
0.73,-0.56,0.75
0.69,-0.65,0.73
0.64,-0.74,0.74
0.55,-0.76,0.75
0.51,-0.76,0.74
0.48,-0.76,0.73
0.48,-0.77,0.72
0.46,-0.74,0.73
0.43,-0.69,0.74
0.45,-0.59,0.77
0.46,-0.48,0.84
0.42,-0.36,0.92
0.39,-0.24,1
0.42,-0.1,1.07
0.49,0.02,1.18
0.53,0.07,1.31
0.5,0.05,1.38
0.44,0.02,1.35
0.38,-0.01,1.27
0.33,-0.03,1.23
0.21,-0.08,1.27
0.12,-0.17,1.34
0.16,-0.21,1.34
0.34,-0.23,1.27
0.56,-0.24,1.18
0.65,-0.27,1.07
0.64,-0.29,0.96
0.62,-0.3,0.89
0.64,-0.3,0.79
0.63,-0.3,0.76
0.59,-0.3,0.74
0.54,-0.3,0.73
0.52,-0.28,0.71
0.53,-0.25,0.67
0.55,-0.22,0.63
0.56,-0.21,0.58
0.57,-0.18,0.55
0.54,-0.09,0.54
0.51,0.02,0.54
0.52,0.09,0.56
0.57,0.1,0.6
0.58,0.12,0.63
0.58,0.16,0.67
0.6,0.19,0.72
0.62,0.22,0.78
0.62,0.23,0.86
0.61,0.21,0.97
0.63,0.18,1.07
0.66,0.14,1.13
0.68,0.07,1.12
0.69,-0.01,1.09
0.69,-0.1,1.05
0.7,-0.19,0.98
0.7,-0.28,0.95
0.71,-0.33,1.03
0.82,-0.33,1.05
0.85,-0.35,1.01
0.85,-0.38,0.94
0.83,-0.42,0.89
0.79,-0.47,0.84
0.76,-0.5,0.79
0.73,-0.51,0.76
0.7,-0.54,0.73
0.66,-0.58,0.7
0.64,-0.64,0.68
0.63,-0.69,0.66
0.62,-0.74,0.64
0.59,-0.79,0.62
0.55,-0.85,0.59
0.51,-0.88,0.59
0.45,-0.88,0.59
0.4,-0.85,0.6
0.38,-0.8,0.66
0.38,-0.73,0.74
0.41,-0.64,0.83
0.44,-0.55,0.94
0.45,-0.45,1.06
0.46,-0.37,1.17
0.47,-0.33,1.24
0.45,-0.35,1.3
0.39,-0.37,1.38
0.19,-0.32,1.38
0.09,-0.31,1.39
0.02,-0.31,1.42
0.01,-0.33,1.43
0.07,-0.35,1.37
0.15,-0.36,1.29
0.24,-0.38,1.19
0.34,-0.4,1.11
0.44,-0.41,1.06
0.49,-0.39,1.01
0.49,-0.4,0.96
0.49,-0.42,0.91
0.47,-0.44,0.86
0.44,-0.45,0.81
0.38,-0.46,0.79
0.33,-0.45,0.78
0.3,-0.43,0.77
0.29,-0.41,0.75
0.27,-0.4,0.74
0.25,-0.37,0.73
0.25,-0.33,0.73
0.24,-0.28,0.75
0.22,-0.24,0.8
0.2,-0.21,0.86
0.2,-0.16,0.92
0.21,-0.09,1.08
0.21,-0.02,1.18
0.19,-0.02,1.26
0.15,-0.02,1.3
0.08,-0.01,1.31
0.01,-0.02,1.32
-0.06,-0.04,1.34
-0.1,-0.06,1.37
-0.13,-0.08,1.38
-0.13,-0.09,1.36
-0.08,-0.07,1.3
-0.02,-0.07,1.23
0.03,-0.12,1.17
0.05,-0.19,1.13
0.06,-0.26,1.07
0.06,-0.32,1
0.05,-0.37,0.91
0.04,-0.4,0.83
0.02,-0.39,0.78
0,-0.37,0.74
-0.03,-0.38,0.72
-0.06,-0.4,0.72
-0.1,-0.4,0.73
-0.11,-0.35,0.77
-0.12,-0.28,0.82
-0.11,-0.22,0.88
-0.11,-0.17,1.06
-0.12,-0.11,1.15
-0.15,-0.08,1.2
-0.19,-0.06,1.26
-0.23,-0.05,1.34
-0.26,-0.04,1.42
-0.29,-0.02,1.47
-0.32,-0.01,1.49
-0.33,-0.01,1.5
-0.31,-0.03,1.47
-0.28,-0.04,1.41
-0.26,-0.05,1.33
-0.23,-0.06,1.26
-0.2,-0.09,1.19
-0.16,-0.12,1.14
-0.13,-0.13,1.07
-0.12,-0.14,1
-0.14,-0.15,0.94
-0.17,-0.17,0.87
-0.2,-0.19,0.82
-0.23,-0.2,0.79
-0.26,-0.2,0.78
-0.29,-0.21,0.76
-0.34,-0.21,0.74
-0.39,-0.2,0.72
-0.44,-0.2,0.71
-0.48,-0.2,0.73
-0.52,-0.23,0.77
-0.55,-0.25,0.83
-0.57,-0.25,0.91
-0.58,-0.24,1
-0.58,-0.23,1.09
-0.56,-0.25,1.19
-0.54,-0.3,1.29
-0.54,-0.34,1.39
-0.57,-0.37,1.46
-0.61,-0.38,1.5
-0.65,-0.39,1.52
-0.66,-0.41,1.54
-0.61,-0.42,1.57
-0.55,-0.44,1.6
-0.46,-0.48,1.6
-0.36,-0.49,1.57
-0.26,-0.48,1.52
-0.17,-0.48,1.44
-0.09,-0.49,1.37
0,-0.5,1.31
0.08,-0.51,1.23
0.14,-0.52,1.16
0.18,-0.53,1.09
0.23,-0.53,1.03
0.28,-0.51,0.99
0.35,-0.49,0.96
0.41,-0.5,0.9
0.47,-0.52,0.86
0.48,-0.52,0.81
0.49,-0.5,0.78
0.52,-0.48,0.75
0.55,-0.47,0.75
0.59,-0.47,0.75
0.61,-0.49,0.75
0.64,-0.51,0.74
0.66,-0.53,0.73
0.66,-0.53,0.71
0.66,-0.49,0.71
0.67,-0.43,0.72
0.71,-0.37,0.76
0.75,-0.31,0.79
0.76,-0.25,0.84
0.74,-0.17,0.89
0.7,-0.09,0.96
0.65,-0.02,1.04
0.57,0.04,1.14
0.5,0.08,1.21
0.45,0.09,1.28
0.41,0.05,1.37
0.38,-0.01,1.47
0.37,-0.05,1.54
0.37,-0.06,1.56
0.35,-0.12,1.49
0.28,-0.19,1.45
0.25,-0.27,1.42
0.25,-0.32,1.39
0.29,-0.36,1.34
0.35,-0.39,1.32
0.42,-0.4,1.28
0.47,-0.41,1.21
0.46,-0.44,1.14
0.44,-0.48,1.06
0.42,-0.51,1
0.43,-0.53,0.95
0.45,-0.54,0.9
0.46,-0.54,0.87
0.48,-0.56,0.84
0.51,-0.57,0.79
0.52,-0.57,0.74
0.5,-0.56,0.71
0.47,-0.54,0.72
0.45,-0.49,0.73
0.44,-0.43,0.76
0.4,-0.38,0.79
0.37,-0.33,0.81
0.32,-0.25,0.83
0.25,-0.13,0.85
0.2,0,0.89
0.2,0.22,0.93
0.24,0.27,0.91
0.29,0.28,0.88
0.33,0.28,0.86
0.35,0.28,0.87
0.37,0.25,0.89
0.38,0.2,0.96
0.39,0.13,1.04
0.42,0.08,1.12
0.44,0.03,1.17
0.45,-0.04,1.21
0.46,-0.13,1.22
0.46,-0.22,1.22
0.45,-0.29,1.2
0.43,-0.34,1.18
0.43,-0.38,1.16
0.45,-0.39,1.14
0.51,-0.4,1.11
0.56,-0.39,1.06
0.58,-0.38,1
0.58,-0.36,0.95
0.58,-0.33,0.91
0.59,-0.3,0.88
0.6,-0.29,0.87
0.59,-0.29,0.84
0.58,-0.29,0.79
0.58,-0.3,0.69
0.53,-0.29,0.65
0.5,-0.25,0.64
0.46,-0.18,0.66
0.44,-0.12,0.7
0.43,-0.05,0.76
0.44,0,0.83
0.45,0.03,0.92
0.46,0.06,1
0.43,0.08,1.07
0.37,0.09,1.17
0.3,0.08,1.31
0.25,0.04,1.44
0.21,-0.01,1.53
0.17,-0.09,1.57
0.13,-0.18,1.63
0.15,-0.24,1.7
0.24,-0.26,1.74
0.31,-0.27,1.72
0.33,-0.29,1.64
0.33,-0.34,1.54
0.33,-0.39,1.43
0.35,-0.44,1.33
0.37,-0.48,1.26
0.39,-0.5,1.19
0.43,-0.5,1.12
0.49,-0.5,0.93
0.57,-0.51,0.86
0.54,-0.52,0.81
0.51,-0.52,0.76
0.48,-0.5,0.73
0.44,-0.47,0.71
0.41,-0.45,0.72
0.39,-0.43,0.76
0.36,-0.42,0.8
0.33,-0.41,0.83
0.29,-0.38,0.85
0.25,-0.31,0.86
0.22,-0.21,0.86
0.21,-0.09,0.88
0.2,0.01,0.9
0.19,0.06,0.93
0.19,0.08,0.94
0.18,0.09,0.94
0.19,0.09,0.91
0.21,0.1,0.9
0.23,0.1,0.94
0.28,0.1,1.06
0.36,0.07,1.22
0.42,0.05,1.37
0.45,0.02,1.46
0.43,-0.01,1.48
0.4,-0.05,1.37
0.38,-0.19,1.31
0.4,-0.29,1.25
0.43,-0.34,1.21
0.51,-0.33,1.18
0.62,-0.28,1.14
0.71,-0.24,1.08
0.75,-0.23,1.02
0.75,-0.24,0.94
0.73,-0.26,0.86
0.71,-0.29,0.78
0.68,-0.31,0.7
0.64,-0.29,0.66
0.61,-0.28,0.63
0.57,-0.27,0.62
0.55,-0.27,0.63
0.51,-0.27,0.66
0.49,-0.25,0.66
0.46,-0.23,0.63
0.43,-0.22,0.6
0.4,-0.22,0.59
0.38,-0.23,0.6
0.35,-0.24,0.63
0.33,-0.22,0.67
0.33,-0.16,0.72
0.35,-0.08,0.8
0.37,-0.01,0.96
0.34,0.05,1.04
0.31,0.07,1.13
0.31,0.11,1.22
0.32,0.14,1.28
0.32,0.16,1.34
0.29,0.14,1.41
0.26,0.1,1.46
0.24,0.04,1.48
0.23,-0.01,1.48
0.24,-0.04,1.49
0.29,-0.07,1.47
0.36,-0.12,1.42
0.41,-0.17,1.35
0.46,-0.2,1.28
0.5,-0.23,1.21
0.54,-0.25,1.16
0.59,-0.26,1.11
0.61,-0.26,1.03
0.61,-0.27,0.95
0.6,-0.28,0.87
0.6,-0.27,0.8
0.6,-0.24,0.75
0.6,-0.2,0.71
0.6,-0.19,0.69
0.59,-0.16,0.68
0.58,-0.13,0.67
0.55,-0.05,0.66
0.53,-0.03,0.63
0.5,-0.04,0.62
0.46,-0.04,0.62
0.43,-0.01,0.62
0.42,0.06,0.62
0.43,0.17,0.64
0.44,0.27,0.67
0.46,0.36,0.71
0.49,0.45,0.74
0.47,0.48,0.76
0.44,0.49,0.79
0.4,0.49,0.84
0.37,0.47,0.91
0.32,0.46,1
0.29,0.43,1.09
0.28,0.42,1.15
0.27,0.41,1.15
0.27,0.42,1.13
0.29,0.42,1.11
0.31,0.42,1.11
0.33,0.42,1.14
0.36,0.41,1.16
0.39,0.41,1.17
0.43,0.4,1.17
0.47,0.39,1.15
0.49,0.36,1.11
0.51,0.33,1.1
0.51,0.3,1.09
0.5,0.29,1.06
0.49,0.29,1.02
0.48,0.28,0.97
0.47,0.26,0.94
0.47,0.26,0.93
0.46,0.26,0.91
0.45,0.26,0.88
0.43,0.27,0.86
0.41,0.27,0.84
0.39,0.27,0.83
0.37,0.28,0.81
0.36,0.27,0.78
0.35,0.25,0.75
0.33,0.25,0.72
0.33,0.27,0.67
0.32,0.26,0.62
0.31,0.27,0.58
0.32,0.3,0.56
0.31,0.32,0.56
0.31,0.34,0.58
0.3,0.36,0.63
0.29,0.4,0.68
0.29,0.39,0.74
0.27,0.33,0.8
0.26,0.3,0.83
0.27,0.26,0.86
0.26,0.24,0.88
0.24,0.21,0.91
0.22,0.19,0.94
0.22,0.18,0.96
0.23,0.18,0.97
0.24,0.17,1
0.26,0.16,1.02
0.27,0.15,1.04
0.27,0.14,1.04
0.25,0.13,1.03
0.23,0.12,1.04
0.21,0.13,1.05
0.2,0.12,1.08
0.18,0.11,1.11
0.17,0.1,1.12
0.15,0.08,1.12
0.14,0.06,1.11
0.12,0.03,1.1
0.12,0,1.08
0.11,-0.01,1.06
0.09,-0.02,1.04
0.09,-0.03,1.02
0.08,-0.05,0.99
0.06,-0.06,0.96
0.01,-0.05,0.95
-0.01,-0.04,0.95
-0.04,-0.02,0.95
-0.06,0,0.94
-0.07,0.03,0.94
-0.08,0.05,0.94
-0.09,0.05,0.92
-0.13,0.06,0.88
-0.16,0.07,0.85
-0.18,0.09,0.84
-0.18,0.12,0.86
-0.16,0.16,0.89
-0.12,0.18,0.91
-0.09,0.19,0.94
-0.08,0.2,0.98
-0.05,0.2,1.01
-0.01,0.21,1.03
0.03,0.2,1.06
0.04,0.17,1.1
0.05,0.16,1.15
0.06,0.15,1.19
0.09,0.16,1.21
0.12,0.16,1.22
0.16,0.17,1.21
0.22,0.15,1.2
0.27,0.13,1.19
0.37,0.13,1.18
0.42,0.15,1.13
0.45,0.17,1.07
0.47,0.18,0.99
0.51,0.18,0.91
0.57,0.19,0.84
0.62,0.2,0.78
0.68,0.21,0.74
0.72,0.25,0.72
0.77,0.3,0.69
0.83,0.36,0.66
0.87,0.43,0.62
0.91,0.48,0.59
0.93,0.5,0.57
0.94,0.5,0.57
0.94,0.5,0.57
0.93,0.5,0.57
0.94,0.51,0.58
0.95,0.5,0.61
0.96,0.49,0.65
0.96,0.47,0.67
0.97,0.45,0.67
0.97,0.42,0.66
0.97,0.38,0.66
0.97,0.36,0.68
0.97,0.34,0.75
0.98,0.33,0.77
0.97,0.31,0.79
0.95,0.28,0.82
0.93,0.23,0.85
0.93,0.17,0.89
0.94,0.1,0.94
0.95,0.01,0.99
0.95,-0.1,1.04
0.93,-0.22,1.08
0.89,-0.32,1.11
0.83,-0.4,1.13
0.78,-0.47,1.12
0.73,-0.54,1.1
0.69,-0.58,1.08
0.65,-0.63,1.07
0.6,-0.66,1.06
0.54,-0.69,1.06
0.48,-0.7,1.07
0.42,-0.7,1.09
0.36,-0.68,1.11
0.31,-0.64,1.13
0.27,-0.59,1.15
0.22,-0.54,1.14
0.16,-0.48,1.13
0.11,-0.41,1.1
0.07,-0.36,1.09
-0.02,-0.29,1.1
-0.02,-0.26,1.11
-0.01,-0.22,1.09
0.02,-0.17,1.07
0.07,-0.13,1.04
0.11,-0.09,1.01
0.14,-0.06,0.97
0.16,-0.04,0.93
0.17,-0.04,0.91
0.18,-0.04,0.9
0.21,-0.02,0.9
0.25,0.01,0.9
0.31,0.05,0.89
0.39,0.08,0.89
0.45,0.11,0.88
0.49,0.14,0.88
0.49,0.15,0.88
0.48,0.16,0.92
0.47,0.17,0.96
0.46,0.2,0.99
0.46,0.25,1.03
0.47,0.33,1.07
0.5,0.42,1.1
0.55,0.49,1.1
0.61,0.51,1.07
0.64,0.5,1.07
0.65,0.49,1.11
0.66,0.49,1.13
0.69,0.48,1.15
0.74,0.46,1.15
0.8,0.43,1.14
0.85,0.39,1.11
0.89,0.35,1.06
0.91,0.3,1
0.93,0.24,0.95
0.93,0.17,0.91
0.93,0.08,0.87
0.94,-0.01,0.81
0.93,-0.1,0.76
0.91,-0.18,0.71
0.88,-0.25,0.66
0.85,-0.32,0.63
0.83,-0.39,0.6
0.81,-0.48,0.57
0.78,-0.57,0.56
0.73,-0.67,0.56
0.68,-0.76,0.57
0.64,-0.81,0.59
0.6,-0.82,0.61
0.53,-0.84,0.62
0.44,-0.87,0.62
0.35,-0.87,0.59
0.23,-0.74,0.57
0.21,-0.64,0.6
0.23,-0.54,0.64
0.26,-0.46,0.73
0.28,-0.41,0.84
0.29,-0.37,0.97
0.25,-0.32,1.13
0.2,-0.25,1.32
0.2,-0.17,1.44
0.19,-0.13,1.47
0.14,-0.15,1.44
0.03,-0.2,1.43
-0.06,-0.21,1.46
-0.11,-0.23,1.49
-0.11,-0.27,1.5
-0.08,-0.32,1.5
0,-0.34,1.48
0.09,-0.32,1.42
0.24,-0.32,1.31
0.41,-0.33,1.19
0.53,-0.34,1.07
0.57,-0.35,0.96
0.57,-0.35,0.89
0.54,-0.35,0.85
0.52,-0.35,0.82
0.5,-0.34,0.8
0.47,-0.33,0.72
0.41,-0.32,0.66
0.4,-0.29,0.62
0.39,-0.25,0.59
0.39,-0.19,0.57
0.41,-0.13,0.57
0.43,-0.06,0.58
0.45,-0.02,0.62
0.47,0.03,0.64
0.49,0.08,0.66
0.51,0.09,0.69
0.53,0.12,0.73
0.56,0.16,0.79
0.62,0.19,0.9
0.67,0.19,1.03
0.72,0.15,1.11
0.73,0.09,1.17
0.72,0,1.24
0.73,-0.07,1.3
0.71,-0.14,1.38
0.67,-0.2,1.45
0.63,-0.24,1.48
0.6,-0.27,1.45
0.58,-0.31,1.4
0.58,-0.34,1.33
0.6,-0.36,1.27
0.62,-0.39,1.13
0.68,-0.41,1.06
0.71,-0.42,1
0.72,-0.45,0.94
0.7,-0.5,0.89
0.66,-0.56,0.84
0.63,-0.62,0.78
0.59,-0.69,0.73
0.57,-0.77,0.69
0.55,-0.85,0.64
0.52,-0.93,0.61
0.46,-0.99,0.57
0.38,-0.99,0.57
0.3,-0.95,0.59
0.24,-0.88,0.64
0.21,-0.81,0.7
0.18,-0.74,0.75
0.18,-0.69,0.83
0.18,-0.67,0.92
0.17,-0.66,1.05
0.15,-0.6,1.17
0.13,-0.52,1.27
0.08,-0.45,1.35
-0.01,-0.39,1.39
-0.11,-0.33,1.39
-0.22,-0.3,1.35
-0.29,-0.26,1.39
-0.26,-0.23,1.41
-0.17,-0.2,1.38
-0.09,-0.19,1.32
-0.02,-0.2,1.25
0.05,-0.21,1.21
0.15,-0.21,1.16
0.26,-0.18,1.09
0.34,-0.17,1
0.38,-0.17,0.91
0.4,-0.18,0.84
0.41,-0.19,0.78
0.41,-0.18,0.72
0.42,-0.17,0.68
0.43,-0.16,0.66
0.45,-0.15,0.67
0.47,-0.13,0.66
0.49,-0.13,0.63
0.51,-0.11,0.6
0.5,-0.1,0.56
0.51,-0.1,0.53
0.51,-0.08,0.55
0.53,-0.03,0.58
0.58,0.01,0.64
0.6,0.05,0.73
0.61,0.06,0.85
0.64,0.05,1.18
0.71,0.06,1.31
0.7,0.06,1.38
0.66,0.04,1.38
0.61,-0.01,1.31
0.54,-0.06,1.25
0.47,-0.12,1.27
0.43,-0.18,1.33
0.45,-0.2,1.37
0.52,-0.18,1.34
0.58,-0.17,1.25
0.64,-0.19,1.14
0.71,-0.22,1.04
0.74,-0.27,0.95
0.75,-0.3,0.88
0.74,-0.35,0.8
0.72,-0.42,0.72
0.69,-0.51,0.64
0.64,-0.61,0.57
0.59,-0.7,0.55
0.54,-0.76,0.55
0.52,-0.8,0.56
0.52,-0.84,0.57
0.51,-0.88,0.56
0.48,-0.92,0.53
0.41,-0.94,0.52
0.36,-0.93,0.63
0.32,-0.8,0.76
0.33,-0.73,0.92
0.33,-0.68,1.09
0.32,-0.62,1.23
0.28,-0.54,1.38
0.23,-0.44,1.53
0.17,-0.32,1.6
0.07,-0.23,1.59
-0.09,-0.16,1.54
-0.24,-0.11,1.5
-0.34,-0.07,1.49
-0.33,-0.02,1.51
-0.27,0.03,1.52
-0.18,0.03,1.46
-0.1,0.02,1.37
0,-0.01,1.28
0.1,-0.04,1.19
0.18,-0.07,1.1
0.23,-0.1,1
0.26,-0.15,0.9
0.28,-0.19,0.8
0.29,-0.23,0.72
0.3,-0.26,0.67
0.32,-0.28,0.65
0.35,-0.27,0.65
0.38,-0.24,0.67
0.43,-0.17,0.69
0.43,-0.16,0.72
0.42,-0.13,0.73
0.38,-0.09,0.7
0.34,-0.01,0.68
0.33,0.07,0.67
0.31,0.12,0.67
0.3,0.17,0.69
0.34,0.22,0.72
0.4,0.23,0.76
0.49,0.27,0.82
0.57,0.33,0.84
0.58,0.34,0.86
0.56,0.32,0.9
0.54,0.3,0.98
0.52,0.28,1.1
0.49,0.25,1.25
0.46,0.19,1.37
0.43,0.12,1.42
0.4,0.06,1.38
0.36,0.01,1.29
0.31,-0.03,1.21
0.29,-0.08,1.17
0.28,-0.13,1.18
0.31,-0.16,1.19
0.36,-0.15,1.07
0.47,-0.16,0.97
0.53,-0.2,0.89
0.58,-0.23,0.83
0.59,-0.28,0.77
0.59,-0.34,0.73
0.57,-0.42,0.7
0.55,-0.48,0.68
0.54,-0.53,0.66
0.53,-0.56,0.65
0.51,-0.58,0.61
0.48,-0.59,0.56
0.46,-0.59,0.53
0.47,-0.55,0.53
0.49,-0.5,0.57
0.51,-0.44,0.66
0.56,-0.36,0.77
0.6,-0.29,0.87
0.61,-0.24,0.95
0.6,-0.2,1.03
0.57,-0.17,1.12
0.52,-0.13,1.2
0.47,-0.1,1.26
0.44,-0.07,1.3
0.38,-0.06,1.33
0.31,-0.06,1.36
0.23,-0.06,1.38
0.14,-0.07,1.4
0.16,-0.08,1.38
0.23,-0.1,1.33
0.3,-0.12,1.26
0.37,-0.14,1.18
0.42,-0.17,1.11
0.45,-0.19,1.05
0.47,-0.21,0.99
0.45,-0.21,0.92
0.42,-0.22,0.88
0.38,-0.22,0.86
0.34,-0.2,0.83
0.32,-0.15,0.8
0.31,-0.12,0.8
0.31,-0.11,0.81
0.31,-0.1,0.8
0.28,-0.1,0.81
0.26,-0.09,0.83
0.24,-0.08,0.84
0.21,-0.07,0.85
0.17,-0.06,0.86
0.15,-0.04,0.88
0.15,-0.03,0.92
0.15,-0.02,0.97
0.13,-0.01,1
0.11,0,1.02
0.09,0.02,1.1
0.08,0.04,1.14
0.06,0.04,1.17
0.04,0.04,1.17
0.03,0.03,1.15
0,0.01,1.13
-0.02,-0.01,1.12
-0.04,-0.04,1.13
-0.06,-0.05,1.17
-0.08,-0.07,1.19
-0.11,-0.1,1.19
-0.15,-0.12,1.18
-0.19,-0.13,1.16
-0.24,-0.14,1.17
-0.29,-0.16,1.16
-0.33,-0.18,1.15
-0.37,-0.18,1.14
-0.41,-0.18,1.13
-0.44,-0.17,1.11
-0.46,-0.17,1.1
-0.48,-0.17,1.09
-0.5,-0.17,1.08
-0.5,-0.16,1.08
-0.51,-0.14,1.07
-0.52,-0.12,1.06
-0.53,-0.1,1.07
-0.55,-0.07,1.06
-0.56,-0.07,1.05
-0.57,-0.06,1.05
-0.56,-0.05,1.05
-0.56,-0.06,1.06
-0.55,-0.06,1.06
-0.53,-0.07,1.06
-0.51,-0.08,1.05
-0.51,-0.1,1.04
-0.51,-0.12,1.04
-0.51,-0.14,1.04
-0.5,-0.16,1.04
-0.49,-0.17,1.05
-0.47,-0.18,1.05
-0.44,-0.2,1.05
-0.41,-0.22,1.04
-0.39,-0.23,1.05
-0.38,-0.24,1.06
-0.36,-0.24,1.07
-0.34,-0.24,1.08
-0.34,-0.23,1.07
-0.34,-0.23,1.07
-0.33,-0.23,1.05
-0.32,-0.22,1.03
-0.31,-0.23,1.02
-0.29,-0.22,1.01
-0.27,-0.22,0.98
-0.21,-0.22,0.97
-0.16,-0.22,0.97
-0.11,-0.23,0.97
-0.07,-0.25,0.96
-0.03,-0.26,0.95
-0.01,-0.25,0.95
0.02,-0.23,0.97
0.07,-0.21,1.01
0.11,-0.2,1.07
0.13,-0.21,1.13
0.14,-0.23,1.18
0.16,-0.23,1.21
0.19,-0.22,1.23
0.24,-0.2,1.24
0.29,-0.19,1.27
0.33,-0.2,1.29
0.36,-0.22,1.31
0.37,-0.25,1.33
0.37,-0.28,1.35
0.37,-0.31,1.36
0.36,-0.34,1.34
0.36,-0.38,1.31
0.38,-0.41,1.28
0.41,-0.46,1.24
0.45,-0.48,1.2
0.49,-0.49,1.06
0.55,-0.51,1
0.56,-0.53,0.95
0.56,-0.55,0.9
0.54,-0.56,0.85
0.51,-0.58,0.81
0.5,-0.58,0.78
0.49,-0.56,0.75
0.48,-0.56,0.72
0.48,-0.57,0.7
0.48,-0.57,0.68
0.47,-0.56,0.67
0.46,-0.51,0.67
0.45,-0.46,0.67
0.45,-0.4,0.67
0.45,-0.34,0.67
0.46,-0.29,0.69
0.47,-0.24,0.7
0.47,-0.2,0.68
0.48,-0.16,0.67
0.49,-0.11,0.69
0.5,-0.05,0.71
0.53,0.01,0.74
0.57,0.03,0.77
0.61,0.04,0.8
0.66,0.02,0.84
0.68,0,0.94
0.66,0.03,1.03
0.64,0.07,1.15
0.62,0.09,1.29
0.59,0.07,1.46
0.55,0.04,1.58
0.5,0.02,1.62
0.44,0,1.61
0.39,-0.03,1.58
0.37,-0.06,1.55
0.37,-0.09,1.54
0.36,-0.12,1.53
0.37,-0.12,1.5
0.4,-0.12,1.44
0.42,-0.14,1.36
0.43,-0.16,1.27
0.44,-0.19,1.18
0.45,-0.2,1.09
0.45,-0.19,1.01
0.43,-0.17,0.94
0.42,-0.16,0.88
0.43,-0.16,0.82
0.43,-0.17,0.76
0.43,-0.2,0.71
0.43,-0.23,0.67
0.44,-0.24,0.63
0.45,-0.26,0.56
0.47,-0.33,0.53
0.47,-0.34,0.52
0.45,-0.34,0.53
0.41,-0.32,0.56
0.37,-0.28,0.6
0.33,-0.23,0.65
0.31,-0.17,0.7
0.33,-0.09,0.77
0.36,-0.02,0.84
0.39,0,0.89
0.37,0.01,0.98
0.32,0.01,1.1
0.29,0.02,1.23
0.3,0.02,1.32
0.32,0.01,1.39
0.3,0,1.47
0.27,-0.03,1.55
0.24,-0.08,1.62
0.23,-0.14,1.65
0.22,-0.19,1.64
0.22,-0.22,1.59
0.23,-0.25,1.51
0.23,-0.29,1.43
0.26,-0.33,1.38
0.3,-0.33,1.31
0.34,-0.32,1.13
0.42,-0.35,1.05
0.46,-0.36,0.96
0.5,-0.37,0.86
0.51,-0.38,0.8
0.51,-0.39,0.76
0.49,-0.39,0.72
0.45,-0.38,0.69
0.41,-0.35,0.66
0.36,-0.31,0.63
0.31,-0.25,0.63
0.26,-0.17,0.63
0.22,-0.07,0.66
0.19,0.01,0.69
0.16,0.07,0.73
0.12,0.11,0.77
0.08,0.15,0.83
0.05,0.21,0.89
0.04,0.28,0.92
0.06,0.35,0.94
0.08,0.4,0.97
0.11,0.4,1.02
0.12,0.36,1.08
0.14,0.3,1.16
0.17,0.25,1.21
0.2,0.21,1.27
0.22,0.17,1.32
0.22,0.06,1.38
0.25,0,1.37
0.28,-0.05,1.33
0.31,-0.09,1.26
0.35,-0.13,1.19
0.38,-0.16,1.13
0.41,-0.18,1.07
0.45,-0.19,1.02
0.49,-0.2,0.96
0.53,-0.2,0.89
0.56,-0.18,0.82
0.57,-0.17,0.76
0.56,-0.18,0.71
0.55,-0.19,0.65
0.53,-0.19,0.61
0.52,-0.16,0.58
0.5,-0.13,0.57
0.46,-0.1,0.59
0.46,-0.08,0.61
0.47,-0.07,0.64
0.47,-0.06,0.67
0.47,-0.07,0.72
0.47,-0.09,0.74
0.46,-0.12,0.72
0.44,-0.13,0.69
0.44,-0.13,0.68
0.45,-0.11,0.75
0.44,-0.06,0.81
0.4,-0.01,0.86
0.35,0.01,0.93
0.34,0.01,1
0.35,0,1.08
0.36,0.01,1.15
0.35,0.07,1.25
0.32,0.12,1.39
0.27,0.11,1.55
0.22,0.07,1.68
0.15,0.04,1.75
0.06,0.01,1.77
-0.05,-0.02,1.74
-0.12,-0.06,1.7
-0.16,-0.11,1.65
-0.17,-0.17,1.57
-0.15,-0.22,1.49
-0.08,-0.26,1.4
0.01,-0.31,1.31
0.09,-0.35,1.2
0.17,-0.37,1.08
0.25,-0.39,0.96
0.3,-0.39,0.85
0.33,-0.4,0.75
0.33,-0.41,0.68
0.31,-0.42,0.62
0.27,-0.4,0.61
0.26,-0.37,0.6
0.25,-0.33,0.58
0.24,-0.3,0.58
0.23,-0.27,0.6
0.21,-0.27,0.65
0.19,-0.28,0.69
0.16,-0.26,0.72
0.11,-0.19,0.73
0.06,-0.11,0.78
0.03,-0.01,0.87
0.01,0.1,0.96
-0.02,0.22,1.05
-0.04,0.32,1.07
-0.05,0.36,1.06
-0.06,0.34,1.06
-0.05,0.3,1.09
-0.03,0.26,1.14
0,0.25,1.22
0.04,0.24,1.32
0.1,0.21,1.41
0.14,0.16,1.49
0.16,0.08,1.55
0.16,0,1.6
0.16,-0.07,1.58
0.15,-0.18,1.41
0.14,-0.21,1.34
0.15,-0.24,1.28
0.17,-0.28,1.22
0.2,-0.3,1.14
0.23,-0.32,1.07
0.27,-0.32,1
0.33,-0.31,0.92
0.39,-0.29,0.83
0.43,-0.27,0.75
0.44,-0.25,0.68
0.44,-0.24,0.63
0.44,-0.23,0.59
0.43,-0.21,0.57
0.42,-0.19,0.57
0.41,-0.19,0.56
0.42,-0.21,0.53
0.42,-0.24,0.52
0.41,-0.29,0.51
0.39,-0.33,0.52
0.36,-0.35,0.53
0.32,-0.32,0.55
0.3,-0.26,0.59
0.31,-0.17,0.64
0.34,-0.05,0.71
0.39,0.02,0.8
0.43,0.05,1.01
0.39,0.03,1.09
0.35,-0.01,1.18
0.28,-0.06,1.3
0.19,-0.07,1.44
0.1,-0.06,1.6
0.01,-0.05,1.72
-0.07,-0.08,1.76
-0.14,-0.14,1.73
-0.19,-0.19,1.69
-0.15,-0.22,1.65
-0.06,-0.24,1.59
0.02,-0.27,1.5
0.09,-0.31,1.38
0.16,-0.36,1.25
0.23,-0.4,1.12
0.3,-0.43,1
0.37,-0.45,0.9
0.43,-0.47,0.82
0.5,-0.47,0.76
0.54,-0.45,0.69
0.54,-0.43,0.63
0.5,-0.4,0.58
0.46,-0.36,0.55
0.42,-0.32,0.54
0.4,-0.28,0.55
0.37,-0.23,0.57
0.36,-0.12,0.56
0.36,-0.05,0.57
0.35,0.02,0.58
0.35,0.13,0.62
0.36,0.28,0.67
0.37,0.39,0.72
0.39,0.46,0.77
0.42,0.48,0.8
0.44,0.43,0.81
0.43,0.33,0.85
0.38,0.21,0.94
0.32,0.14,1.08
0.31,0.14,1.27
0.32,0.15,1.47
0.33,0.14,1.62
0.32,0.1,1.7
0.3,0.05,1.65
0.28,0.01,1.52
0.26,-0.04,1.42
0.26,-0.1,1.37
0.26,-0.16,1.35
0.27,-0.19,1.35
0.31,-0.19,1.31
0.37,-0.18,1.23
0.43,-0.17,1.13
0.48,-0.16,0.93
0.5,-0.16,0.83
0.49,-0.15,0.75
0.48,-0.15,0.69
0.46,-0.13,0.65
0.45,-0.12,0.62
0.44,-0.12,0.61
0.44,-0.12,0.59
0.44,-0.13,0.57
0.46,-0.14,0.53
0.46,-0.18,0.49
0.47,-0.22,0.43
0.47,-0.25,0.39
0.47,-0.23,0.38
0.45,-0.18,0.4
0.45,-0.1,0.44
0.45,-0.03,0.51
0.45,0.04,0.62
0.48,0.12,0.75
0.54,0.22,0.87
0.59,0.31,0.97
0.59,0.36,1.08
0.56,0.34,1.18
0.51,0.3,1.28
0.43,0.24,1.39
0.34,0.19,1.49
0.24,0.15,1.57
0.15,0.05,1.55
0.21,-0.01,1.49
0.3,-0.07,1.4
0.4,-0.11,1.33
0.53,-0.11,1.26
0.65,-0.09,1.2
0.73,-0.08,1.11
0.77,-0.07,1.02
0.76,-0.06,0.93
0.71,-0.06,0.84
0.65,-0.06,0.75
0.61,-0.05,0.67
0.57,-0.04,0.59
0.57,-0.02,0.54
0.58,0.02,0.51
0.58,0.06,0.46
0.56,0.08,0.4
0.54,0.1,0.33
0.53,0.13,0.26
0.52,0.17,0.21
0.5,0.2,0.18
0.49,0.2,0.16
0.48,0.2,0.16
0.48,0.21,0.15
0.49,0.22,0.14
0.49,0.24,0.13
0.52,0.23,0.13
0.54,0.18,0.15
0.56,0.12,0.15
0.57,0.06,0.13
0.56,0,0.1
0.55,-0.06,0.08
0.55,-0.13,0.05
0.55,-0.2,0.03
0.54,-0.28,0.03
0.55,-0.37,0.02
0.54,-0.47,0.02
0.53,-0.57,0.01
0.52,-0.64,0
0.49,-0.71,0.01
0.47,-0.78,-0.02
0.53,-0.81,-0.04
0.59,-0.85,-0.01
0.57,-0.97,0.11
0.5,-1.15,0.31
0.47,-1.32,0.48
0.46,-1.36,0.44
0.39,-1.35,0.27
0.26,-1.25,0.24
0.25,-1.43,0.27
0.5,-1.71,0.39
0.65,-1.85,0.67
0.61,-1.9,0.85
0.52,-1.92,0.77
0.49,-1.93,0.75
0.41,-1.94,0.81
0.37,-1.94,0.89
0.34,-1.91,0.95
0.28,-1.87,1.03
0.24,-1.77,1.1
0.23,-1.66,1.11
0.21,-1.55,1.07
0.17,-1.48,1.03
0.14,-1.43,0.99
0.13,-1.42,0.95
0.1,-1.41,0.91
0.1,-1.39,0.87
0.12,-1.35,0.82
0.12,-1.32,0.78
0.11,-1.28,0.75
0.1,-1.28,0.71
0.11,-1.29,0.68
0.1,-1.33,0.67
0.1,-1.36,0.63
0.11,-1.35,0.58
0.11,-1.36,0.53
0.11,-1.42,0.47
0.09,-1.53,0.42
0.06,-1.73,0.31
-0.06,-1.7,0.27
-0.11,-1.56,0.26
-0.11,-1.39,0.26
-0.08,-1.23,0.26
-0.02,-1.14,0.26
0.05,-1.09,0.26
0.09,-1.05,0.25
0.14,-1.04,0.25
0.2,-1.03,0.23
0.23,-1.05,0.21
0.26,-1.07,0.2
0.26,-1.1,0.19
0.24,-1.11,0.18
0.22,-1.09,0.16
0.22,-1.05,0.14
0.21,-0.99,0.14
0.21,-0.93,0.14
0.21,-0.88,0.14
0.22,-0.83,0.15
0.23,-0.79,0.16
0.25,-0.76,0.17
0.27,-0.74,0.18
0.28,-0.73,0.2
0.29,-0.72,0.22
0.32,-0.71,0.21
0.34,-0.71,0.19
0.37,-0.72,0.19
0.38,-0.73,0.19
0.39,-0.74,0.21
0.41,-0.77,0.24
0.41,-0.8,0.26
0.41,-0.83,0.28
0.42,-0.84,0.29
0.41,-0.84,0.29
0.41,-0.83,0.29
0.41,-0.83,0.29
0.4,-0.84,0.3
0.38,-0.86,0.33
0.36,-0.88,0.35
0.35,-0.91,0.35
0.35,-0.92,0.35
0.35,-0.93,0.37
0.35,-0.93,0.38
0.34,-0.93,0.39
0.32,-0.92,0.39
0.3,-0.92,0.41
0.29,-0.92,0.43
0.27,-0.91,0.44
0.25,-0.92,0.46
0.24,-0.92,0.47
0.23,-0.92,0.48
0.23,-0.9,0.47
0.24,-0.88,0.46
0.23,-0.87,0.45
0.23,-0.87,0.44
0.22,-0.86,0.46
0.22,-0.85,0.48
0.21,-0.83,0.49
0.2,-0.82,0.49
0.18,-0.8,0.47
0.16,-0.78,0.46
0.16,-0.77,0.46
0.16,-0.75,0.47
0.16,-0.74,0.48
0.16,-0.74,0.49
0.17,-0.73,0.5
0.18,-0.73,0.51
0.18,-0.73,0.51
0.19,-0.72,0.52
0.2,-0.72,0.51
0.21,-0.73,0.52
0.2,-0.75,0.53
0.21,-0.77,0.54
0.22,-0.79,0.56
0.23,-0.8,0.58
0.23,-0.8,0.61
0.21,-0.79,0.63
0.2,-0.78,0.64
0.18,-0.77,0.62
0.18,-0.77,0.61
0.19,-0.77,0.61
0.19,-0.77,0.59
0.18,-0.79,0.57
0.2,-0.82,0.55
0.23,-0.85,0.55
0.23,-0.87,0.54
0.23,-0.91,0.54
0.22,-0.94,0.52
0.21,-0.97,0.5
0.21,-1,0.46
0.21,-1.03,0.43
0.22,-1.04,0.42
0.23,-1.06,0.39
0.21,-1.1,0.32
0.19,-1.13,0.26
0.18,-1.12,0.24
0.18,-1.11,0.22
0.17,-1.11,0.19
0.16,-1.08,0.17
0.14,-1.07,0.16
0.12,-1.07,0.14
0.09,-1.05,0.1
0.06,-1.04,0.03
0.05,-1.04,-0.08
0.04,-1,-0.1
-0.01,-1.03,-0.11
-0.05,-1.04,-0.08
-0.07,-1.04,-0.09
-0.08,-1.03,-0.15
-0.1,-1.02,-0.21
-0.12,-1.01,-0.27
-0.14,-0.99,-0.31
-0.13,-0.95,-0.35
-0.13,-0.93,-0.36
-0.11,-0.9,-0.34
-0.1,-0.84,-0.3
-0.1,-0.8,-0.27
-0.1,-0.8,-0.26
-0.08,-0.79,-0.27
-0.04,-0.81,-0.27
-0.02,-0.86,-0.24
0.01,-0.89,-0.23
0.02,-0.92,-0.23
-0.03,-0.95,-0.26
-0.09,-0.96,-0.3
-0.09,-0.95,-0.27
-0.08,-0.95,-0.17
-0.11,-0.97,-0.04
-0.13,-0.99,0.06
-0.12,-1,0.07
-0.07,-1.04,0.02
-0.04,-1.04,0
-0.02,-1.05,0.02
-0.04,-1.09,0.06
-0.08,-1.13,0.1
-0.13,-1.15,0.17
-0.14,-1.17,0.22
0.01,-1.19,0.15
0.06,-1.18,0.18
0.03,-1.16,0.26
0.04,-1.14,0.25
-0.02,-1.1,0.28
-0.03,-1.07,0.3
-0.06,-1.07,0.3
-0.11,-1.08,0.23
-0.15,-1.07,0.15
-0.18,-1.02,0.1
-0.18,-0.95,0.09
-0.08,-0.9,0.07
0.03,-0.92,0.09
0.14,-1.09,0.06
0.58,-1.3,0.2
0.98,-1.54,0.94
1.12,-1.91,1.63
0.67,-1.8,1.26
-0.11,-1.31,0.64
-0.34,-1.01,0.37
0.12,-1.06,0.14
0.43,-1.09,0.03
0.56,-0.99,0.07
0.59,-0.86,0.18
0.6,-0.75,0.32
0.61,-0.69,0.45
0.62,-0.69,0.46
0.63,-0.72,0.4
0.62,-0.74,0.36
0.57,-0.76,0.34
0.49,-0.79,0.32
0.43,-0.81,0.31
0.41,-0.81,0.33
0.45,-0.8,0.34
0.49,-0.79,0.37
0.53,-0.79,0.37
0.53,-0.79,0.37
0.54,-0.8,0.35
0.56,-0.83,0.32
0.56,-0.84,0.27
0.56,-0.84,0.24
0.58,-0.84,0.22
0.62,-0.84,0.2
0.64,-0.83,0.2
0.63,-0.81,0.25
0.62,-0.79,0.35
0.55,-0.78,0.39
0.51,-0.78,0.42
0.48,-0.81,0.41
0.48,-0.82,0.39
0.49,-0.81,0.37
0.51,-0.79,0.35
0.52,-0.79,0.35
0.51,-0.78,0.33
0.52,-0.78,0.31
0.52,-0.79,0.29
0.53,-0.8,0.29
0.56,-0.81,0.32
0.55,-0.81,0.33
0.52,-0.81,0.3
0.51,-0.82,0.28
0.52,-0.85,0.26
