Acc_x,Acc_y,Acc_z
0.19,0.56,0.8
0.19,0.56,0.8
0.19,0.56,0.79
0.19,0.56,0.79
0.2,0.56,0.79
0.2,0.56,0.8
0.19,0.56,0.8
0.19,0.56,0.8
0.19,0.56,0.8
0.2,0.56,0.8
0.2,0.56,0.8
0.2,0.56,0.8
0.2,0.55,0.8
0.2,0.55,0.8
0.19,0.56,0.8
0.19,0.56,0.8
0.18,0.55,0.8
0.18,0.56,0.8
0.18,0.56,0.8
0.19,0.56,0.8
0.19,0.56,0.8
0.2,0.56,0.8
0.2,0.56,0.8
0.2,0.55,0.8
0.2,0.56,0.8
0.2,0.56,0.8
0.2,0.56,0.8
0.19,0.56,0.8
0.19,0.56,0.8
0.19,0.56,0.8
0.19,0.56,0.8
0.19,0.56,0.8
0.19,0.56,0.8
0.19,0.56,0.8
0.19,0.56,0.8
0.19,0.56,0.8
0.19,0.56,0.81
0.19,0.56,0.8
0.19,0.56,0.8
0.19,0.56,0.8
0.19,0.56,0.8
0.2,0.56,0.8
0.2,0.56,0.8
0.2,0.56,0.8
0.2,0.56,0.8
0.2,0.56,0.8
0.19,0.56,0.8
0.19,0.56,0.8
0.19,0.56,0.8
0.19,0.56,0.8
0.19,0.56,0.8
0.19,0.56,0.8
0.19,0.56,0.8
0.2,0.56,0.8
0.2,0.56,0.8
0.2,0.56,0.8
0.2,0.56,0.8
0.19,0.56,0.8
0.19,0.55,0.8
0.19,0.55,0.8
0.19,0.56,0.8
0.18,0.56,0.8
0.18,0.56,0.8
0.19,0.56,0.8
0.19,0.56,0.8
0.2,0.56,0.8
0.2,0.56,0.8
0.2,0.55,0.8
0.2,0.55,0.8
0.2,0.55,0.8
0.19,0.55,0.8
0.19,0.56,0.8
0.19,0.56,0.8
0.19,0.55,0.8
0.19,0.56,0.8
0.19,0.56,0.8
0.2,0.56,0.8
0.2,0.56,0.8
0.2,0.56,0.8
0.2,0.56,0.8
0.2,0.56,0.8
0.19,0.56,0.8
0.19,0.56,0.8
0.19,0.56,0.8
0.19,0.56,0.8
0.19,0.56,0.8
0.19,0.56,0.8
0.19,0.56,0.8
0.19,0.55,0.8
0.19,0.55,0.8
0.19,0.56,0.8
0.2,0.56,0.8
0.2,0.56,0.8
0.19,0.56,0.8
0.19,0.56,0.8
0.2,0.56,0.8
0.2,0.56,0.8
0.19,0.56,0.8
0.19,0.56,0.8
0.2,0.56,0.8
0.2,0.56,0.81
0.21,0.55,0.81
0.21,0.55,0.81
0.21,0.55,0.82
0.22,0.55,0.82
0.24,0.54,0.81
0.16,0.44,0.78
0.21,0.45,0.77
0.3,0.55,0.81
0.26,0.52,0.82
0.3,0.42,0.9
0.35,0.3,0.78
0.32,0.27,0.72
0.33,0.27,0.87
0.4,0.28,0.85
0.4,0.32,0.81
0.4,0.33,0.83
0.37,0.32,0.81
0.36,0.31,0.8
0.37,0.29,0.79
0.36,0.28,0.79
0.35,0.28,0.8
0.32,0.31,0.81
0.31,0.34,0.84
0.33,0.35,0.86
0.33,0.35,0.86
0.34,0.35,0.86
0.35,0.37,0.85
0.33,0.39,0.83
0.3,0.38,0.8
0.26,0.37,0.79
0.24,0.37,0.78
0.27,0.36,0.78
0.32,0.35,0.79
0.36,0.34,0.81
0.36,0.34,0.82
0.33,0.35,0.81
0.3,0.36,0.78
0.28,0.36,0.77
0.26,0.36,0.77
0.25,0.38,0.76
0.28,0.38,0.75
0.32,0.38,0.74
0.43,0.39,0.74
0.45,0.4,0.74
0.42,0.4,0.74
0.38,0.41,0.74
0.35,0.42,0.72
0.33,0.41,0.71
0.33,0.41,0.71
0.32,0.39,0.71
0.3,0.35,0.74
0.33,0.33,0.81
0.37,0.33,0.85
0.39,0.34,0.84
0.38,0.35,0.8
0.37,0.34,0.76
0.35,0.31,0.73
0.28,0.28,0.78
0.19,0.24,0.92
0.18,0.2,1.08
0.25,0.17,1.15
0.32,0.14,1.17
0.39,0.13,1.17
0.43,0.12,1.13
0.43,0.1,1.09
0.42,0.07,1.05
0.4,0.03,1
0.41,-0.05,1.17
0.77,-0.34,1.4
0.9,-0.47,1.5
0.91,-0.52,1.47
0.89,-0.54,1.38
0.88,-0.54,1.23
0.87,-0.56,1.1
0.85,-0.62,1.05
0.83,-0.68,1
0.79,-0.69,0.96
0.76,-0.72,0.93
0.73,-0.77,0.87
0.7,-0.84,0.8
0.7,-0.87,0.71
0.66,-0.89,0.66
0.57,-0.99,0.62
0.57,-1.08,0.55
0.57,-1.14,0.51
0.54,-1.21,0.5
0.57,-1.2,0.45
0.56,-1.2,0.44
0.52,-1.22,0.43
0.52,-1.22,0.39
0.46,-1.23,0.35
0.44,-1.19,0.3
0.48,-1.11,0.27
0.49,-1.09,0.25
0.47,-1.17,0.26
0.45,-1.2,0.3
0.44,-1.21,0.32
0.44,-1.17,0.26
0.4,-1.08,0.2
0.34,-0.99,0.12
0.31,-0.94,0.02
0.31,-0.87,-0.04
0.35,-0.76,-0.07
0.38,-0.68,-0.03
0.38,-0.67,0.01
0.41,-0.66,0.01
0.37,-0.63,0.07
0.28,-0.57,0.09
0.28,-0.53,0.05
0.32,-0.54,0.09
0.35,-0.38,0.09
0.25,-0.32,0.1
0.15,-0.44,0.09
0.18,-0.42,0.05
0.17,-0.35,0.04
0.17,-0.29,0.05
0.16,-0.29,0.07
0.12,-0.35,0.12
0.12,-0.41,0.16
0.17,-0.48,0.17
0.16,-0.64,0.16
0.17,-0.76,0.13
0.19,-0.87,0.09
0.23,-0.99,0.08
0.24,-1.12,0.11
0.24,-1.22,0.13
0.23,-1.27,0.15
0.21,-1.27,0.18
0.2,-1.22,0.21
0.18,-1.11,0.22
0.2,-1.02,0.23
0.23,-0.99,0.22
0.23,-0.99,0.23
0.23,-0.99,0.24
0.24,-1,0.25
0.27,-1.01,0.27
0.28,-1,0.28
0.29,-0.99,0.29
0.3,-0.98,0.3
0.32,-1,0.3
0.33,-1,0.3
0.33,-1,0.29
0.31,-0.99,0.27
0.29,-0.98,0.26
0.26,-0.97,0.26
0.25,-0.96,0.27
0.21,-0.96,0.27
0.19,-0.96,0.28
0.18,-0.97,0.29
0.17,-0.98,0.28
0.16,-0.99,0.27
0.15,-1,0.27
0.14,-1.01,0.27
0.15,-1.01,0.26
0.14,-1.01,0.25
0.13,-1,0.24
0.13,-1,0.24
0.12,-1.01,0.24
0.11,-1.01,0.23
0.08,-1.01,0.23
0.06,-1.01,0.24
0.05,-1.01,0.25
0.03,-1.01,0.25
0.02,-1,0.25
0.01,-1,0.24
0.01,-0.99,0.23
0.03,-0.99,0.23
0.06,-0.98,0.22
0.07,-0.98,0.22
0.08,-0.98,0.22
0.08,-0.98,0.22
0.08,-0.99,0.21
0.06,-0.99,0.2
0.07,-0.98,0.2
0.08,-0.98,0.2
0.09,-0.98,0.2
0.09,-0.99,0.2
0.1,-0.99,0.2
0.1,-1,0.2
0.1,-1,0.2
0.1,-1.01,0.19
0.11,-1.02,0.19
0.12,-1.01,0.18
0.13,-1,0.17
0.14,-1,0.17
0.14,-1.01,0.17
0.14,-1.01,0.17
0.14,-1.01,0.16
0.13,-1.01,0.15
0.13,-0.99,0.15
0.13,-0.98,0.15
0.13,-0.96,0.14
0.12,-0.96,0.15
0.12,-0.97,0.16
0.13,-1.01,0.14
0.15,-1.06,0.12
0.16,-1.12,0.11
0.14,-1.16,0.13
0.11,-1.19,0.17
0.12,-1.15,0.15
0.13,-1.09,0.14
0.12,-1.01,0.14
0.13,-0.92,0.17
0.14,-0.86,0.19
0.15,-0.83,0.2
0.16,-0.83,0.22
0.17,-0.85,0.22
0.18,-0.87,0.23
0.15,-0.9,0.23
0.14,-0.94,0.24
0.13,-0.97,0.25
0.1,-0.99,0.25
0.1,-1,0.26
0.13,-1.01,0.24
0.13,-1.04,0.23
0.1,-1.07,0.25
0.09,-1.08,0.25
0.09,-1.1,0.24
0.09,-1.1,0.19
0.07,-1.1,0.15
0.06,-1.1,0.16
0.06,-1.08,0.16
0.12,-1.07,0.13
0.15,-1.04,0.13
0.13,-0.98,0.14
0.17,-0.96,0.13
0.2,-0.94,0.14
0.2,-0.92,0.16
0.22,-0.91,0.16
0.22,-0.9,0.17
0.22,-0.89,0.19
0.23,-0.91,0.18
0.23,-0.93,0.17
0.24,-0.93,0.15
0.24,-0.93,0.15
0.23,-0.94,0.14
0.23,-0.94,0.15
0.25,-0.94,0.15
0.26,-0.94,0.16
0.26,-0.94,0.17
0.24,-0.94,0.18
0.23,-0.94,0.2
0.25,-0.95,0.19
0.26,-0.95,0.18
0.26,-0.95,0.18
0.25,-0.95,0.18
0.25,-0.95,0.18
0.24,-0.94,0.18
0.23,-0.93,0.19
0.22,-0.91,0.18
0.22,-0.89,0.17
0.23,-0.84,0.18
0.22,-0.83,0.18
0.21,-0.8,0.19
0.2,-0.76,0.19
0.19,-0.72,0.19
0.17,-0.68,0.19
0.15,-0.64,0.18
0.15,-0.6,0.17
0.14,-0.57,0.16
0.13,-0.55,0.16
0.12,-0.53,0.17
0.13,-0.53,0.17
0.13,-0.53,0.18
0.14,-0.54,0.19
0.13,-0.56,0.19
0.12,-0.59,0.19
0.11,-0.61,0.19
0.11,-0.62,0.2
0.15,-0.61,0.17
0.14,-0.63,0.15
0.1,-0.68,0.19
0.11,-0.72,0.2
0.13,-0.75,0.2
0.15,-0.78,0.22
0.15,-0.82,0.22
0.15,-0.87,0.22
0.14,-0.98,0.23
0.15,-0.96,0.24
0.14,-1.01,0.24
0.12,-1.05,0.24
0.13,-1.07,0.25
0.15,-1.09,0.25
0.16,-1.1,0.26
0.18,-1.11,0.28
0.17,-1.12,0.3
0.16,-1.13,0.32
0.17,-1.14,0.32
0.17,-1.15,0.32
0.18,-1.16,0.32
0.18,-1.18,0.31
0.19,-1.2,0.31
0.2,-1.22,0.33
0.19,-1.23,0.34
0.19,-1.25,0.35
0.19,-1.25,0.37
0.19,-1.24,0.38
0.19,-1.24,0.38
0.19,-1.24,0.39
0.2,-1.25,0.39
0.19,-1.26,0.39
0.18,-1.26,0.39
0.17,-1.25,0.39
0.15,-1.21,0.39
0.15,-1.19,0.4
0.15,-1.18,0.43
0.16,-1.18,0.46
0.16,-1.21,0.49
0.18,-1.27,0.5
0.19,-1.35,0.5
0.17,-1.41,0.47
0.14,-1.45,0.42
0.09,-1.44,0.39
0.08,-1.37,0.39
0.08,-1.25,0.41
0.11,-1.13,0.47
0.17,-1.01,0.53
0.24,-0.9,0.56
0.31,-0.78,0.59
0.35,-0.71,0.6
0.35,-0.66,0.6
0.34,-0.62,0.57
0.35,-0.6,0.53
0.35,-0.61,0.53
0.33,-0.62,0.57
0.28,-0.63,0.63
0.23,-0.64,0.66
0.2,-0.65,0.66
0.16,-0.67,0.65
0.14,-0.71,0.65
0.15,-0.74,0.65
0.15,-0.76,0.66
0.17,-0.77,0.67
0.19,-0.78,0.67
0.22,-0.78,0.68
0.24,-0.77,0.68
0.25,-0.75,0.68
0.26,-0.73,0.67
0.27,-0.71,0.68
0.27,-0.7,0.67
0.27,-0.69,0.66
0.27,-0.69,0.66
0.27,-0.69,0.66
0.26,-0.7,0.66
0.26,-0.71,0.65
0.25,-0.71,0.65
0.25,-0.72,0.66
0.26,-0.73,0.66
0.26,-0.74,0.67
0.25,-0.74,0.68
0.25,-0.75,0.69
0.24,-0.76,0.68
0.24,-0.76,0.66
0.23,-0.77,0.65
0.23,-0.78,0.65
0.21,-0.78,0.65
0.22,-0.77,0.65
0.23,-0.76,0.65
0.24,-0.76,0.65
0.25,-0.77,0.65
0.25,-0.76,0.65
0.24,-0.76,0.65
0.23,-0.76,0.64
0.22,-0.77,0.62
0.2,-0.77,0.63
0.19,-0.77,0.63
0.19,-0.77,0.63
0.18,-0.76,0.63
0.18,-0.76,0.62
0.18,-0.76,0.62
0.16,-0.76,0.62
0.16,-0.77,0.61
0.16,-0.77,0.61
0.16,-0.77,0.61
0.16,-0.76,0.62
0.17,-0.75,0.62
0.17,-0.74,0.62
0.17,-0.75,0.61
0.16,-0.75,0.61
0.16,-0.75,0.6
0.15,-0.75,0.6
0.15,-0.75,0.61
0.15,-0.75,0.61
0.14,-0.75,0.6
0.14,-0.76,0.61
0.14,-0.77,0.61
0.13,-0.78,0.61
0.13,-0.79,0.61
0.12,-0.8,0.6
0.13,-0.82,0.59
0.12,-0.83,0.59
0.1,-0.86,0.59
0.09,-0.88,0.59
0.09,-0.91,0.58
0.08,-0.94,0.56
0.08,-0.98,0.55
0.06,-1.04,0.55
0.04,-1.1,0.54
0.04,-1.17,0.54
0.05,-1.24,0.55
0.04,-1.31,0.56
0.02,-1.38,0.55
-0.01,-1.45,0.53
-0.06,-1.49,0.52
-0.09,-1.5,0.48
-0.09,-1.51,0.46
-0.1,-1.56,0.45
-0.12,-1.65,0.46
-0.12,-1.67,0.44
-0.11,-1.65,0.41
-0.12,-1.64,0.39
-0.12,-1.65,0.36
-0.09,-1.66,0.33
-0.09,-1.65,0.3
-0.1,-1.62,0.3
-0.11,-1.57,0.34
-0.1,-1.53,0.37
-0.05,-1.49,0.36
-0.05,-1.43,0.32
-0.08,-1.35,0.31
-0.08,-1.27,0.32
-0.09,-1.19,0.36
-0.11,-1.1,0.42
-0.1,-1.02,0.46
-0.06,-0.94,0.44
-0.09,-0.86,0.4
-0.15,-0.76,0.36
-0.19,-0.71,0.31
-0.19,-0.67,0.27
-0.14,-0.59,0.23
-0.08,-0.57,0.22
-0.03,-0.52,0.2
-0.03,-0.49,0.18
-0.06,-0.37,0.11
0,-0.29,0.04
0.07,-0.28,-0.04
0.16,-0.3,-0.09
0.26,-0.32,-0.12
0.38,-0.37,-0.13
0.48,-0.37,-0.13
0.5,-0.37,-0.09
0.47,-0.42,-0.06
0.45,-0.46,-0.04
0.41,-0.46,-0.02
0.34,-0.46,0
0.29,-0.46,0.01
0.26,-0.48,-0.01
0.25,-0.51,-0.01
0.24,-0.56,0
0.22,-0.6,0.03
0.24,-0.64,0.05
0.25,-0.67,0.09
0.23,-0.7,0.13
0.19,-0.73,0.13
0.16,-0.79,0.13
0.16,-0.88,0.14
0.18,-0.99,0.17
0.21,-1.08,0.19
0.25,-1.14,0.2
0.26,-1.16,0.24
0.24,-1.12,0.26
0.22,-1.06,0.27
0.2,-1.01,0.27
0.2,-0.98,0.27
0.19,-0.96,0.26
0.2,-0.94,0.26
0.2,-0.93,0.26
0.21,-0.93,0.26
0.23,-0.96,0.26
0.23,-0.98,0.26
0.23,-1,0.27
0.24,-1.01,0.26
0.26,-1.01,0.26
0.27,-1.01,0.25
0.28,-1.01,0.25
0.29,-1,0.24
0.28,-1,0.24
0.26,-0.99,0.25
0.23,-0.99,0.27
0.19,-1,0.26
0.15,-1.01,0.25
0.12,-1,0.26
0.13,-1,0.26
0.16,-0.99,0.27
0.17,-0.98,0.26
0.18,-0.97,0.24
0.19,-0.97,0.24
0.19,-0.98,0.23
0.18,-0.99,0.22
0.17,-1.01,0.21
0.16,-1.01,0.2
0.16,-1.01,0.19
0.15,-1.01,0.18
0.14,-1.01,0.18
0.13,-1.01,0.17
0.12,-1,0.16
0.12,-1.01,0.16
0.13,-1.01,0.15
0.14,-1.02,0.14
0.15,-1.01,0.13
0.16,-1.01,0.13
0.14,-1.02,0.13
0.13,-1.01,0.13
0.12,-1,0.14
0.1,-1,0.16
0.09,-0.99,0.18
0.09,-1,0.19
0.1,-1,0.19
0.11,-0.99,0.19
0.11,-0.99,0.18
0.12,-1,0.17
0.12,-1,0.17
0.12,-0.99,0.17
0.14,-1,0.16
0.14,-1,0.17
0.14,-0.99,0.16
0.15,-1,0.16
0.17,-1,0.14
0.17,-1.01,0.14
0.16,-1,0.14
0.15,-1,0.15
0.15,-1,0.16
0.14,-1,0.15
0.14,-1,0.15
0.13,-1,0.14
0.14,-0.99,0.14
0.14,-0.99,0.14
0.15,-0.99,0.14
0.15,-0.99,0.14
0.15,-0.99,0.15
0.15,-1,0.14
0.16,-1,0.13
0.16,-1,0.14
0.15,-1,0.14
0.14,-1.01,0.13
0.14,-1.03,0.13
0.15,-1.04,0.13
0.14,-1.02,0.14
0.14,-1.02,0.13
0.14,-1.01,0.13
0.14,-1,0.14
0.14,-1,0.14
0.14,-0.99,0.14
0.14,-0.99,0.14
0.14,-0.99,0.13
0.14,-0.99,0.12
0.13,-0.99,0.12
0.11,-0.99,0.13
0.11,-0.99,0.12
0.11,-0.99,0.13
0.12,-1,0.13
0.11,-1,0.13
0.11,-1,0.13
0.11,-1.01,0.13
0.11,-1.02,0.13
0.11,-1.01,0.13
0.1,-1,0.13
0.1,-1,0.13
0.11,-1,0.13
0.12,-1,0.13
0.13,-1,0.13
0.13,-1,0.13
0.13,-1,0.13
0.13,-0.99,0.14
0.12,-1,0.14
0.12,-1,0.13
0.12,-1,0.13
0.13,-1,0.13
0.14,-1,0.12
0.14,-1.01,0.13
0.13,-1.02,0.13
0.13,-1.01,0.13
0.12,-1.01,0.13
0.13,-1.01,0.13
0.12,-1.01,0.13
0.12,-1.01,0.13
0.13,-1.01,0.13
0.13,-1.01,0.13
0.13,-1.01,0.13
0.13,-1.01,0.13
0.13,-1.02,0.13
0.12,-1.02,0.14
0.11,-1.01,0.13
0.11,-1,0.13
0.1,-1,0.14
0.09,-1,0.14
0.1,-1,0.15
0.11,-1,0.14
0.11,-1,0.13
0.11,-1,0.13
0.11,-1.01,0.13
0.11,-1.01,0.13
0.1,-1,0.13
0.11,-1.01,0.13
0.11,-1.01,0.13
0.11,-1.01,0.12
0.11,-1.01,0.12
0.11,-1.02,0.12
0.11,-1.02,0.12
0.12,-1.02,0.12
0.11,-1.01,0.12
0.11,-1.01,0.12
0.11,-1,0.12
0.11,-1,0.12
0.11,-0.99,0.12
0.11,-0.99,0.12
0.11,-1,0.12
0.12,-1,0.11
0.12,-1,0.11
0.12,-1,0.11
0.12,-1,0.11
0.12,-1.01,0.11
0.11,-1.01,0.11
0.11,-1,0.11
0.1,-1,0.12
0.1,-1,0.13
0.1,-0.99,0.11
0.12,-0.99,0.12
0.12,-1,0.11
0.12,-0.99,0.12
0.12,-0.99,0.12
0.11,-0.99,0.12
0.11,-1,0.12
0.11,-1,0.12
0.11,-1,0.12
0.11,-1,0.11
0.11,-1,0.12
0.11,-1,0.12
0.11,-1,0.12
0.11,-1,0.12
0.11,-1,0.13
0.12,-1,0.12
0.12,-1,0.12
0.11,-1,0.12
0.11,-1,0.13
0.12,-1,0.13
0.12,-1,0.13
0.12,-1,0.12
0.12,-1,0.13
0.13,-1,0.13
0.13,-1.01,0.13
0.12,-1.01,0.13
0.12,-1,0.13
0.12,-1,0.13
0.12,-1,0.13
0.12,-1.01,0.13
0.12,-1.01,0.13
0.12,-1.01,0.13
0.13,-1.01,0.14
0.12,-1.01,0.13
0.12,-1.01,0.13
0.13,-1,0.13
0.12,-1,0.13
0.12,-1,0.14
0.12,-1,0.14
0.12,-1,0.13
0.12,-1,0.13
0.12,-1.01,0.14
0.12,-1.01,0.13
0.12,-1.01,0.13
0.12,-1.01,0.13
0.12,-1.01,0.13
0.12,-1.01,0.13
0.12,-1,0.13
0.12,-1,0.13
0.12,-1,0.13
0.12,-1,0.13
0.12,-1,0.13
0.12,-1,0.13
0.11,-1.01,0.13
0.11,-1.01,0.13
0.12,-1,0.13
0.11,-1.01,0.13
0.11,-1.01,0.13
0.11,-1,0.13
0.11,-1.01,0.13
0.11,-1.01,0.13
0.11,-1.01,0.13
0.11,-1.01,0.13
0.11,-1,0.13
0.11,-1,0.13
0.11,-1,0.13
0.11,-1,0.13
0.11,-1,0.13
0.11,-1,0.13
0.1,-1,0.13
0.1,-1.01,0.13
0.11,-1.01,0.13
0.11,-1,0.12
0.11,-1,0.12
0.11,-1,0.12
0.11,-1,0.12
0.12,-1,0.12
0.12,-1,0.13
0.11,-1,0.12
0.12,-1,0.12
0.12,-1,0.12
0.11,-1,0.12
0.12,-1.01,0.12
0.12,-1.02,0.13
0.11,-1.01,0.14
0.11,-1.01,0.14
0.12,-1.01,0.15
0.13,-1.01,0.15
0.14,-1.01,0.15
0.15,-1.01,0.15
0.15,-1.01,0.15
0.13,-1.01,0.15
0.12,-1.01,0.16
0.12,-1.01,0.16
0.12,-1,0.17
0.12,-1,0.18
0.13,-0.99,0.18
0.13,-0.98,0.18
0.13,-0.97,0.18
0.13,-0.97,0.18
0.13,-0.97,0.18
0.14,-0.96,0.18
0.15,-0.95,0.17
0.16,-0.93,0.17
0.17,-0.91,0.17
0.2,-0.88,0.15
0.21,-0.85,0.15
0.23,-0.81,0.16
0.25,-0.78,0.17
0.26,-0.74,0.17
0.27,-0.7,0.17
0.26,-0.67,0.17
0.23,-0.63,0.16
0.21,-0.6,0.16
0.19,-0.58,0.17
0.17,-0.57,0.17
0.16,-0.59,0.17
0.15,-0.61,0.16
0.14,-0.65,0.16
0.12,-0.66,0.18
0.11,-0.66,0.18
0.12,-0.68,0.18
0.12,-0.7,0.19
0.14,-0.7,0.19
0.15,-0.7,0.19
0.15,-0.7,0.2
0.16,-0.71,0.21
0.18,-0.73,0.21
0.2,-0.74,0.21
0.2,-0.75,0.21
0.18,-0.75,0.2
0.19,-0.81,0.19
0.21,-0.86,0.2
0.24,-0.87,0.24
0.34,-0.92,0.24
0.46,-1.05,0.22
0.5,-1.09,0.18
0.45,-1.06,0.21
0.39,-1.11,0.23
0.32,-1.14,0.26
0.12,-1.23,0.33
-0.01,-1.29,0.41
0.03,-1.32,0.44
0.08,-1.33,0.45
0.07,-1.28,0.51
0.09,-1.23,0.5
0.16,-1.17,0.44
0.22,-1.14,0.37
0.24,-1.12,0.34
0.22,-1.08,0.37
0.15,-1.05,0.42
0.04,-1.05,0.43
-0.01,-1.03,0.43
-0.02,-1.02,0.43
-0.03,-1.01,0.42
-0.01,-1.03,0.39
0.05,-1.05,0.38
0.11,-1.08,0.42
0.11,-1.08,0.47
0.09,-1.09,0.51
0.1,-1.12,0.52
0.11,-1.15,0.53
0.09,-1.2,0.54
0.08,-1.26,0.55
0.1,-1.33,0.54
0.09,-1.37,0.54
0.07,-1.37,0.54
0.08,-1.34,0.54
0.09,-1.29,0.53
0.1,-1.22,0.52
0.12,-1.13,0.52
0.15,-1.03,0.56
0.17,-0.94,0.59
0.18,-0.86,0.61
0.18,-0.79,0.63
0.18,-0.73,0.66
0.19,-0.67,0.68
0.2,-0.65,0.68
0.17,-0.63,0.69
0.13,-0.61,0.68
0.1,-0.59,0.66
0.09,-0.58,0.66
0.08,-0.56,0.75
0.1,-0.58,0.77
0.12,-0.63,0.78
0.14,-0.66,0.76
0.15,-0.69,0.73
0.16,-0.7,0.72
0.17,-0.68,0.72
0.16,-0.66,0.73
0.15,-0.64,0.77
0.15,-0.64,0.79
0.16,-0.64,0.8
0.17,-0.65,0.79
0.18,-0.66,0.78
0.21,-0.66,0.77
0.23,-0.66,0.75
0.25,-0.64,0.74
0.27,-0.63,0.73
0.28,-0.63,0.72
0.28,-0.63,0.72
0.29,-0.64,0.72
0.3,-0.66,0.72
0.31,-0.68,0.72
0.32,-0.69,0.71
0.34,-0.69,0.71
0.36,-0.69,0.71
0.36,-0.69,0.71
0.36,-0.69,0.7
0.36,-0.69,0.67
0.36,-0.69,0.67
0.36,-0.7,0.66
0.35,-0.7,0.66
0.33,-0.7,0.66
0.33,-0.69,0.67
0.34,-0.68,0.68
0.35,-0.68,0.69
0.34,-0.68,0.68
0.34,-0.69,0.68
0.33,-0.69,0.68
0.32,-0.7,0.68
0.3,-0.7,0.67
0.29,-0.7,0.66
0.28,-0.71,0.66
0.28,-0.72,0.67
0.28,-0.71,0.68
0.28,-0.71,0.69
0.27,-0.71,0.69
0.26,-0.71,0.7
0.26,-0.72,0.7
0.25,-0.72,0.69
0.25,-0.72,0.68
0.24,-0.72,0.67
0.25,-0.73,0.67
0.25,-0.73,0.67
0.26,-0.74,0.66
0.26,-0.75,0.65
0.27,-0.75,0.63
0.27,-0.75,0.62
0.26,-0.76,0.62
0.26,-0.76,0.62
0.27,-0.76,0.62
0.27,-0.77,0.61
0.26,-0.77,0.61
0.26,-0.77,0.61
0.26,-0.77,0.61
0.26,-0.77,0.61
0.25,-0.77,0.61
0.25,-0.77,0.6
0.25,-0.77,0.6
0.25,-0.78,0.6
0.24,-0.78,0.59
0.23,-0.77,0.58
0.23,-0.77,0.58
0.23,-0.77,0.58
0.22,-0.77,0.58
0.21,-0.77,0.58
0.23,-0.78,0.59
0.24,-0.79,0.59
0.23,-0.79,0.59
0.22,-0.8,0.59
0.21,-0.81,0.59
0.2,-0.82,0.58
0.2,-0.82,0.58
0.19,-0.82,0.58
0.2,-0.82,0.57
0.21,-0.83,0.57
0.21,-0.82,0.57
0.22,-0.82,0.58
0.22,-0.82,0.58
0.22,-0.82,0.58
0.22,-0.82,0.58
0.21,-0.81,0.58
0.21,-0.82,0.58
0.2,-0.81,0.58
0.2,-0.81,0.58
0.21,-0.81,0.58
0.21,-0.81,0.58
0.22,-0.81,0.57
0.22,-0.81,0.57
0.21,-0.81,0.57
0.22,-0.8,0.57
0.21,-0.8,0.57
0.21,-0.8,0.57
0.22,-0.8,0.57
0.23,-0.8,0.58
0.23,-0.8,0.58
0.22,-0.8,0.57
0.22,-0.8,0.58
0.21,-0.8,0.58
0.21,-0.8,0.58
0.21,-0.8,0.57
0.21,-0.8,0.57
0.21,-0.8,0.57
0.21,-0.8,0.57
0.21,-0.8,0.58
0.21,-0.8,0.58
0.21,-0.8,0.57
0.2,-0.8,0.56
0.21,-0.79,0.56
0.21,-0.79,0.56
0.2,-0.79,0.56
0.2,-0.78,0.56
0.19,-0.78,0.56
0.19,-0.78,0.56
0.18,-0.78,0.56
0.18,-0.79,0.55
0.18,-0.78,0.55
0.18,-0.78,0.55
0.18,-0.79,0.54
0.18,-0.8,0.54
0.18,-0.81,0.54
0.18,-0.83,0.53
0.18,-0.86,0.54
0.17,-0.91,0.55
0.17,-0.92,0.55
0.17,-0.93,0.55
0.17,-0.95,0.55
0.16,-0.97,0.55
0.16,-0.99,0.55
0.15,-1,0.54
0.13,-1.01,0.53
0.11,-1.03,0.51
0.1,-1.06,0.5
0.08,-1.08,0.51
0.07,-1.1,0.53
0.08,-1.14,0.54
0.07,-1.2,0.52
0.04,-1.27,0.44
0,-1.35,0.35
-0.02,-1.44,0.3
-0.02,-1.53,0.28
-0.02,-1.59,0.3
-0.03,-1.61,0.33
-0.04,-1.6,0.35
-0.07,-1.57,0.36
-0.09,-1.54,0.36
-0.12,-1.54,0.35
-0.16,-1.56,0.32
-0.19,-1.57,0.24
-0.22,-1.57,0.21
-0.25,-1.54,0.19
-0.29,-1.5,0.18
-0.28,-1.48,0.17
-0.28,-1.46,0.16
-0.28,-1.41,0.15
-0.25,-1.38,0.15
-0.23,-1.35,0.14
-0.2,-1.3,0.13
-0.18,-1.24,0.13
-0.16,-1.19,0.16
-0.15,-1.13,0.19
-0.12,-1.03,0.2
-0.1,-0.97,0.19
-0.11,-0.89,0.18
-0.13,-0.82,0.19
-0.15,-0.77,0.19
-0.21,-0.7,0.24
-0.26,-0.65,0.22
-0.25,-0.59,0.14
-0.19,-0.61,0.08
-0.12,-0.6,0.03
0,-0.54,0.04
0.11,-0.53,0.04
0.13,-0.48,0.02
0.12,-0.47,-0.06
0.14,-0.34,-0.06
0.21,-0.33,-0.06
0.31,-0.39,-0.08
0.34,-0.41,-0.04
0.32,-0.43,0.01
0.32,-0.46,0.01
0.32,-0.47,0
0.32,-0.47,0.01
0.3,-0.51,0.02
0.26,-0.57,0.03
0.23,-0.6,0.06
0.2,-0.64,0.08
0.16,-0.65,0.09
0.14,-0.63,0.08
0.14,-0.61,0.06
0.16,-0.63,0.05
0.18,-0.69,0.05
0.21,-0.75,0.06
0.25,-0.84,0.05
0.26,-0.93,0.05
0.26,-1.01,0.06
0.27,-1.09,0.08
0.26,-1.16,0.08
0.24,-1.19,0.09
0.21,-1.18,0.11
0.18,-1.16,0.12
0.14,-1.12,0.12
0.14,-1.09,0.13
0.14,-1.07,0.14
0.15,-1.06,0.14
0.16,-1.06,0.15
0.18,-1.06,0.15
0.2,-1.06,0.15
0.22,-1.06,0.16
0.23,-1.05,0.16
0.25,-1.04,0.16
0.26,-1.03,0.15
0.25,-1.02,0.15
0.24,-1.02,0.16
0.23,-1.01,0.17
0.2,-1.01,0.17
0.17,-1.01,0.18
0.15,-1.02,0.19
0.12,-1.03,0.19
0.1,-1.02,0.18
0.1,-1,0.18
0.09,-0.99,0.19
0.08,-0.98,0.19
0.07,-0.97,0.19
0.08,-0.97,0.19
0.07,-0.97,0.18
0.07,-0.98,0.18
0.05,-1,0.17
0.05,-1.01,0.16
0.04,-1.01,0.16
0.04,-1.02,0.15
0.04,-1.03,0.14
0.05,-1.03,0.14
0.05,-1.03,0.13
0.06,-1.03,0.12
0.06,-1.02,0.12
0.06,-1.01,0.11
0.05,-1.01,0.11
0.06,-1.01,0.1
0.06,-1,0.1
0.05,-1.01,0.1
0.04,-1,0.11
0.04,-1,0.1
0.04,-0.99,0.1
0.04,-0.99,0.1
0.05,-0.98,0.1
0.07,-0.98,0.1
0.07,-0.99,0.09
0.08,-1,0.09
0.08,-1,0.08
0.08,-1,0.08
0.09,-1.01,0.08
0.1,-1.01,0.07
0.09,-1.01,0.09
0.09,-1.01,0.09
0.08,-1.01,0.09
0.08,-1.02,0.09
0.09,-1.02,0.08
0.09,-1.02,0.09
0.09,-1.02,0.09
0.09,-1.02,0.09
0.09,-1.02,0.1
0.08,-1.01,0.1
0.09,-1.01,0.1
0.1,-1,0.11
0.1,-1,0.11
0.09,-1,0.11
0.09,-1,0.11
0.09,-1,0.12
0.09,-0.99,0.12
0.09,-1,0.12
0.09,-1,0.12
0.09,-1,0.12
0.09,-1,0.12
0.09,-1,0.12
0.1,-1,0.13
0.1,-1,0.13
0.1,-1,0.13
0.1,-1,0.13
0.1,-1.01,0.14
0.1,-1.01,0.14
0.1,-1.01,0.14
0.09,-1.01,0.14
0.09,-1.01,0.14
0.1,-1.01,0.14
0.09,-1.01,0.14
0.09,-1.01,0.15
0.09,-1.01,0.15
0.1,-1.02,0.15
0.11,-1.02,0.14
0.11,-1.02,0.13
0.1,-1.02,0.13
0.11,-1.02,0.14
0.12,-1.02,0.13
0.11,-1.01,0.13
0.11,-1.01,0.13
0.12,-1.01,0.13
0.12,-1.01,0.13
0.11,-1,0.13
0.12,-1,0.12
0.12,-1,0.12
0.11,-1,0.12
0.12,-1,0.12
0.12,-1,0.12
0.12,-1,0.12
0.12,-1.01,0.12
0.12,-1.01,0.11
0.12,-1.02,0.11
0.11,-1.01,0.12
0.11,-1.01,0.12
0.11,-1.01,0.12
0.1,-1.01,0.13
0.1,-1.01,0.13
0.1,-1,0.12
0.1,-1,0.12
0.09,-1,0.12
0.09,-1,0.12
0.09,-1,0.13
0.09,-1,0.13
0.09,-1,0.12
0.09,-1,0.13
0.09,-0.99,0.13
0.09,-0.99,0.12
0.09,-1,0.12
0.09,-1,0.12
0.09,-1,0.13
0.09,-1,0.14
0.08,-1,0.13
0.08,-1.01,0.13
0.07,-1.01,0.13
0.07,-1.01,0.13
0.07,-1.01,0.13
0.08,-1.01,0.13
0.08,-1.01,0.13
0.08,-1,0.13
0.08,-0.99,0.14
0.08,-0.99,0.14
0.08,-0.99,0.13
0.08,-0.99,0.13
0.08,-0.99,0.13
0.08,-0.99,0.13
0.08,-1,0.13
0.07,-1,0.13
0.07,-1.01,0.13
0.08,-1.01,0.13
0.09,-1.01,0.12
0.08,-1.01,0.12
0.08,-1.01,0.12
0.08,-1.01,0.13
0.08,-1,0.13
0.08,-1,0.13
0.08,-1,0.12
0.08,-1,0.12
0.08,-1,0.12
0.07,-1,0.13
0.07,-1,0.13
0.07,-1,0.13
0.07,-1,0.13
0.07,-1,0.13
0.08,-1,0.14
0.07,-1.01,0.14
0.07,-1.01,0.14
0.07,-1.01,0.14
0.08,-1.01,0.13
0.08,-1.01,0.14
0.08,-1.01,0.14
0.08,-1.01,0.14
0.08,-1.02,0.14
0.09,-1.01,0.14
0.09,-1.01,0.14
0.08,-1.01,0.14
0.09,-1.01,0.14
0.1,-1.01,0.13
0.11,-1.02,0.13
0.12,-1.02,0.13
0.13,-1.03,0.12
0.15,-1.03,0.12
0.15,-1.03,0.11
0.16,-1.03,0.11
0.18,-1.03,0.1
0.18,-1.03,0.1
0.19,-1.02,0.1
0.2,-1.01,0.1
0.21,-1,0.09
0.22,-0.98,0.09
0.24,-0.96,0.09
0.24,-0.93,0.09
0.22,-0.9,0.1
0.23,-0.88,0.11
0.24,-0.85,0.1
0.22,-0.83,0.1
0.19,-0.8,0.11
0.19,-0.75,0.12
0.2,-0.7,0.11
0.2,-0.66,0.07
0.21,-0.63,0.05
0.22,-0.6,0.05
0.21,-0.58,0.07
0.22,-0.56,0.1
0.2,-0.57,0.12
0.16,-0.57,0.13
0.11,-0.55,0.12
0.13,-0.53,0.11
0.13,-0.52,0.14
0.04,-0.51,0.18
-0.11,-0.47,0.21
-0.22,-0.42,0.25
-0.23,-0.38,0.29
-0.22,-0.37,0.3
-0.2,-0.44,0.39
-0.15,-0.72,0.41
-0.19,-0.84,0.46
-0.18,-0.93,0.53
-0.08,-1.01,0.58
-0.04,-1.05,0.57
0.01,-1.07,0.54
0.09,-1.08,0.53
0.18,-1.13,0.49
0.27,-1.22,0.42
0.36,-1.34,0.37
0.43,-1.41,0.37
0.51,-1.43,0.42
0.57,-1.44,0.42
0.6,-1.45,0.34
0.61,-1.45,0.24
0.6,-1.48,0.17
0.63,-1.46,0.19
0.6,-1.36,0.2
0.59,-1.31,0.16
0.65,-1.3,0.18
0.69,-1.26,0.23
0.69,-1.26,0.19
0.72,-1.28,0.1
0.74,-1.27,0.07
0.7,-1.25,0.1
0.66,-1.21,0.39
0.47,-1.08,0.39
0.48,-1.05,0.39
0.52,-1.01,0.46
0.51,-0.99,0.52
0.47,-0.95,0.62
0.37,-0.87,0.54
0.32,-0.88,0.35
0.37,-0.91,0.29
0.4,-0.91,0.35
0.39,-0.94,0.46
0.36,-0.98,0.57
0.29,-1.01,0.63
0.25,-1.04,0.8
0.2,-1.02,1.04
0.22,-0.94,1.12
0.34,-0.87,1.01
0.43,-0.77,0.9
0.5,-0.65,0.84
0.6,-0.55,0.78
0.63,-0.45,0.76
0.57,-0.4,0.76
0.5,-0.36,0.75
0.43,-0.34,0.71
0.41,-0.32,0.65
0.4,-0.28,0.64
0.39,-0.26,0.67
0.39,-0.28,0.82
0.39,-0.31,0.88
0.37,-0.33,0.94
0.37,-0.36,0.95
0.4,-0.39,0.95
0.43,-0.41,0.94
0.45,-0.43,0.93
0.48,-0.45,0.9
0.53,-0.46,0.86
0.58,-0.47,0.83
0.6,-0.47,0.79
0.62,-0.46,0.75
0.62,-0.45,0.72
0.62,-0.44,0.68
0.61,-0.44,0.64
0.61,-0.44,0.61
0.6,-0.45,0.61
0.59,-0.47,0.61
0.58,-0.49,0.63
0.56,-0.51,0.66
0.53,-0.52,0.68
0.51,-0.52,0.71
0.49,-0.52,0.72
0.49,-0.53,0.74
0.49,-0.53,0.75
0.5,-0.53,0.74
0.51,-0.52,0.73
0.51,-0.52,0.71
0.51,-0.52,0.7
0.51,-0.51,0.7
0.52,-0.5,0.69
0.52,-0.5,0.69
0.53,-0.5,0.68
0.53,-0.5,0.68
0.54,-0.5,0.68
0.55,-0.51,0.68
0.55,-0.51,0.68
0.55,-0.52,0.67
0.54,-0.52,0.67
0.53,-0.52,0.67
0.53,-0.53,0.67
0.53,-0.53,0.67
0.52,-0.53,0.67
0.53,-0.54,0.68
0.53,-0.54,0.69
0.53,-0.55,0.7
0.53,-0.55,0.7
0.53,-0.55,0.7
0.53,-0.55,0.7
0.52,-0.54,0.7
0.52,-0.53,0.7
0.52,-0.53,0.69
0.53,-0.51,0.69
0.54,-0.51,0.69
0.55,-0.51,0.69
0.56,-0.52,0.69
0.57,-0.52,0.69
0.57,-0.52,0.69
0.57,-0.53,0.69
0.56,-0.53,0.68
0.56,-0.53,0.68
0.55,-0.54,0.67
0.55,-0.54,0.67
0.54,-0.55,0.66
0.54,-0.55,0.67
0.53,-0.55,0.67
0.53,-0.55,0.67
0.54,-0.55,0.67
0.54,-0.55,0.66
0.54,-0.55,0.67
0.54,-0.55,0.67
0.54,-0.55,0.67
0.54,-0.54,0.67
0.54,-0.54,0.66
0.55,-0.53,0.66
0.56,-0.53,0.65
0.56,-0.53,0.66
0.56,-0.53,0.67
0.56,-0.52,0.67
0.55,-0.5,0.67
0.56,-0.5,0.66
0.57,-0.49,0.65
0.58,-0.49,0.64
0.6,-0.5,0.64
0.61,-0.5,0.64
0.62,-0.51,0.65
0.61,-0.51,0.66
0.6,-0.52,0.67
0.58,-0.51,0.67
0.55,-0.5,0.65
0.53,-0.5,0.63
0.55,-0.5,0.62
0.57,-0.5,0.61
0.59,-0.51,0.62
0.61,-0.53,0.63
0.59,-0.53,0.63
0.56,-0.54,0.62
0.53,-0.54,0.6
0.52,-0.54,0.56
0.54,-0.53,0.52
0.59,-0.53,0.5
0.63,-0.52,0.5
0.65,-0.5,0.52
0.69,-0.49,0.54
0.73,-0.54,0.58
0.72,-0.59,0.62
0.71,-0.64,0.66
0.7,-0.68,0.7
0.68,-0.7,0.73
0.65,-0.71,0.74
0.63,-0.71,0.76
0.63,-0.71,0.78
0.61,-0.7,0.75
0.58,-0.68,0.67
0.58,-0.65,0.57
0.64,-0.66,0.49
0.71,-0.69,0.49
0.77,-0.72,0.52
0.74,-0.71,0.48
0.68,-0.69,0.43
0.68,-0.7,0.41
0.64,-0.73,0.39
0.56,-0.78,0.37
0.55,-0.86,0.38
0.62,-0.98,0.41
0.65,-1.07,0.41
0.66,-1.11,0.39
0.68,-1.1,0.36
0.68,-1.12,0.28
0.61,-1.17,0.14
0.54,-1.19,-0.06
0.5,-1.44,-0.02
0.42,-1.62,0.06
0.34,-1.74,0.16
0.29,-1.82,0.24
0.24,-1.88,0.27
0.19,-1.87,0.26
0.22,-1.82,0.28
0.25,-1.76,0.26
0.23,-1.71,0.22
0.22,-1.57,0.24
0.15,-1.42,0.3
0.06,-1.27,0.36
0.03,-1.14,0.39
0.02,-1.07,0.43
0.01,-0.96,0.42
0.02,-0.79,0.3
0.02,-0.74,0.22
0.01,-0.74,0.19
0.04,-0.64,0.15
0.05,-0.56,0.16
0.05,-0.54,0.2
0.06,-0.5,0.26
0.03,-0.48,0.29
-0.01,-0.46,0.28
0,-0.42,0.24
0.04,-0.4,0.19
0.15,-0.38,0.18
0.16,-0.41,0.2
0.14,-0.45,0.21
0.09,-0.5,0.15
0.06,-0.51,0.06
0.04,-0.55,-0.01
0.04,-0.63,-0.06
0.12,-0.68,-0.08
0.21,-0.73,-0.08
0.29,-0.79,-0.09
0.33,-0.82,-0.12
0.34,-0.83,-0.12
0.35,-0.84,-0.12
0.36,-0.84,-0.1
0.31,-0.86,-0.07
0.25,-0.88,-0.03
0.24,-0.9,0.01
0.25,-0.92,0.03
0.23,-0.94,0.05
0.19,-0.94,0.07
0.16,-0.93,0.07
0.18,-0.92,0.06
0.2,-0.91,0.06
0.18,-0.92,0.09
0.14,-0.93,0.11
0.13,-0.95,0.09
0.18,-0.95,0.07
0.21,-0.94,0.05
0.21,-0.93,0.04
0.17,-0.94,0.04
0.15,-0.94,0.04
0.16,-0.96,0.05
0.19,-0.98,0.06
0.22,-1,0.06
0.23,-1.02,0.05
0.21,-1.04,0.06
0.2,-1.03,0.07
0.21,-1.02,0.08
0.22,-1.01,0.09
0.24,-1.01,0.1
0.25,-1.01,0.1
0.24,-1.01,0.11
0.24,-1.01,0.11
0.24,-1.02,0.1
0.24,-1.03,0.09
0.24,-1.02,0.09
0.24,-1,0.09
0.25,-1,0.09
0.26,-0.99,0.09
0.26,-0.98,0.09
0.25,-0.97,0.1
0.25,-0.96,0.11
0.28,-0.98,0.1
0.28,-0.98,0.09
0.27,-0.98,0.09
0.25,-0.99,0.1
0.24,-1,0.09
0.22,-1.01,0.07
0.22,-1.01,0.06
0.22,-1.01,0.07
0.23,-1.02,0.07
0.23,-1.02,0.07
0.25,-1.02,0.07
0.25,-1.01,0.07
0.26,-1,0.07
0.26,-0.99,0.07
0.24,-0.99,0.09
0.22,-1,0.09
0.21,-0.99,0.07
0.2,-1,0.06
0.19,-1,0.08
0.17,-1,0.1
0.16,-1.01,0.1
0.16,-1.01,0.08
0.16,-0.99,0.07
0.18,-0.98,0.07
0.2,-0.97,0.06
0.22,-0.98,0.06
0.24,-0.98,0.04
0.24,-0.99,0.03
0.25,-0.99,0.03
0.25,-0.99,0.03
0.24,-1,0.04
0.24,-1,0.03
0.25,-1,0.02
0.24,-1.01,0.02
0.24,-1.01,0.02
0.25,-1.01,0.01
0.27,-1.02,-0.01
0.28,-1.03,-0.02
0.28,-1.02,0
0.21,-1.01,0.02
0.13,-0.99,0.04
0.14,-0.98,0.05
0.17,-0.98,0.07
0.15,-0.97,0.08
0.14,-0.97,0.07
0.15,-0.98,0.07
0.17,-0.97,0.08
0.14,-0.98,0.08
0.13,-0.99,0.08
0.18,-0.98,0.1
0.2,-1,0.08
0.19,-0.99,0.1
0.14,-0.98,0.12
0.17,-0.98,0.12
0.18,-0.98,0.13
0.19,-1,0.14
0.19,-1,0.14
0.2,-0.99,0.16
0.21,-0.99,0.15
0.22,-1,0.14
0.23,-1.01,0.14
0.22,-1.02,0.14
0.18,-1.03,0.2
0.15,-1.03,0.31
0.15,-1.03,0.37
0.17,-1.02,0.33
0.18,-1,0.25
0.16,-0.99,0.2
0.15,-0.99,0.17
0.18,-0.99,0.16
0.2,-1,0.14
0.23,-1,0.11
0.25,-1,0.09
0.23,-1,0.09
0.21,-0.99,0.08
0.21,-0.99,0.07
0.21,-0.99,0.07
0.2,-0.99,0.07
0.2,-0.99,0.07
0.2,-0.99,0.08
0.2,-0.99,0.09
0.2,-0.98,0.09
0.2,-0.98,0.09
0.21,-0.98,0.08
0.21,-0.99,0.09
0.21,-0.99,0.08
0.22,-0.99,0.08
0.22,-0.99,0.09
0.21,-0.99,0.09
0.21,-1,0.1
0.2,-0.99,0.1
0.19,-0.99,0.11
0.2,-0.99,0.12
0.2,-0.99,0.12
0.2,-1,0.11
0.21,-1,0.11
0.22,-1,0.12
0.22,-1,0.12
0.21,-0.99,0.12
0.21,-0.99,0.12
0.21,-0.99,0.13
0.2,-0.99,0.14
0.21,-0.98,0.14
0.21,-0.99,0.13
0.21,-0.99,0.12
0.21,-0.99,0.12
0.22,-0.99,0.12
0.22,-1,0.11
0.21,-1,0.12
0.21,-1,0.12
0.21,-0.99,0.12
0.21,-0.99,0.12
0.22,-0.98,0.11
0.23,-0.98,0.11
0.23,-0.98,0.12
0.21,-0.99,0.11
0.21,-0.99,0.11
0.21,-0.99,0.11
0.22,-1,0.11
0.21,-1,0.1
0.2,-1,0.1
0.21,-0.99,0.1
0.21,-0.99,0.1
0.22,-0.99,0.1
0.23,-0.99,0.1
0.23,-0.98,0.11
0.23,-0.98,0.11
0.23,-0.98,0.11
0.24,-0.98,0.11
0.23,-0.99,0.1
0.23,-0.99,0.1
0.24,-1.01,0.1
0.24,-1.01,0.11
0.24,-1.01,0.12
0.24,-1.01,0.12
0.24,-1.01,0.12
0.24,-1.01,0.12
0.24,-1,0.13
0.25,-0.98,0.14
0.26,-0.97,0.14
0.26,-0.96,0.14
0.25,-0.95,0.15
0.25,-0.93,0.15
0.24,-0.91,0.16
0.24,-0.89,0.16
0.23,-0.87,0.17
0.21,-0.84,0.18
0.21,-0.8,0.18
0.2,-0.77,0.16
0.2,-0.75,0.12
0.22,-0.73,0.1
0.24,-0.7,0.1
0.24,-0.69,0.09
0.26,-0.69,0.08
0.28,-0.7,0.1
0.29,-0.74,0.13
0.26,-0.74,0.17
0.18,-0.73,0.17
0.16,-0.73,0.16
0.17,-0.74,0.13
0.2,-0.76,0.08
0.24,-0.78,0.09
0.25,-0.8,0.13
0.22,-0.82,0.18
0.19,-0.85,0.21
0.17,-0.85,0.22
0.18,-0.84,0.2
0.19,-0.85,0.17
0.21,-0.87,0.15
0.22,-0.87,0.14
0.2,-0.89,0.14
0.2,-0.89,0.15
0.19,-0.88,0.19
0.21,-0.88,0.22
0.25,-0.88,0.22
0.22,-0.85,0.22
0.21,-0.84,0.2
0.22,-0.87,0.19
0.25,-0.88,0.18
0.28,-0.9,0.18
0.29,-0.93,0.2
0.27,-0.94,0.26
0.23,-0.92,0.41
0.2,-0.89,0.44
0.22,-0.9,0.4
0.25,-0.92,0.34
0.28,-0.95,0.33
0.28,-0.95,0.37
0.28,-0.94,0.41
0.28,-0.95,0.48
0.23,-0.95,0.52
0.21,-0.95,0.49
0.24,-0.97,0.49
0.26,-0.98,0.52
0.29,-1,0.53
0.3,-1.02,0.52
0.32,-1.04,0.53
0.35,-1.03,0.6
0.37,-1,0.65
0.37,-1,0.64
0.36,-0.99,0.62
0.35,-1,0.62
0.35,-1.01,0.65
0.35,-1,0.7
0.36,-1,0.72
0.38,-1.03,0.69
0.39,-1.08,0.69
0.37,-1.12,0.73
0.36,-1.16,0.8
0.37,-1.29,0.82
0.39,-1.34,0.84
0.4,-1.32,0.85
0.39,-1.26,0.85
0.38,-1.15,0.8
0.37,-1.03,0.74
0.33,-0.91,0.73
0.27,-0.8,0.72
0.23,-0.7,0.71
0.21,-0.58,0.69
0.2,-0.5,0.66
0.23,-0.45,0.63
0.3,-0.4,0.62
0.35,-0.38,0.61
0.37,-0.39,0.6
0.39,-0.41,0.59
0.37,-0.44,0.61
0.37,-0.47,0.64
0.38,-0.49,0.69
0.35,-0.49,0.74
0.35,-0.5,0.75
0.41,-0.52,0.77
0.46,-0.51,0.79
0.46,-0.51,0.79
0.47,-0.53,0.79
0.5,-0.54,0.82
0.53,-0.54,0.82
0.59,-0.53,0.79
0.6,-0.53,0.75
0.62,-0.52,0.72
0.6,-0.49,0.71
0.57,-0.48,0.71
0.54,-0.47,0.7
0.49,-0.46,0.7
0.45,-0.46,0.71
0.4,-0.46,0.75
0.38,-0.47,0.78
0.35,-0.48,0.81
0.31,-0.49,0.84
0.28,-0.49,0.86
0.25,-0.49,0.87
0.22,-0.49,0.85
0.18,-0.51,0.85
0.19,-0.52,0.83
0.25,-0.54,0.79
0.33,-0.55,0.74
0.41,-0.57,0.7
0.46,-0.58,0.67
0.48,-0.58,0.67
0.52,-0.58,0.66
0.56,-0.58,0.65
0.58,-0.58,0.65
0.59,-0.58,0.64
0.58,-0.57,0.62
0.57,-0.56,0.6
0.58,-0.57,0.58
0.59,-0.58,0.58
0.59,-0.59,0.59
0.59,-0.61,0.6
0.59,-0.62,0.62
0.58,-0.63,0.64
0.57,-0.64,0.65
0.57,-0.64,0.65
0.55,-0.63,0.65
0.53,-0.63,0.65
0.52,-0.63,0.65
0.5,-0.62,0.64
0.48,-0.62,0.64
0.49,-0.62,0.63
0.5,-0.62,0.63
0.52,-0.62,0.62
0.53,-0.61,0.61
0.55,-0.61,0.6
0.57,-0.61,0.6
0.58,-0.61,0.6
0.58,-0.61,0.6
0.58,-0.61,0.6
0.58,-0.62,0.6
0.58,-0.63,0.59
0.56,-0.63,0.59
0.55,-0.63,0.59
0.54,-0.63,0.6
0.53,-0.63,0.61
0.52,-0.62,0.61
0.51,-0.62,0.61
0.52,-0.62,0.61
0.52,-0.62,0.6
0.53,-0.62,0.59
0.54,-0.62,0.59
0.53,-0.62,0.6
0.52,-0.61,0.61
0.52,-0.61,0.62
0.52,-0.61,0.62
0.53,-0.61,0.62
0.54,-0.6,0.63
0.55,-0.6,0.62
0.57,-0.6,0.61
0.57,-0.6,0.6
0.57,-0.6,0.59
0.57,-0.59,0.58
0.54,-0.6,0.58
0.52,-0.59,0.57
0.51,-0.59,0.57
0.5,-0.59,0.57
0.51,-0.59,0.55
0.55,-0.62,0.56
0.56,-0.64,0.58
0.57,-0.64,0.59
0.58,-0.64,0.58
0.58,-0.63,0.55
0.6,-0.63,0.52
0.6,-0.63,0.51
0.59,-0.62,0.51
0.6,-0.62,0.51
0.63,-0.62,0.49
0.64,-0.63,0.47
0.65,-0.65,0.48
0.68,-0.67,0.51
0.72,-0.72,0.55
0.79,-0.77,0.63
0.85,-0.83,0.72
0.88,-0.86,0.78
0.83,-0.85,0.76
0.68,-0.79,0.64
0.53,-0.71,0.46
0.5,-0.68,0.31
0.57,-0.69,0.23
0.68,-0.73,0.25
0.78,-0.8,0.31
0.83,-0.85,0.33
0.84,-0.88,0.29
0.86,-0.95,0.26
0.89,-1,0.22
0.89,-1.05,0.18
0.85,-1.1,0.09
0.83,-1.16,-0.01
0.87,-1.24,-0.06
0.87,-1.35,-0.02
0.75,-1.46,-0.01
0.6,-1.53,0
0.51,-1.56,0.03
0.52,-1.57,0.01
0.52,-1.57,0.04
0.48,-1.58,0.09
0.45,-1.59,0.13
0.4,-1.53,0.16
0.36,-1.44,0.2
0.35,-1.38,0.22
0.31,-1.33,0.24
0.26,-1.28,0.24
0.2,-1.17,0.22
0.15,-1.03,0.17
0.13,-0.94,0.12
0.14,-0.87,0.1
0.16,-0.82,0.09
0.19,-0.79,0.09
0.21,-0.77,0.13
0.22,-0.7,0.14
0.23,-0.65,0.11
0.24,-0.61,0.05
0.24,-0.56,0.01
0.25,-0.52,-0.03
0.26,-0.48,-0.03
0.26,-0.44,-0.01
0.26,-0.41,0.02
0.21,-0.39,0.07
0.17,-0.37,0.11
0.14,-0.36,0.14
0.12,-0.38,0.16
0.11,-0.39,0.17
0.1,-0.4,0.18
0.09,-0.42,0.2
0.07,-0.45,0.18
0.08,-0.47,0.16
0.12,-0.53,0.14
0.16,-0.58,0.13
0.19,-0.63,0.12
0.21,-0.69,0.11
0.22,-0.74,0.1
0.21,-0.8,0.07
0.19,-0.84,0.05
0.2,-0.89,0.04
0.21,-0.96,0.08
0.25,-1.06,0.09
0.27,-1.09,0.09
0.28,-1.1,0.08
0.33,-1.09,0.08
0.35,-1.07,0.09
0.36,-1.06,0.11
0.37,-1.05,0.14
0.37,-1.03,0.15
0.35,-1.01,0.16
0.33,-1,0.17
0.31,-0.98,0.19
0.31,-0.98,0.2
0.31,-0.99,0.2
0.31,-0.98,0.21
0.29,-0.98,0.21
0.29,-1.01,0.18
0.3,-1.06,0.1
0.34,-1.09,0.08
0.32,-1.09,0.17
0.17,-1.09,0.28
0.03,-1.06,0.32
-0.02,-1,0.28
0.04,-1,0.21
0.11,-1.03,0.17
0.12,-1.03,0.15
0.15,-1.01,0.12
0.16,-0.97,0.11
0.16,-0.96,0.11
0.16,-0.96,0.1
0.16,-0.95,0.1
0.15,-0.95,0.1
0.15,-0.96,0.09
0.14,-0.97,0.08
0.13,-0.97,0.07
0.13,-0.98,0.06
0.12,-1,0.05
0.11,-1.01,0.04
0.13,-1,0.03
0.14,-1,0.04
0.16,-1,0.04
0.18,-0.99,0.05
0.19,-0.99,0.06
0.2,-0.98,0.07
0.2,-0.99,0.08
0.21,-1,0.09
0.21,-1.01,0.09
0.21,-1.01,0.09
0.22,-1.01,0.1
0.22,-1.01,0.11
0.22,-1,0.13
0.21,-0.99,0.14
0.21,-0.98,0.15
0.21,-0.98,0.16
0.2,-0.99,0.16
0.2,-1,0.17
0.19,-1,0.17
0.18,-1.01,0.17
0.18,-1.02,0.16
0.17,-1.02,0.15
0.16,-1.01,0.15
0.16,-1,0.15
0.16,-0.99,0.14
0.16,-0.99,0.14
0.16,-0.98,0.14
0.16,-0.98,0.13
0.17,-0.98,0.13
0.18,-0.98,0.12
0.18,-0.99,0.12
0.17,-1,0.11
0.17,-1.01,0.1
0.18,-1.01,0.09
0.18,-1.01,0.1
0.19,-1,0.1
0.19,-1.01,0.1
0.19,-1.01,0.09
0.19,-1.01,0.09
0.19,-1.01,0.08
0.19,-1,0.08
0.2,-0.99,0.09
0.2,-0.99,0.1
0.2,-0.99,0.1
0.2,-0.98,0.1
0.21,-0.98,0.11
0.21,-0.98,0.11
0.2,-0.98,0.11
0.2,-0.98,0.12
0.21,-0.98,0.12
0.2,-0.99,0.12
0.2,-0.99,0.12
0.21,-0.99,0.12
0.22,-0.99,0.12
0.22,-1,0.12
0.22,-1.01,0.12
0.21,-1.01,0.11
0.21,-1.01,0.11
0.21,-1.01,0.11
0.21,-1.01,0.11
0.21,-1.01,0.11
0.21,-1,0.11
0.2,-1,0.11
0.2,-1,0.12
0.19,-1,0.12
0.19,-1,0.12
0.19,-1,0.12
0.18,-1.01,0.11
0.19,-1,0.11
0.2,-1,0.11
0.2,-1,0.11
0.21,-1,0.11
0.21,-1,0.11
0.2,-1,0.12
0.2,-0.99,0.12
0.2,-1,0.11
0.22,-1,0.1
0.21,-0.99,0.1
0.2,-0.98,0.11
0.2,-0.99,0.11
0.21,-0.98,0.1
0.21,-0.98,0.1
0.21,-0.98,0.11
0.21,-0.98,0.11
0.21,-0.99,0.11
0.22,-0.99,0.1
0.22,-1,0.1
0.22,-1.01,0.09
0.23,-1.01,0.09
0.23,-1.01,0.08
0.24,-1.01,0.08
0.24,-1.01,0.07
0.24,-1.01,0.07
0.23,-1,0.08
0.23,-1,0.07
0.23,-1,0.05
0.24,-1,0.04
0.25,-1,0.04
0.26,-1,0.04
0.26,-0.99,0.05
0.24,-0.97,0.06
0.23,-0.95,0.08
0.22,-0.92,0.07
0.21,-0.9,0.04
0.19,-0.88,0
0.2,-0.88,-0.02
0.26,-0.88,-0.01
0.29,-0.89,0.02
0.29,-0.9,0.04
0.25,-0.89,0.04
0.18,-0.86,0.07
0.1,-0.85,0.1
0.05,-0.84,0.13
0.06,-0.83,0.14
0.09,-0.83,0.15
0.13,-0.83,0.15
0.18,-0.84,0.15
0.18,-0.86,0.15
0.12,-0.85,0.15
0.04,-0.84,0.16
-0.07,-0.78,0.19
-0.07,-0.76,0.22
-0.05,-0.77,0.22
0,-0.78,0.21
0.03,-0.79,0.21
0,-0.77,0.24
-0.03,-0.74,0.27
-0.02,-0.71,0.25
0,-0.69,0.21
0.02,-0.68,0.19
0.05,-0.7,0.18
0.1,-0.72,0.16
0.12,-0.73,0.16
0.13,-0.74,0.2
0.17,-0.74,0.24
0.22,-0.75,0.26
0.24,-0.78,0.3
0.22,-0.8,0.33
0.23,-0.8,0.35
0.27,-0.81,0.37
0.31,-0.83,0.39
0.36,-0.83,0.4
0.38,-0.83,0.42
0.41,-0.82,0.43
0.44,-0.81,0.42
0.45,-0.82,0.44
0.44,-0.9,0.49
0.43,-0.93,0.53
0.43,-0.95,0.58
0.43,-0.98,0.62
0.42,-1,0.64
0.42,-1.01,0.64
0.42,-1.04,0.63
0.39,-1.08,0.59
0.35,-1.12,0.55
0.27,-1.16,0.53
0.23,-1.19,0.52
0.22,-1.23,0.49
0.22,-1.26,0.48
0.24,-1.27,0.47
0.29,-1.24,0.46
0.37,-1.19,0.43
0.44,-1.12,0.42
0.48,-1.08,0.43
0.5,-1.04,0.44
0.49,-1.02,0.48
0.45,-1,0.52
0.39,-0.98,0.55
0.34,-0.98,0.59
0.28,-0.98,0.63
0.24,-1,0.67
0.22,-1.02,0.72
0.19,-1.09,0.76
0.19,-1.11,0.79
0.2,-1.11,0.8
0.21,-1.07,0.82
0.24,-1.03,0.82
0.26,-0.97,0.8
0.24,-0.91,0.78
0.2,-0.86,0.76
0.15,-0.82,0.72
0.11,-0.77,0.67
0.07,-0.73,0.63
0.04,-0.7,0.6
0,-0.67,0.57
-0.02,-0.64,0.55
-0.04,-0.62,0.55
-0.04,-0.6,0.58
-0.05,-0.59,0.59
-0.09,-0.59,0.61
-0.12,-0.6,0.65
-0.14,-0.61,0.68
-0.14,-0.63,0.7
-0.11,-0.66,0.72
-0.08,-0.7,0.75
-0.04,-0.73,0.77
-0.01,-0.76,0.78
0.01,-0.8,0.8
0.05,-0.83,0.78
0.09,-0.82,0.72
0.13,-0.8,0.67
0.13,-0.79,0.65
0.11,-0.79,0.66
0.08,-0.79,0.69
0.04,-0.78,0.72
0.01,-0.77,0.73
-0.01,-0.76,0.73
-0.01,-0.75,0.71
0,-0.74,0.68
0.01,-0.74,0.66
0.03,-0.74,0.65
0.02,-0.74,0.64
0.02,-0.76,0.64
0.02,-0.77,0.64
0.03,-0.77,0.64
0.04,-0.79,0.64
0.05,-0.79,0.64
0.07,-0.8,0.64
0.08,-0.8,0.62
0.11,-0.81,0.61
0.11,-0.82,0.6
0.1,-0.82,0.59
0.1,-0.82,0.58
0.11,-0.82,0.58
0.09,-0.8,0.59
0.09,-0.8,0.6
0.09,-0.8,0.61
0.09,-0.8,0.62
0.08,-0.8,0.63
0.08,-0.79,0.64
0.09,-0.79,0.64
0.09,-0.79,0.65
0.09,-0.79,0.65
0.09,-0.78,0.65
0.1,-0.78,0.65
0.1,-0.78,0.65
0.09,-0.78,0.64
0.1,-0.78,0.64
0.1,-0.78,0.63
0.1,-0.78,0.63
0.11,-0.78,0.63
0.11,-0.78,0.63
0.12,-0.78,0.64
0.13,-0.78,0.65
0.14,-0.79,0.65
0.14,-0.79,0.65
0.15,-0.8,0.65
0.16,-0.79,0.64
0.17,-0.79,0.63
0.18,-0.79,0.62
0.19,-0.78,0.61
0.19,-0.77,0.6
0.18,-0.77,0.6
0.17,-0.77,0.59
0.17,-0.77,0.59
0.18,-0.77,0.59
0.19,-0.77,0.6
0.21,-0.78,0.6
0.22,-0.78,0.59
0.23,-0.77,0.58
0.24,-0.77,0.58
0.24,-0.77,0.58
0.23,-0.78,0.58
0.22,-0.78,0.58
0.21,-0.78,0.59
0.19,-0.79,0.58
0.18,-0.79,0.57
0.18,-0.78,0.56
0.21,-0.79,0.56
0.23,-0.8,0.57
0.25,-0.81,0.57
0.26,-0.81,0.57
0.27,-0.8,0.57
0.28,-0.8,0.55
0.28,-0.8,0.54
0.28,-0.79,0.54
0.27,-0.81,0.54
0.29,-0.81,0.56
0.31,-0.82,0.56
0.34,-0.82,0.55
0.34,-0.81,0.53
0.35,-0.82,0.52
0.34,-0.82,0.51
0.33,-0.82,0.51
0.34,-0.85,0.52
0.36,-0.89,0.53
0.38,-0.96,0.55
0.39,-1.06,0.59
0.39,-1.14,0.65
0.38,-1.17,0.69
0.36,-1.16,0.69
0.34,-1.11,0.66
0.33,-1.05,0.63
0.39,-0.99,0.6
0.43,-0.86,0.55
0.48,-0.69,0.5
0.59,-0.59,0.49
0.65,-0.59,0.47
0.67,-0.68,0.53
0.66,-0.84,0.63
0.62,-1.02,0.69
0.58,-1.18,0.71
0.6,-1.25,0.45
0.65,-1.19,0.24
0.62,-1.18,0.13
0.59,-1.2,0.08
0.61,-1.2,0.08
0.64,-1.24,0.12
0.67,-1.28,0.15
0.67,-1.29,0.2
0.61,-1.31,0.26
0.59,-1.31,0.29
0.58,-1.3,0.3
0.55,-1.3,0.26
0.48,-1.27,0.19
0.34,-1.23,0.17
0.22,-1.16,0.12
0.06,-1.1,0.08
-0.07,-1.08,0.03
-0.18,-1.03,-0.1
-0.28,-0.99,-0.22
-0.33,-1,-0.28
-0.35,-1.01,-0.27
-0.26,-1.05,-0.31
-0.14,-1.06,-0.31
-0.06,-1.01,-0.28
0.06,-0.94,-0.3
0.22,-0.88,-0.32
0.3,-0.85,-0.3
0.33,-0.7,-0.26
0.39,-0.64,-0.2
0.36,-0.63,-0.1
0.26,-0.63,0.01
0.25,-0.61,0.06
0.31,-0.6,0.05
0.34,-0.6,0.06
0.35,-0.59,0.07
0.36,-0.6,0.06
0.37,-0.62,0.06
0.35,-0.62,0.07
0.34,-0.66,0.07
0.35,-0.68,0.09
0.34,-0.69,0.11
0.33,-0.71,0.12
0.33,-0.75,0.1
0.38,-0.78,0.07
0.42,-0.8,0.04
0.43,-0.81,0.02
0.45,-0.83,0.01
0.44,-0.83,0
0.43,-0.84,0
0.42,-0.84,0
0.37,-0.84,0
0.34,-0.85,-0.01
0.32,-0.86,0.01
0.29,-0.9,0.01
0.28,-0.92,0.02
0.27,-0.94,0.05
0.25,-0.98,0.07
0.23,-1.01,0.07
0.23,-1.02,0.07
0.2,-1.04,0.08
0.15,-1.07,0.07
0.15,-1.07,0.04
0.17,-1.06,0.01
0.17,-1.04,-0.01
0.14,-1.03,0
0.13,-1.02,0.01
0.13,-1,0.03
0.13,-1,0.04
0.11,-1.01,0.04
0.1,-1.02,0.03
0.08,-1.03,0.02
0.07,-1.03,0.01
0.08,-1.02,0
0.1,-1,0
0.12,-0.99,0
0.14,-0.97,0.01
0.14,-0.96,0.01
0.14,-0.97,0.01
0.13,-0.99,0
0.07,-1.01,0.02
0.06,-1.01,0.04
0.06,-1.01,0.05
0.09,-1.01,0.04
0.12,-1,0.02
0.13,-1,0.02
0.11,-1,0.02
0.11,-1,0.04
0.13,-1.01,0.04
0.14,-1,0.04
0.14,-1,0.05
0.13,-0.99,0.07
0.13,-0.98,0.08
0.14,-0.99,0.09
0.16,-0.99,0.08
0.18,-1,0.07
0.19,-1,0.05
0.21,-1,0.04
0.22,-0.99,0.04
0.21,-0.99,0.06
0.19,-0.99,0.07
0.17,-0.99,0.07
0.18,-1,0.07
0.21,-0.99,0.07
0.21,-0.99,0.06
0.21,-0.99,0.05
0.21,-1,0.06
0.2,-0.99,0.06
0.2,-0.99,0.06
0.21,-1,0.06
0.22,-1.01,0.05
0.22,-1.01,0.05
0.2,-1.01,0.05
0.2,-1.01,0.05
0.21,-1.01,0.04
0.22,-1,0.05
0.21,-0.99,0.05
0.22,-0.99,0.04
0.23,-0.99,0.04
0.23,-0.99,0.05
0.23,-0.99,0.05
0.22,-0.99,0.05
0.21,-0.99,0.04
0.21,-1,0.03
0.21,-1,0.03
0.21,-1,0.04
0.21,-1.01,0.04
0.22,-1.01,0.03
0.22,-1,0.03
0.21,-1,0.03
0.22,-1,0.03
0.22,-1,0.03
0.21,-1,0.03
0.21,-1,0.03
0.22,-1,0.03
0.22,-1,0.02
0.21,-1,0.02
0.2,-1,0.03
0.2,-1.01,0.03
0.2,-1.01,0.02
0.21,-1.01,0.03
0.22,-1,0.03
0.22,-1,0.03
0.22,-1,0.04
0.21,-1,0.03
0.2,-1,0.03
0.21,-1,0.04
0.21,-1,0.04
0.21,-1,0.04
0.21,-1,0.03
0.21,-1,0.03
0.21,-1,0.04
0.21,-1,0.03
0.22,-1,0.03
0.22,-1,0.03
0.21,-1,0.03
0.21,-1,0.02
0.22,-1.01,0.02
0.22,-1.01,0.02
0.22,-1,0.03
0.22,-0.99,0.03
0.22,-0.99,0.04
0.21,-0.99,0.04
0.21,-0.99,0.04
0.21,-0.99,0.04
0.21,-0.99,0.05
0.21,-0.99,0.06
0.21,-0.99,0.06
0.2,-0.99,0.04
0.2,-0.99,0.04
0.21,-0.99,0.04
0.21,-0.99,0.04
0.21,-0.99,0.04
0.21,-0.99,0.05
0.21,-0.99,0.05
0.21,-1,0.05
0.21,-1,0.05
0.21,-0.99,0.05
0.21,-0.99,0.06
0.21,-0.99,0.05
0.21,-1,0.05
0.21,-1,0.05
0.21,-1,0.05
0.22,-1,0.05
0.21,-1,0.04
0.22,-0.99,0.05
0.22,-0.99,0.05
0.22,-1,0.05
0.21,-1,0.04
0.21,-1,0.04
0.22,-0.99,0.05
0.23,-1,0.05
0.22,-0.99,0.04
0.22,-0.99,0.05
0.22,-0.99,0.06
0.22,-0.99,0.07
0.22,-0.99,0.08
0.23,-0.99,0.08
0.23,-0.99,0.08
0.23,-0.99,0.08
0.23,-0.99,0.07
0.23,-0.99,0.07
0.24,-0.99,0.07
0.25,-1,0.07
0.26,-1,0.07
0.28,-0.99,0.07
0.27,-1,0.06
0.28,-0.99,0.07
0.29,-0.99,0.07
0.29,-0.99,0.07
0.3,-0.99,0.04
0.28,-1,0.04
0.3,-0.98,0.03
0.34,-0.98,0.03
0.37,-1.01,0.02
0.37,-1.02,0.03
0.34,-1.02,0.05
0.33,-1.02,0.06
0.32,-1.02,0.06
0.27,-1.02,0.09
0.21,-0.98,0.11
0.2,-0.95,0.13
0.18,-0.94,0.16
0.14,-0.94,0.16
0.18,-0.95,0.18
0.18,-0.92,0.24
0.18,-0.9,0.24
0.25,-0.89,0.17
0.26,-0.86,0.15
0.25,-0.85,0.11
0.26,-0.84,0.1
0.23,-0.8,0.13
0.21,-0.77,0.17
0.2,-0.77,0.19
0.18,-0.77,0.17
0.19,-0.75,0.18
0.21,-0.74,0.13
0.23,-0.72,0.11
0.26,-0.68,0.1
0.24,-0.67,0.09
0.17,-0.67,0.1
0.12,-0.66,0.15
0.15,-0.67,0.17
0.2,-0.7,0.16
0.13,-0.7,0.19
0.04,-0.68,0.23
0.03,-0.69,0.22
0.06,-0.73,0.22
0.08,-0.76,0.26
0.07,-0.8,0.29
0.09,-0.8,0.28
0.12,-0.8,0.29
0.12,-0.82,0.33
0.11,-0.82,0.31
0.12,-0.8,0.28
0.11,-0.8,0.26
0.05,-0.82,0.24
0.06,-0.85,0.22
0.11,-0.87,0.24
0.11,-0.89,0.28
0.12,-0.89,0.29
0.12,-0.88,0.31
0.15,-0.87,0.39
0.17,-0.91,0.43
0.21,-0.93,0.45
0.27,-0.95,0.46
0.29,-0.97,0.46
0.28,-0.98,0.47
0.29,-0.98,0.46
0.31,-0.98,0.46
0.32,-0.98,0.47
0.34,-0.96,0.47
0.36,-0.94,0.48
0.38,-0.94,0.49
0.4,-0.94,0.49
0.4,-0.93,0.5
0.41,-0.93,0.5
0.41,-0.93,0.48
0.4,-0.94,0.48
0.4,-0.98,0.49
0.41,-1.04,0.51
0.39,-1.07,0.54
0.37,-1.08,0.56
0.37,-1.11,0.55
0.37,-1.19,0.56
0.38,-1.32,0.63
0.33,-1.43,0.71
0.28,-1.5,0.74
0.27,-1.52,0.66
0.17,-1.38,0.61
0.12,-1.27,0.58
0.09,-1.17,0.57
0.09,-1.07,0.57
0.12,-0.98,0.59
0.17,-0.92,0.62
0.2,-0.89,0.68
0.2,-0.87,0.75
0.19,-0.86,0.79
0.17,-0.83,0.8
0.16,-0.8,0.78
0.13,-0.77,0.74
0.08,-0.76,0.69
0.02,-0.74,0.66
-0.04,-0.72,0.65
-0.05,-0.69,0.67
-0.08,-0.67,0.68
-0.1,-0.66,0.66
-0.11,-0.64,0.63
-0.12,-0.62,0.59
-0.14,-0.61,0.57
-0.18,-0.62,0.56
-0.2,-0.65,0.57
-0.22,-0.68,0.59
-0.2,-0.72,0.63
-0.15,-0.75,0.72
-0.05,-0.81,0.76
0,-0.83,0.78
0.05,-0.84,0.78
0.08,-0.86,0.77
0.1,-0.87,0.75
0.1,-0.87,0.72
0.09,-0.86,0.69
0.06,-0.84,0.67
0.04,-0.82,0.65
0.01,-0.8,0.62
-0.01,-0.79,0.6
-0.02,-0.77,0.59
-0.02,-0.76,0.58
-0.01,-0.75,0.57
-0.02,-0.74,0.57
-0.03,-0.75,0.58
-0.04,-0.75,0.59
-0.05,-0.76,0.6
-0.06,-0.76,0.61
-0.05,-0.77,0.61
-0.04,-0.78,0.61
-0.03,-0.79,0.61
-0.02,-0.8,0.6
-0.02,-0.81,0.61
-0.02,-0.82,0.61
-0.02,-0.82,0.6
-0.02,-0.82,0.59
-0.02,-0.82,0.59
-0.02,-0.82,0.6
-0.02,-0.82,0.61
-0.01,-0.81,0.63
-0.01,-0.8,0.64
-0.01,-0.79,0.64
-0.02,-0.79,0.63
-0.02,-0.78,0.62
-0.01,-0.78,0.61
-0.01,-0.78,0.61
0,-0.78,0.61
0,-0.78,0.61
0,-0.78,0.61
0,-0.77,0.62
0.01,-0.77,0.62
0.02,-0.77,0.63
0.02,-0.77,0.63
0.03,-0.77,0.62
0.05,-0.77,0.61
0.07,-0.77,0.61
0.09,-0.77,0.61
0.11,-0.78,0.61
0.12,-0.8,0.63
0.11,-0.8,0.65
0.11,-0.81,0.65
0.07,-0.81,0.6
0.04,-0.78,0.54
0.05,-0.75,0.5
0.07,-0.76,0.49
0.08,-0.79,0.51
0.07,-0.82,0.57
0.09,-0.89,0.64
0.11,-0.99,0.77
0.13,-1.1,0.91
0.19,-1.13,0.95
0.25,-1.07,0.92
0.25,-1.01,0.83
0.24,-0.97,0.73
0.27,-0.92,0.63
0.36,-0.91,0.53
0.42,-0.91,0.47
0.45,-0.91,0.45
0.48,-0.93,0.43
0.52,-0.99,0.45
0.55,-1.06,0.51
0.54,-1.15,0.57
0.55,-1.22,0.6
0.6,-1.28,0.59
0.63,-1.32,0.53
0.62,-1.36,0.46
0.57,-1.4,0.4
0.51,-1.46,0.26
0.45,-1.47,0.23
0.36,-1.48,0.26
0.25,-1.48,0.27
0.12,-1.47,0.25
-0.06,-1.46,0.23
-0.2,-1.42,0.15
-0.18,-1.38,-0.03
-0.12,-1.34,-0.13
-0.1,-1.27,-0.13
-0.06,-1.21,-0.18
0.05,-1.15,-0.22
0.19,-1.09,-0.23
0.21,-1.04,-0.17
0.13,-0.97,-0.11
0.1,-0.86,-0.08
0.09,-0.8,-0.07
0.14,-0.78,-0.08
0.15,-0.74,-0.1
0.18,-0.69,-0.08
0.29,-0.65,-0.09
0.35,-0.62,-0.07
0.38,-0.59,-0.04
0.39,-0.58,-0.02
0.4,-0.56,0.02
0.37,-0.54,0.07
0.33,-0.51,0.06
0.37,-0.51,0.02
0.39,-0.53,0.02
0.33,-0.54,0.08
0.31,-0.58,0.1
0.36,-0.63,0.08
0.36,-0.65,0.06
0.35,-0.67,0.1
0.35,-0.69,0.14
0.34,-0.71,0.11
0.34,-0.73,0.08
0.34,-0.73,0.08
0.35,-0.76,0.08
0.36,-0.8,0.08
0.37,-0.86,0.1
0.4,-0.92,0.12
0.42,-0.97,0.13
0.38,-1.01,0.13
0.33,-1.03,0.1
0.3,-1.02,0.08
0.28,-1,0.08
0.28,-0.97,0.08
0.28,-0.95,0.07
0.28,-0.93,0.08
0.27,-0.92,0.09
0.25,-0.92,0.09
0.23,-0.93,0.07
0.18,-0.93,0.05
0.19,-0.94,0.04
0.18,-0.94,0.04
0.17,-0.96,0.04
0.19,-0.96,0.03
0.19,-0.97,0.04
0.16,-1,0.04
0.16,-1.02,0.01
0.17,-1.03,0.01
0.16,-1.05,0.01
0.14,-1.07,0
0.12,-1.08,0
0.12,-1.07,0
0.11,-1.06,0.01
0.11,-1.05,0.02
0.11,-1.03,0.02
0.11,-1.03,0.01
0.11,-1.02,0
0.11,-1,0
0.12,-1,0
0.13,-1,0
0.14,-1,0
0.15,-0.99,0
0.16,-0.98,0
0.17,-0.97,0
0.16,-0.96,0.02
0.15,-0.96,0.04
0.14,-0.98,0.04
0.13,-0.99,0.04
0.13,-0.99,0.03
0.15,-0.98,0.02
0.17,-0.98,0.02
0.18,-0.98,0.04
0.18,-0.98,0.04
0.19,-0.99,0.05
0.2,-0.99,0.05
0.2,-0.99,0.06
0.2,-0.99,0.06
0.19,-0.99,0.06
0.2,-1,0.06
0.2,-1.01,0.06
0.21,-1.01,0.06
0.21,-1.01,0.06
0.22,-1.01,0.07
0.23,-1,0.06
0.24,-0.99,0.07
0.25,-0.99,0.07
0.25,-0.99,0.08
0.25,-0.98,0.08
0.25,-0.98,0.08
0.25,-0.98,0.08
0.25,-0.98,0.09
0.22,-1,0.09
0.22,-1,0.08
0.22,-1.01,0.08
0.21,-1.01,0.08
0.21,-1.02,0.08
0.22,-1.02,0.08
0.22,-1.02,0.08
0.23,-1.02,0.08
0.24,-1.02,0.07
0.24,-1.02,0.06
0.25,-1.02,0.06
0.25,-1.02,0.06
0.25,-1.02,0.06
0.25,-1.01,0.05
0.24,-1,0.06
0.24,-0.98,0.05
0.24,-0.98,0.05
0.23,-0.97,0.05
0.22,-0.96,0.06
0.22,-0.97,0.06
0.22,-0.97,0.06
0.21,-0.98,0.06
0.21,-0.99,0.06
0.21,-0.99,0.06
0.21,-0.99,0.05
0.22,-0.99,0.05
0.2,-0.99,0.05
0.21,-0.99,0.05
0.22,-1,0.04
0.22,-1,0.04
0.21,-0.99,0.04
0.21,-1,0.04
0.21,-1.01,0.04
0.22,-1.01,0.03
0.21,-1.01,0.03
0.21,-1.01,0.04
0.2,-1.01,0.04
0.21,-1.01,0.03
0.21,-1,0.03
0.2,-0.99,0.04
0.19,-0.98,0.04
0.19,-0.98,0.04
0.19,-0.98,0.04
0.19,-0.98,0.04
0.19,-0.98,0.04
0.19,-0.99,0.05
0.18,-0.99,0.05
0.18,-1,0.05
0.18,-1,0.05
0.18,-0.99,0.04
0.19,-1,0.04
0.19,-1,0.05
0.2,-1,0.06
0.2,-1,0.05
0.2,-1,0.04
0.21,-1,0.04
0.21,-1,0.05
0.22,-1,0.06
0.22,-1,0.06
0.23,-0.99,0.05
0.23,-0.99,0.06
0.23,-0.99,0.07
0.22,-0.99,0.06
0.22,-1,0.07
0.22,-1,0.07
0.23,-1.01,0.08
0.22,-1.02,0.09
0.22,-1.01,0.08
0.23,-1,0.07
0.25,-1,0.07
0.25,-1,0.09
0.23,-1,0.08
0.22,-1,0.09
0.22,-1,0.1
0.24,-0.99,0.09
0.23,-0.99,0.1
0.21,-0.99,0.14
0.21,-0.99,0.14
0.2,-0.98,0.13
0.2,-0.98,0.11
0.22,-0.98,0.1
0.24,-0.99,0.09
0.26,-1.01,0.1
0.26,-1.01,0.1
0.27,-1.02,0.1
0.27,-1.03,0.08
0.26,-1.01,0.09
0.25,-0.98,0.09
0.24,-0.97,0.11
0.23,-0.97,0.14
0.23,-0.97,0.15
0.26,-0.97,0.14
0.27,-0.96,0.14
0.25,-0.94,0.15
0.24,-0.91,0.15
0.23,-0.89,0.14
0.22,-0.87,0.12
0.23,-0.85,0.1
0.24,-0.85,0.11
0.24,-0.85,0.11
0.25,-0.84,0.13
0.25,-0.84,0.16
0.21,-0.81,0.18
0.16,-0.78,0.18
0.14,-0.74,0.17
0.12,-0.72,0.15
0.15,-0.7,0.11
0.21,-0.7,0.07
0.26,-0.67,0.02
0.28,-0.66,0.03
0.28,-0.68,0.07
0.26,-0.71,0.13
0.19,-0.72,0.17
0.13,-0.74,0.17
0.12,-0.77,0.16
0.11,-0.78,0.17
0.07,-0.76,0.16
0.05,-0.75,0.13
0.11,-0.76,0.1
0.17,-0.76,0.1
0.18,-0.74,0.1
0.13,-0.8,0.14
0.13,-0.87,0.25
0.18,-0.87,0.33
0.17,-0.88,0.37
0.17,-0.88,0.38
0.18,-0.84,0.36
0.15,-0.83,0.3
0.16,-0.83,0.28
0.17,-0.83,0.27
0.2,-0.89,0.31
0.22,-0.93,0.32
0.24,-0.93,0.35
0.25,-0.92,0.4
0.28,-0.91,0.41
0.32,-0.9,0.42
0.34,-0.9,0.43
0.36,-0.91,0.43
0.36,-0.93,0.44
0.37,-0.95,0.49
0.37,-0.97,0.55
0.36,-0.99,0.6
0.35,-1.03,0.64
0.33,-1.07,0.66
0.33,-1.13,0.68
0.34,-1.18,0.69
0.31,-1.21,0.69
0.28,-1.2,0.68
0.28,-1.2,0.62
0.26,-1.22,0.55
0.24,-1.24,0.51
0.24,-1.27,0.5
0.23,-1.3,0.52
0.21,-1.31,0.55
0.19,-1.29,0.56
0.18,-1.26,0.56
0.17,-1.18,0.59
0.18,-1.14,0.64
0.18,-1.12,0.7
0.18,-1.1,0.74
0.17,-1.08,0.76
0.18,-1.04,0.75
0.2,-0.98,0.72
0.21,-0.94,0.69
0.19,-0.87,0.66
0.17,-0.81,0.64
0.15,-0.75,0.63
0.15,-0.7,0.59
0.15,-0.64,0.57
0.12,-0.59,0.6
0.07,-0.58,0.65
0.02,-0.58,0.69
-0.03,-0.56,0.71
-0.03,-0.54,0.72
-0.02,-0.54,0.72
0,-0.53,0.72
0.03,-0.53,0.71
0.04,-0.54,0.72
0.02,-0.56,0.76
-0.02,-0.61,0.82
-0.04,-0.65,0.89
-0.04,-0.67,0.94
-0.02,-0.69,0.93
0.07,-0.69,0.9
0.09,-0.7,0.89
0.1,-0.71,0.88
0.1,-0.72,0.89
0.08,-0.74,0.92
0.06,-0.76,0.93
0.07,-0.77,0.92
0.11,-0.77,0.88
0.13,-0.77,0.83
0.13,-0.78,0.8
