Acc_x,Acc_y,Acc_z
0.05,0.28,0.96
0.05,0.28,0.96
0.06,0.28,0.95
0.06,0.28,0.95
0.06,0.28,0.95
0.06,0.28,0.96
0.06,0.28,0.95
0.06,0.28,0.95
0.06,0.28,0.95
0.06,0.28,0.96
0.05,0.28,0.96
0.05,0.28,0.96
0.05,0.28,0.96
0.05,0.28,0.96
0.06,0.28,0.96
0.06,0.28,0.97
0.07,0.28,0.97
0.07,0.28,0.96
0.06,0.28,0.96
0.06,0.28,0.96
0.06,0.28,0.96
0.06,0.28,0.95
0.05,0.28,0.95
0.05,0.28,0.95
0.06,0.28,0.96
0.06,0.28,0.96
0.06,0.28,0.96
0.06,0.28,0.96
0.06,0.28,0.96
0.06,0.28,0.95
0.06,0.28,0.95
0.06,0.28,0.95
0.06,0.28,0.95
0.06,0.29,0.95
0.07,0.29,0.95
0.07,0.28,0.96
0.06,0.28,0.96
0.06,0.28,0.96
0.06,0.28,0.96
0.06,0.28,0.96
0.06,0.28,0.95
0.06,0.29,0.95
0.06,0.28,0.95
0.06,0.28,0.96
0.06,0.28,0.96
0.06,0.29,0.96
0.06,0.28,0.96
0.06,0.28,0.96
0.06,0.28,0.96
0.07,0.28,0.95
0.06,0.28,0.96
0.06,0.28,0.96
0.06,0.28,0.96
0.06,0.28,0.96
0.06,0.28,0.96
0.06,0.28,0.96
0.06,0.28,0.96
0.07,0.28,0.96
0.07,0.28,0.96
0.06,0.28,0.96
0.06,0.28,0.96
0.06,0.28,0.96
0.06,0.28,0.96
0.06,0.29,0.96
0.06,0.29,0.96
0.06,0.28,0.96
0.07,0.28,0.96
0.06,0.28,0.96
0.06,0.28,0.96
0.06,0.28,0.96
0.06,0.28,0.95
0.06,0.28,0.96
0.06,0.28,0.96
0.06,0.28,0.96
0.06,0.28,0.96
0.07,0.28,0.96
0.07,0.28,0.96
0.07,0.28,0.96
0.07,0.27,0.96
0.06,0.27,0.96
0.06,0.27,0.96
0.08,0.28,0.95
0.06,0.27,0.96
0.06,0.27,0.96
0.06,0.27,0.96
0.06,0.27,0.96
0.05,0.28,0.96
0.06,0.27,0.95
0.06,0.28,0.95
0.06,0.28,0.96
0.06,0.27,0.96
0.06,0.27,0.96
0.07,0.27,0.96
0.07,0.27,0.96
0.07,0.27,0.96
0.07,0.27,0.96
0.07,0.27,0.96
0.07,0.27,0.96
0.07,0.27,0.96
0.07,0.27,0.96
0.07,0.27,0.96
0.07,0.27,0.96
0.07,0.27,0.96
0.08,0.27,0.97
0.08,0.27,0.97
0.08,0.27,0.97
0.08,0.27,0.96
0.08,0.27,0.96
0.08,0.27,0.96
0.08,0.27,0.96
0.08,0.27,0.96
0.08,0.27,0.96
0.08,0.27,0.96
0.08,0.27,0.97
0.09,0.27,0.97
0.1,0.27,0.98
0.1,0.27,0.98
0.11,0.27,0.98
0.12,0.27,0.99
0.13,0.26,0.99
0.13,0.26,0.99
0.14,0.26,0.99
0.14,0.27,0.99
0.15,0.27,0.99
0.16,0.27,0.99
0.16,0.27,0.99
0.16,0.27,0.99
0.16,0.27,0.98
0.15,0.27,0.97
0.15,0.28,0.96
0.15,0.28,0.94
0.14,0.28,0.93
0.14,0.28,0.92
0.12,0.29,0.91
0.11,0.3,0.91
0.1,0.31,0.9
0.08,0.31,0.9
0.08,0.32,0.9
0.09,0.32,0.9
0.11,0.32,0.91
0.12,0.33,0.9
0.11,0.33,0.9
0.11,0.32,0.9
0.1,0.31,0.91
0.08,0.31,0.9
0.09,0.3,0.9
0.1,0.3,0.91
0.13,0.3,0.92
0.15,0.29,0.93
0.14,0.28,0.93
0.13,0.28,0.92
0.15,0.28,0.92
0.17,0.29,0.94
0.19,0.28,0.97
0.21,0.28,0.99
0.23,0.28,1
0.23,0.27,1
0.23,0.27,1
0.24,0.27,0.99
0.31,0.27,0.97
0.36,0.26,0.98
0.4,0.24,1
0.42,0.23,1.02
0.44,0.21,1.05
0.45,0.19,1.06
0.45,0.17,1.06
0.45,0.16,1.06
0.44,0.15,1.05
0.42,0.14,1.04
0.41,0.13,1.01
0.42,0.12,0.98
0.44,0.11,0.96
0.44,0.09,0.95
0.45,0.07,0.96
0.46,0.04,0.99
0.49,0.02,1.01
0.5,0.01,1.01
0.51,0,0.99
0.52,-0.01,0.96
0.53,-0.02,0.93
0.53,-0.03,0.91
0.53,-0.05,0.89
0.55,-0.07,0.88
0.57,-0.11,0.88
0.6,-0.15,0.89
0.63,-0.21,0.91
0.65,-0.2,0.87
0.62,-0.19,0.82
0.62,-0.18,0.77
0.65,-0.18,0.74
0.66,-0.18,0.72
0.64,-0.17,0.68
0.64,-0.17,0.66
0.65,-0.17,0.66
0.66,-0.18,0.67
0.67,-0.2,0.67
0.67,-0.21,0.67
0.69,-0.22,0.68
0.72,-0.23,0.68
0.72,-0.23,0.68
0.71,-0.23,0.66
0.7,-0.23,0.63
0.7,-0.23,0.6
0.7,-0.25,0.59
0.71,-0.27,0.59
0.71,-0.28,0.6
0.71,-0.29,0.61
0.71,-0.3,0.62
0.71,-0.31,0.63
0.71,-0.31,0.62
0.7,-0.31,0.61
0.69,-0.29,0.58
0.69,-0.29,0.56
0.69,-0.29,0.55
0.72,-0.31,0.54
0.73,-0.31,0.55
0.74,-0.3,0.55
0.75,-0.29,0.55
0.75,-0.28,0.56
0.76,-0.26,0.56
0.76,-0.24,0.57
0.77,-0.22,0.57
0.76,-0.21,0.57
0.76,-0.19,0.57
0.77,-0.18,0.57
0.78,-0.17,0.55
0.78,-0.16,0.54
0.79,-0.14,0.54
0.8,-0.14,0.54
0.79,-0.13,0.55
0.79,-0.12,0.57
0.79,-0.11,0.59
0.79,-0.11,0.61
0.79,-0.11,0.63
0.78,-0.11,0.63
0.78,-0.1,0.62
0.79,-0.09,0.6
0.82,-0.09,0.58
0.86,-0.1,0.6
0.88,-0.12,0.59
0.88,-0.13,0.6
0.88,-0.15,0.63
0.86,-0.17,0.61
0.85,-0.17,0.59
0.85,-0.17,0.56
0.84,-0.16,0.53
0.84,-0.16,0.52
0.84,-0.17,0.51
0.83,-0.17,0.5
0.83,-0.17,0.5
0.84,-0.17,0.51
0.84,-0.18,0.53
0.82,-0.19,0.54
0.8,-0.19,0.54
0.78,-0.2,0.54
0.77,-0.19,0.53
0.79,-0.19,0.51
0.81,-0.19,0.48
0.85,-0.21,0.47
0.92,-0.23,0.47
0.97,-0.24,0.47
0.99,-0.27,0.46
1,-0.31,0.44
1,-0.32,0.48
0.99,-0.36,0.52
1.01,-0.38,0.54
1.03,-0.41,0.53
1.07,-0.45,0.51
1.11,-0.48,0.49
1.12,-0.53,0.46
1.1,-0.57,0.44
1.07,-0.61,0.42
1.02,-0.64,0.41
0.97,-0.66,0.39
0.92,-0.66,0.37
0.9,-0.66,0.34
0.91,-0.65,0.31
0.92,-0.65,0.28
0.94,-0.63,0.25
0.94,-0.62,0.23
0.94,-0.62,0.22
0.93,-0.61,0.22
0.92,-0.6,0.23
0.9,-0.59,0.23
0.89,-0.57,0.22
0.89,-0.56,0.21
0.88,-0.55,0.2
0.88,-0.55,0.18
0.89,-0.53,0.16
0.88,-0.52,0.12
0.87,-0.5,0.11
0.86,-0.48,0.11
0.85,-0.47,0.12
0.86,-0.46,0.12
0.88,-0.45,0.13
0.89,-0.45,0.13
0.89,-0.45,0.15
0.89,-0.45,0.15
0.89,-0.46,0.16
0.9,-0.47,0.15
0.93,-0.48,0.13
0.94,-0.5,0.13
0.95,-0.52,0.13
0.95,-0.53,0.15
0.94,-0.54,0.16
0.93,-0.57,0.17
0.92,-0.58,0.19
0.91,-0.59,0.19
0.91,-0.6,0.19
0.92,-0.61,0.19
0.9,-0.62,0.19
0.88,-0.62,0.2
0.87,-0.62,0.19
0.86,-0.62,0.2
0.85,-0.61,0.21
0.83,-0.6,0.22
0.79,-0.59,0.23
0.78,-0.58,0.24
0.79,-0.58,0.24
0.81,-0.57,0.23
0.82,-0.57,0.24
0.82,-0.57,0.24
0.8,-0.57,0.25
0.78,-0.57,0.27
0.77,-0.57,0.28
0.77,-0.57,0.28
0.76,-0.57,0.27
0.76,-0.56,0.27
0.76,-0.54,0.27
0.74,-0.53,0.26
0.75,-0.52,0.25
0.78,-0.51,0.24
0.79,-0.51,0.22
0.77,-0.51,0.21
0.74,-0.51,0.22
0.72,-0.52,0.23
0.7,-0.53,0.23
0.7,-0.53,0.23
0.69,-0.54,0.22
0.69,-0.56,0.21
0.71,-0.57,0.2
0.69,-0.57,0.18
0.66,-0.59,0.18
0.64,-0.61,0.19
0.61,-0.63,0.2
0.59,-0.66,0.22
0.57,-0.7,0.23
0.56,-0.74,0.23
0.57,-0.78,0.22
0.56,-0.81,0.23
0.53,-0.83,0.24
0.5,-0.85,0.24
0.49,-0.87,0.19
0.47,-0.89,0.14
0.45,-0.89,0.1
0.48,-0.89,0.05
0.43,-0.92,0.03
0.35,-0.98,0.04
0.37,-0.98,0.02
0.45,-0.95,0.01
0.44,-0.97,0.01
0.37,-1.01,0.03
0.32,-1.04,0.05
0.31,-1.07,0.06
0.29,-1.1,0.06
0.26,-1.11,0.07
0.22,-1.11,0.11
0.21,-1.07,0.14
0.23,-1.11,0.15
0.19,-1.19,0.13
0.19,-1.24,0.16
0.18,-1.27,0.18
0.18,-1.25,0.19
0.17,-1.24,0.2
0.16,-1.25,0.21
0.16,-1.25,0.21
0.16,-1.29,0.21
0.16,-1.33,0.23
0.15,-1.37,0.23
0.11,-1.41,0.22
0.09,-1.42,0.2
0.1,-1.41,0.17
0.11,-1.39,0.15
0.11,-1.36,0.15
0.12,-1.35,0.16
0.14,-1.32,0.14
0.18,-1.3,0.12
0.2,-1.3,0.1
0.22,-1.28,0.09
0.25,-1.24,0.08
0.27,-1.2,0.06
0.29,-1.16,0.04
0.31,-1.1,0.03
0.33,-1.05,0.02
0.35,-0.96,0.02
0.42,-0.92,0.02
0.4,-0.89,0.01
0.38,-0.85,-0.01
0.37,-0.82,-0.04
0.37,-0.79,-0.06
0.39,-0.75,-0.08
0.39,-0.73,-0.08
0.38,-0.73,-0.09
0.4,-0.76,-0.09
0.4,-0.8,-0.08
0.41,-0.85,-0.08
0.42,-0.89,-0.08
0.42,-0.91,-0.07
0.41,-0.92,-0.07
0.41,-0.94,-0.07
0.44,-0.95,-0.08
0.45,-0.98,-0.09
0.45,-1.01,-0.09
0.47,-1.05,-0.09
0.5,-1.08,-0.08
0.54,-1.12,-0.05
0.57,-1.15,-0.02
0.59,-1.16,0.02
0.63,-1.15,0.06
0.65,-1.15,0.07
0.67,-1.16,0.07
0.73,-1.2,0.08
0.73,-1.26,0.1
0.72,-1.31,0.11
0.71,-1.33,0.13
0.75,-1.34,0.17
0.82,-1.36,0.2
0.86,-1.39,0.25
0.88,-1.45,0.32
0.89,-1.52,0.35
0.88,-1.59,0.36
0.88,-1.64,0.36
0.9,-1.69,0.37
0.91,-1.73,0.39
0.89,-1.75,0.43
0.89,-1.75,0.44
0.91,-1.74,0.45
0.93,-1.73,0.46
0.92,-1.7,0.45
0.88,-1.66,0.43
0.84,-1.6,0.39
0.78,-1.53,0.36
0.72,-1.46,0.33
0.69,-1.38,0.31
0.67,-1.32,0.28
0.64,-1.27,0.25
0.59,-1.21,0.23
0.47,-1.08,0.18
0.4,-1.02,0.13
0.35,-0.94,0.11
0.32,-0.87,0.1
0.31,-0.79,0.09
0.31,-0.73,0.07
0.33,-0.71,0.03
0.34,-0.68,-0.01
0.33,-0.64,-0.04
0.32,-0.6,-0.07
0.3,-0.56,-0.09
0.28,-0.53,-0.11
0.26,-0.52,-0.11
0.25,-0.51,-0.09
0.23,-0.5,-0.1
0.21,-0.5,-0.12
0.18,-0.5,-0.12
0.16,-0.5,-0.12
0.15,-0.5,-0.13
0.15,-0.5,-0.13
0.16,-0.52,-0.12
0.18,-0.54,-0.13
0.18,-0.54,-0.14
0.18,-0.53,-0.14
0.18,-0.52,-0.14
0.18,-0.51,-0.12
0.19,-0.49,-0.11
0.21,-0.49,-0.1
0.24,-0.51,-0.1
0.25,-0.53,-0.1
0.25,-0.56,-0.11
0.26,-0.59,-0.11
0.27,-0.62,-0.11
0.27,-0.66,-0.11
0.28,-0.7,-0.1
0.29,-0.73,-0.09
0.29,-0.76,-0.09
0.31,-0.8,-0.08
0.34,-0.86,-0.08
0.36,-0.92,-0.08
0.39,-0.99,-0.06
0.41,-1.06,-0.05
0.42,-1.13,-0.07
0.43,-1.21,-0.05
0.44,-1.27,-0.04
0.42,-1.35,-0.04
0.39,-1.45,-0.02
0.39,-1.54,-0.01
0.38,-1.64,0.01
0.39,-1.74,0.01
0.41,-1.85,0.02
0.42,-1.96,0.02
0.4,-2.13,0.01
0.38,-2.16,0.02
0.4,-2.16,0.02
0.42,-2.14,-0.01
0.45,-2.09,0
0.51,-2.02,0
0.49,-1.94,0.01
0.49,-1.86,0
0.57,-1.78,-0.04
0.65,-1.7,-0.05
0.65,-1.63,-0.04
0.57,-1.56,-0.03
0.56,-1.49,-0.04
0.59,-1.42,-0.04
0.59,-1.36,-0.02
0.56,-1.31,-0.01
0.55,-1.27,0
0.56,-1.23,0.01
0.58,-1.2,0.03
0.59,-1.19,0.03
0.59,-1.2,0.02
0.61,-1.2,0.02
0.62,-1.21,0
0.63,-1.19,-0.01
0.62,-1.17,-0.03
0.63,-1.12,-0.04
0.66,-0.99,-0.04
0.68,-0.92,-0.03
0.69,-0.86,-0.03
0.72,-0.81,-0.03
0.74,-0.78,-0.03
0.75,-0.76,-0.03
0.75,-0.75,-0.04
0.74,-0.75,-0.04
0.72,-0.76,-0.04
0.71,-0.77,-0.03
0.7,-0.81,-0.02
0.69,-0.85,-0.02
0.68,-0.88,-0.02
0.68,-0.92,-0.01
0.67,-0.97,0.01
0.67,-1.02,0.01
0.66,-1.07,0.02
0.66,-1.13,0.02
0.68,-1.19,0.02
0.71,-1.25,0.03
0.76,-1.31,0.03
0.8,-1.36,0.04
0.81,-1.42,0.06
0.79,-1.47,0.08
0.79,-1.52,0.11
0.8,-1.55,0.13
0.82,-1.63,0.15
0.82,-1.68,0.16
0.82,-1.74,0.16
0.82,-1.82,0.15
0.81,-1.89,0.16
0.81,-1.93,0.17
0.81,-1.96,0.17
0.83,-1.96,0.17
0.81,-1.93,0.16
0.76,-1.93,0.12
0.75,-1.95,0.09
0.74,-1.91,0.07
0.7,-1.87,0.05
0.67,-1.84,0.03
0.65,-1.8,0.01
0.61,-1.74,-0.01
0.58,-1.67,-0.05
0.53,-1.61,-0.07
0.49,-1.54,-0.07
0.44,-1.48,-0.06
0.41,-1.42,-0.06
0.38,-1.35,-0.07
0.35,-1.28,-0.08
0.32,-1.22,-0.08
0.3,-1.15,-0.08
0.28,-1.07,-0.08
0.27,-0.9,-0.07
0.24,-0.83,-0.07
0.23,-0.76,-0.08
0.23,-0.68,-0.09
0.21,-0.62,-0.09
0.18,-0.57,-0.1
0.16,-0.52,-0.11
0.14,-0.46,-0.1
0.1,-0.42,-0.1
0.07,-0.39,-0.1
0.05,-0.36,-0.1
0.03,-0.35,-0.1
0,-0.33,-0.1
-0.01,-0.32,-0.1
-0.02,-0.33,-0.11
-0.02,-0.35,-0.12
-0.02,-0.38,-0.13
-0.02,-0.39,-0.13
-0.01,-0.4,-0.13
0,-0.42,-0.13
0.02,-0.44,-0.13
0.03,-0.46,-0.12
0.05,-0.47,-0.12
0.07,-0.49,-0.12
0.09,-0.51,-0.12
0.11,-0.55,-0.12
0.13,-0.63,-0.13
0.16,-0.68,-0.13
0.17,-0.73,-0.13
0.18,-0.78,-0.12
0.2,-0.84,-0.12
0.21,-0.91,-0.11
0.23,-0.99,-0.11
0.24,-1.08,-0.1
0.25,-1.18,-0.08
0.26,-1.3,-0.07
0.28,-1.43,-0.06
0.29,-1.56,-0.05
0.33,-1.68,-0.03
0.33,-1.83,0
0.34,-1.98,0.02
0.39,-2.09,0.06
0.41,-2.21,0.11
0.43,-2.31,0.14
0.45,-2.37,0.17
0.42,-2.41,0.21
0.4,-2.41,0.22
0.41,-2.4,0.23
0.37,-2.35,0.25
0.32,-2.26,0.26
0.39,-2.11,0.25
0.55,-1.94,0.27
0.69,-1.69,0.32
0.75,-1.67,0.28
0.88,-1.65,0.25
0.88,-1.64,0.22
0.72,-1.63,0.21
0.71,-1.54,0.21
0.7,-1.44,0.23
0.6,-1.38,0.31
0.56,-1.33,0.32
0.55,-1.27,0.29
0.57,-1.22,0.29
0.61,-1.18,0.28
0.66,-1.14,0.24
0.68,-1.1,0.24
0.69,-1.04,0.24
0.73,-0.98,0.23
0.76,-0.93,0.2
0.78,-0.9,0.18
0.8,-0.88,0.16
0.83,-0.86,0.15
0.87,-0.86,0.14
0.9,-0.86,0.13
0.93,-0.88,0.11
0.95,-0.9,0.09
0.98,-0.94,0.06
0.97,-0.99,0.05
0.94,-1.02,0.07
0.89,-1.1,0.07
0.85,-1.12,0.07
0.82,-1.14,0.08
0.8,-1.17,0.08
0.78,-1.2,0.09
0.76,-1.22,0.09
0.76,-1.24,0.11
0.76,-1.28,0.12
0.75,-1.33,0.12
0.74,-1.4,0.11
0.73,-1.48,0.09
0.69,-1.54,0.09
0.68,-1.6,0.09
0.68,-1.67,0.1
0.66,-1.75,0.12
0.64,-1.85,0.13
0.63,-1.94,0.13
0.63,-1.99,0.12
0.61,-1.98,0.11
0.58,-1.97,0.11
0.55,-1.95,0.13
0.56,-1.93,0.14
0.56,-1.88,0.11
0.52,-1.76,0.1
0.47,-1.62,0.12
0.47,-1.51,0.14
0.51,-1.46,0.13
0.5,-1.49,0.08
0.48,-1.5,0.04
0.44,-1.47,0.01
0.39,-1.45,0
0.32,-1.4,0
0.28,-1.35,0.01
0.27,-1.29,0
0.26,-1.25,-0.02
0.24,-1.22,-0.04
0.21,-1.18,-0.06
0.19,-1.13,-0.07
0.19,-1.06,-0.08
0.19,-0.99,-0.09
0.18,-0.91,-0.1
0.18,-0.84,-0.11
0.18,-0.78,-0.12
0.17,-0.73,-0.13
0.16,-0.69,-0.14
0.15,-0.64,-0.14
0.13,-0.6,-0.15
0.12,-0.57,-0.15
0.11,-0.53,-0.14
0.09,-0.49,-0.13
0.08,-0.46,-0.12
0.08,-0.41,-0.11
0.06,-0.4,-0.1
0.05,-0.39,-0.1
0.04,-0.39,-0.1
0.05,-0.4,-0.1
0.05,-0.42,-0.1
0.04,-0.44,-0.09
0.04,-0.46,-0.08
0.05,-0.48,-0.07
0.06,-0.52,-0.07
0.07,-0.56,-0.07
0.1,-0.61,-0.07
0.13,-0.66,-0.07
0.15,-0.72,-0.08
0.17,-0.79,-0.06
0.19,-0.87,-0.04
0.21,-0.94,-0.02
0.23,-1.01,-0.01
0.23,-1.08,-0.01
0.22,-1.17,-0.01
0.21,-1.24,-0.01
0.22,-1.32,-0.02
0.23,-1.39,0
0.23,-1.47,0.03
0.28,-1.55,0.06
0.35,-1.64,0.08
0.39,-1.74,0.13
0.45,-1.86,0.14
0.45,-1.88,0.14
0.47,-1.9,0.15
0.47,-1.89,0.16
0.49,-1.88,0.14
0.53,-1.88,0.11
0.53,-1.89,0.15
0.57,-1.97,0.17
0.65,-2.05,0.15
0.68,-2.05,0.16
0.68,-2.04,0.15
0.7,-1.99,0.16
0.74,-1.9,0.17
0.67,-1.79,0.19
0.61,-1.64,0.24
0.65,-1.48,0.3
0.7,-1.33,0.34
0.68,-1.21,0.36
0.66,-1.12,0.35
0.67,-1.08,0.33
0.67,-1.04,0.32
0.66,-1.02,0.3
0.68,-0.98,0.3
0.69,-0.92,0.31
0.71,-0.88,0.33
0.72,-0.87,0.34
0.71,-0.89,0.32
0.74,-0.9,0.31
0.79,-0.9,0.3
0.84,-0.9,0.28
0.88,-0.91,0.28
0.91,-0.92,0.26
0.92,-0.94,0.23
0.92,-0.97,0.22
0.92,-0.99,0.21
0.92,-1.02,0.21
0.9,-1.06,0.21
0.88,-1.11,0.21
0.86,-1.16,0.2
0.84,-1.21,0.19
0.82,-1.27,0.17
0.8,-1.34,0.16
0.78,-1.41,0.15
0.77,-1.48,0.12
0.74,-1.54,0.11
0.72,-1.59,0.1
0.71,-1.61,0.09
0.7,-1.63,0.08
0.68,-1.65,0.07
0.66,-1.66,0.04
0.64,-1.67,0
0.63,-1.7,-0.01
0.62,-1.82,-0.02
0.57,-1.88,-0.02
0.56,-1.89,-0.03
0.55,-1.84,-0.04
0.53,-1.82,-0.02
0.49,-1.8,-0.02
0.46,-1.79,-0.03
0.42,-1.76,-0.02
0.39,-1.71,0
0.36,-1.65,-0.03
0.34,-1.58,-0.04
0.31,-1.51,-0.04
0.27,-1.44,-0.04
0.24,-1.36,-0.05
0.22,-1.27,-0.07
0.21,-1.19,-0.08
0.2,-1.12,-0.08
0.13,-1.05,-0.05
0.06,-0.98,-0.06
0,-0.89,-0.13
-0.08,-0.79,-0.16
-0.11,-0.71,-0.13
-0.11,-0.63,-0.1
-0.08,-0.57,-0.08
-0.05,-0.53,-0.07
-0.04,-0.5,-0.1
-0.06,-0.47,-0.15
-0.12,-0.48,-0.17
-0.15,-0.51,-0.17
-0.16,-0.56,-0.18
-0.15,-0.61,-0.17
-0.14,-0.65,-0.17
-0.12,-0.68,-0.18
-0.09,-0.69,-0.18
-0.06,-0.7,-0.18
-0.03,-0.7,-0.18
0,-0.68,-0.18
0.03,-0.68,-0.18
0.06,-0.7,-0.18
0.08,-0.72,-0.17
0.1,-0.73,-0.16
0.11,-0.74,-0.15
0.13,-0.76,-0.13
0.15,-0.78,-0.13
0.17,-0.81,-0.12
0.19,-0.84,-0.11
0.21,-0.88,-0.1
0.22,-0.95,-0.08
0.24,-1.03,-0.06
0.26,-1.12,-0.04
0.28,-1.23,-0.02
0.29,-1.35,0.01
0.3,-1.58,0.04
0.3,-1.66,0.05
0.29,-1.72,0.07
0.29,-1.79,0.08
0.31,-1.85,0.1
0.34,-1.92,0.12
0.4,-1.98,0.13
0.45,-2.02,0.14
0.47,-2,0.16
0.56,-1.9,0.19
0.55,-1.82,0.2
0.6,-1.72,0.19
0.66,-1.6,0.18
0.65,-1.5,0.17
0.7,-1.42,0.16
0.68,-1.42,0.15
0.62,-1.45,0.16
0.59,-1.49,0.15
0.6,-1.54,0.14
0.62,-1.58,0.16
0.62,-1.61,0.19
0.64,-1.59,0.19
0.67,-1.54,0.18
0.68,-1.47,0.17
0.7,-1.39,0.16
0.71,-1.29,0.16
0.72,-1.19,0.21
0.74,-1.03,0.24
0.76,-0.98,0.25
0.8,-0.92,0.24
0.83,-0.89,0.23
0.84,-0.87,0.19
0.86,-0.86,0.18
0.89,-0.85,0.19
0.93,-0.82,0.18
0.98,-0.79,0.18
1,-0.8,0.17
1,-0.83,0.16
0.99,-0.86,0.15
0.99,-0.9,0.13
0.98,-0.94,0.12
0.97,-0.98,0.11
0.95,-1.03,0.11
0.93,-1.07,0.12
0.91,-1.12,0.12
0.89,-1.17,0.12
0.87,-1.21,0.11
0.85,-1.25,0.08
0.84,-1.31,0.05
0.85,-1.37,0.03
0.85,-1.45,0
0.86,-1.55,-0.03
0.86,-1.67,-0.11
0.85,-1.83,-0.14
0.82,-1.83,-0.15
0.74,-1.84,-0.15
0.66,-1.82,-0.14
0.62,-1.76,-0.13
0.6,-1.74,-0.12
0.57,-1.76,-0.11
0.53,-1.81,-0.13
0.51,-1.83,-0.19
0.49,-1.84,-0.17
0.45,-1.85,-0.11
0.42,-1.82,-0.1
0.39,-1.71,-0.11
0.36,-1.58,-0.11
0.34,-1.5,-0.11
0.3,-1.46,-0.1
0.27,-1.42,-0.1
0.26,-1.36,-0.11
0.24,-1.32,-0.11
0.21,-1.29,-0.1
0.19,-1.25,-0.1
0.18,-1.2,-0.11
0.17,-1.14,-0.11
0.15,-1.07,-0.12
0.15,-0.99,-0.13
0.13,-0.92,-0.14
0.1,-0.77,-0.15
0.05,-0.69,-0.16
0.02,-0.63,-0.17
-0.01,-0.58,-0.15
-0.09,-0.55,-0.13
-0.13,-0.53,-0.12
-0.15,-0.51,-0.13
-0.2,-0.5,-0.12
-0.24,-0.48,-0.11
-0.26,-0.47,-0.11
-0.25,-0.49,-0.12
-0.23,-0.49,-0.12
-0.21,-0.51,-0.12
-0.17,-0.55,-0.12
-0.13,-0.6,-0.1
-0.09,-0.64,-0.1
-0.05,-0.69,-0.09
-0.01,-0.72,-0.09
0.03,-0.74,-0.08
0.08,-0.76,-0.08
0.11,-0.79,-0.08
0.14,-0.82,-0.08
0.18,-0.86,-0.06
0.2,-0.92,-0.06
0.24,-1.03,-0.04
0.25,-1.15,0
0.29,-1.37,0.02
0.3,-1.5,0.03
0.3,-1.61,0.04
0.28,-1.7,0.06
0.28,-1.76,0.07
0.27,-1.8,0.07
0.27,-1.86,0.07
0.31,-1.9,0.07
0.36,-1.93,0.1
0.4,-1.97,0.12
0.48,-1.99,0.14
0.55,-1.96,0.18
0.53,-1.95,0.15
0.53,-1.93,0.12
0.57,-1.88,0.13
0.59,-1.85,0.11
0.63,-1.82,0.13
0.69,-1.78,0.17
0.74,-1.75,0.19
0.74,-1.74,0.21
0.72,-1.71,0.22
0.76,-1.64,0.22
0.74,-1.56,0.24
0.67,-1.48,0.25
0.7,-1.38,0.26
0.75,-1.26,0.25
0.73,-1.11,0.23
0.76,-1.05,0.21
0.76,-1.02,0.2
0.77,-0.99,0.18
0.77,-0.98,0.17
0.78,-0.97,0.17
0.82,-0.94,0.16
0.84,-0.91,0.14
0.85,-0.88,0.14
0.87,-0.85,0.15
0.88,-0.85,0.16
0.89,-0.86,0.16
0.9,-0.89,0.15
0.92,-0.91,0.14
0.95,-0.92,0.13
0.95,-0.94,0.13
0.93,-0.97,0.13
0.91,-1,0.12
0.89,-1.03,0.12
0.86,-1.07,0.11
0.83,-1.13,0.1
0.8,-1.19,0.1
0.78,-1.26,0.1
0.78,-1.35,0.09
0.77,-1.44,0.08
0.76,-1.54,0.06
0.76,-1.73,0.06
0.72,-1.81,0.07
0.7,-1.86,0.07
0.68,-1.89,0.07
0.63,-1.92,0.08
0.61,-1.95,0.08
0.6,-1.99,0.08
0.59,-2.02,0.08
0.56,-2.05,0.06
0.53,-2.07,0.05
0.5,-2.01,0
0.45,-1.93,-0.03
0.39,-1.87,-0.03
0.38,-1.79,-0.05
0.37,-1.73,-0.02
0.33,-1.69,-0.01
0.31,-1.63,-0.03
0.27,-1.53,-0.04
0.24,-1.46,-0.03
0.22,-1.39,-0.03
0.19,-1.3,-0.03
0.15,-1.21,-0.04
0.14,-1.12,-0.04
0.13,-1.03,-0.05
0.13,-0.95,-0.06
0.12,-0.9,-0.07
0.11,-0.79,-0.08
0.05,-0.74,-0.07
0.02,-0.7,-0.07
-0.01,-0.65,-0.08
-0.04,-0.62,-0.07
-0.08,-0.63,-0.07
-0.13,-0.6,-0.06
-0.18,-0.56,-0.06
-0.23,-0.53,-0.06
-0.26,-0.52,-0.05
-0.26,-0.53,-0.06
-0.25,-0.55,-0.08
-0.23,-0.55,-0.09
-0.21,-0.55,-0.09
-0.17,-0.57,-0.09
-0.14,-0.58,-0.08
-0.11,-0.6,-0.09
-0.08,-0.62,-0.09
-0.06,-0.65,-0.09
-0.03,-0.69,-0.1
0.01,-0.73,-0.09
0.05,-0.78,-0.09
0.1,-0.83,-0.1
0.14,-0.88,-0.1
0.17,-0.94,-0.09
0.21,-0.99,-0.08
0.24,-1.12,-0.02
0.28,-1.19,0
0.28,-1.26,0
0.28,-1.33,0.01
0.28,-1.42,0.02
0.26,-1.53,0.03
0.25,-1.63,0.05
0.26,-1.73,0.06
0.27,-1.8,0.06
0.3,-1.85,0.06
0.34,-1.89,0.06
0.37,-1.91,0.08
0.39,-1.94,0.09
0.43,-1.97,0.06
0.47,-1.99,0.06
0.46,-2.01,0.09
0.47,-2,0.08
0.55,-1.95,0.05
0.63,-1.86,0.02
0.67,-1.75,0.05
0.69,-1.65,0.07
0.69,-1.54,0.04
0.63,-1.47,0.04
0.62,-1.42,0.08
0.66,-1.37,0.09
0.64,-1.35,0.14
0.64,-1.37,0.17
0.71,-1.42,0.14
0.72,-1.37,0.14
0.73,-1.32,0.16
0.75,-1.27,0.16
0.76,-1.22,0.14
0.77,-1.16,0.14
0.77,-1.1,0.16
0.79,-1.07,0.18
0.81,-1.06,0.18
0.85,-1.06,0.18
0.89,-1.05,0.16
0.94,-1.02,0.14
0.95,-1,0.12
0.95,-0.96,0.11
0.97,-0.91,0.09
0.97,-0.87,0.1
0.95,-0.87,0.13
0.92,-0.89,0.14
0.91,-0.92,0.15
0.9,-0.97,0.16
0.88,-1.02,0.16
0.87,-1.06,0.14
0.84,-1.11,0.13
0.81,-1.17,0.11
0.79,-1.22,0.1
0.79,-1.27,0.09
0.85,-1.41,0.07
0.92,-1.5,0.03
1,-1.61,-0.02
1.04,-1.69,-0.05
1.03,-1.75,-0.04
1.02,-1.81,-0.04
0.98,-1.88,-0.03
0.94,-1.96,-0.04
0.92,-2.02,-0.04
0.88,-2.05,-0.04
0.82,-2.06,-0.02
0.79,-2.03,-0.02
0.77,-1.99,-0.04
0.71,-1.94,-0.04
0.63,-1.9,-0.06
0.53,-1.85,-0.05
0.48,-1.77,-0.06
0.46,-1.69,-0.07
0.4,-1.6,-0.07
0.32,-1.52,-0.09
0.27,-1.43,-0.1
0.23,-1.32,-0.1
0.19,-1.24,-0.09
0.15,-1.16,-0.11
0.14,-1.09,-0.11
0.15,-1.03,-0.12
0.15,-0.98,-0.12
0.14,-0.95,-0.12
0.1,-0.93,-0.12
0.07,-0.92,-0.12
0.03,-0.9,-0.12
-0.02,-0.87,-0.12
-0.07,-0.82,-0.11
-0.1,-0.76,-0.11
-0.12,-0.7,-0.11
-0.14,-0.65,-0.1
-0.15,-0.6,-0.09
-0.14,-0.56,-0.1
-0.14,-0.53,-0.1
-0.13,-0.49,-0.1
-0.12,-0.47,-0.11
-0.11,-0.47,-0.11
-0.1,-0.47,-0.11
-0.08,-0.47,-0.11
-0.06,-0.48,-0.1
-0.03,-0.5,-0.1
0,-0.53,-0.09
0.03,-0.56,-0.1
0.04,-0.6,-0.09
0.05,-0.64,-0.09
0.07,-0.68,-0.09
0.08,-0.73,-0.09
0.13,-0.85,-0.09
0.14,-0.92,-0.08
0.16,-0.98,-0.07
0.19,-1.05,-0.07
0.22,-1.11,-0.07
0.26,-1.18,-0.06
0.26,-1.29,-0.04
0.27,-1.4,-0.03
0.31,-1.47,-0.03
0.31,-1.57,-0.01
0.3,-1.69,0
0.3,-1.8,0
0.3,-1.92,0.01
0.31,-2.03,0.02
0.35,-2.12,0.04
0.42,-2.15,0.06
0.46,-2.14,0.07
0.49,-2.12,0.07
0.56,-2.08,0.06
0.54,-2.07,0.06
0.51,-2.06,0.06
0.55,-1.99,0.06
0.6,-1.9,0.06
0.67,-1.81,0.06
0.7,-1.73,0.07
0.65,-1.64,0.05
0.61,-1.47,0.13
0.64,-1.45,0.14
0.64,-1.43,0.15
0.59,-1.43,0.15
0.61,-1.4,0.16
0.65,-1.37,0.17
0.66,-1.32,0.17
0.66,-1.25,0.18
0.67,-1.18,0.19
0.69,-1.11,0.17
0.7,-1.05,0.16
0.71,-1,0.15
0.76,-0.95,0.13
0.77,-0.92,0.12
0.78,-0.9,0.12
0.83,-0.87,0.1
0.9,-0.85,0.06
0.94,-0.84,0.04
0.94,-0.87,0.03
0.93,-0.9,0.02
0.94,-0.91,0.02
0.94,-0.94,0.01
0.93,-0.98,0.01
0.92,-1.03,0.01
0.91,-1.07,0.01
0.88,-1.11,0.01
0.86,-1.17,0.01
0.83,-1.21,0.02
0.82,-1.26,0.03
0.82,-1.32,0.03
0.8,-1.38,0.03
0.76,-1.43,0.03
0.74,-1.47,0.04
0.72,-1.52,0.04
0.7,-1.57,0.04
0.67,-1.63,0.03
0.65,-1.69,0.01
0.63,-1.72,-0.02
0.6,-1.78,-0.03
0.56,-1.83,-0.02
0.52,-1.84,0
0.51,-1.83,0
0.51,-1.8,-0.02
0.48,-1.79,-0.02
0.46,-1.78,-0.03
0.46,-1.74,-0.05
0.43,-1.69,-0.05
0.37,-1.66,-0.06
0.35,-1.6,-0.07
0.35,-1.52,-0.04
0.34,-1.49,-0.05
0.34,-1.5,-0.06
0.33,-1.5,-0.08
0.28,-1.5,-0.08
0.26,-1.49,-0.07
0.22,-1.46,-0.07
0.19,-1.41,-0.07
0.15,-1.35,-0.07
0.1,-1.27,-0.07
0.07,-1.17,-0.07
0.05,-1.06,-0.06
0.01,-0.95,-0.07
0,-0.84,-0.07
0,-0.74,-0.1
-0.02,-0.66,-0.12
-0.06,-0.6,-0.13
-0.07,-0.55,-0.14
-0.07,-0.51,-0.13
-0.07,-0.48,-0.11
-0.07,-0.46,-0.1
-0.09,-0.45,-0.1
-0.1,-0.45,-0.1
-0.12,-0.47,-0.1
-0.16,-0.53,-0.12
-0.2,-0.6,-0.13
-0.23,-0.65,-0.12
-0.25,-0.69,-0.12
-0.24,-0.72,-0.11
-0.22,-0.73,-0.1
-0.14,-0.75,-0.11
-0.07,-0.77,-0.12
-0.01,-0.81,-0.13
0.03,-0.85,-0.13
0.07,-0.9,-0.12
0.11,-0.95,-0.12
0.15,-0.99,-0.11
0.17,-1.04,-0.11
0.21,-1.1,-0.11
0.24,-1.17,-0.09
0.24,-1.25,-0.06
0.27,-1.32,-0.05
0.29,-1.44,-0.03
0.3,-1.55,-0.01
0.33,-1.66,0.01
0.32,-1.75,0.03
0.33,-1.83,0.04
0.35,-1.89,0.07
0.35,-1.95,0.09
0.36,-1.99,0.11
0.4,-2,0.12
0.42,-1.99,0.15
0.35,-2.02,0.13
0.34,-2.01,0.08
0.39,-1.92,0.06
0.44,-1.83,0.02
0.52,-1.71,0.07
0.54,-1.67,0.07
0.56,-1.63,0.05
0.58,-1.59,0.05
0.65,-1.55,0.04
0.67,-1.51,0.07
0.62,-1.48,0.1
0.63,-1.43,0.12
0.65,-1.37,0.13
0.62,-1.3,0.15
0.64,-1.23,0.16
0.65,-1.16,0.16
0.65,-1.11,0.18
0.67,-1.08,0.2
0.69,-1.04,0.19
0.72,-1.01,0.16
0.75,-0.97,0.15
0.78,-0.94,0.16
0.8,-0.92,0.15
0.83,-0.91,0.12
0.87,-0.9,0.11
0.92,-0.89,0.1
0.94,-0.89,0.1
0.95,-0.91,0.09
0.95,-0.92,0.1
0.94,-0.94,0.12
0.92,-0.98,0.11
0.89,-1.03,0.1
0.87,-1.08,0.09
0.85,-1.13,0.07
0.82,-1.19,0.07
0.8,-1.25,0.07
0.78,-1.32,0.08
0.75,-1.4,0.09
0.72,-1.46,0.08
0.69,-1.52,0.07
0.67,-1.59,0.05
0.65,-1.66,0.05
0.62,-1.73,0.05
0.58,-1.79,0.01
0.55,-1.81,0
0.51,-1.77,0
0.48,-1.7,0
0.47,-1.64,-0.02
0.46,-1.62,-0.05
0.44,-1.63,-0.04
0.4,-1.66,-0.05
0.38,-1.69,-0.09
0.37,-1.71,-0.11
0.32,-1.74,-0.11
0.25,-1.76,-0.1
0.24,-1.72,-0.09
0.26,-1.67,-0.08
0.24,-1.68,-0.08
0.21,-1.67,-0.08
0.18,-1.63,-0.09
0.14,-1.57,-0.09
0.11,-1.49,-0.08
0.09,-1.4,-0.07
0.09,-1.3,-0.08
0.09,-1.22,-0.09
0.12,-1.14,-0.1
0.14,-1.08,-0.12
0.16,-1.02,-0.13
0.16,-0.96,-0.14
0.13,-0.9,-0.13
0.12,-0.84,-0.12
0.1,-0.78,-0.13
0.07,-0.72,-0.12
0.05,-0.68,-0.09
0.02,-0.65,-0.09
-0.02,-0.63,-0.08
-0.06,-0.61,-0.07
-0.09,-0.6,-0.07
-0.11,-0.6,-0.07
-0.13,-0.6,-0.07
-0.15,-0.59,-0.07
-0.18,-0.59,-0.08
-0.18,-0.58,-0.08
-0.17,-0.58,-0.09
-0.15,-0.57,-0.09
-0.11,-0.57,-0.09
-0.07,-0.57,-0.09
-0.02,-0.6,-0.1
0.04,-0.63,-0.1
0.09,-0.68,-0.1
0.13,-0.73,-0.1
0.17,-0.78,-0.1
0.2,-0.83,-0.1
0.22,-0.89,-0.1
0.24,-0.97,-0.1
0.25,-1.05,-0.08
0.26,-1.14,-0.06
0.26,-1.25,-0.06
0.27,-1.35,-0.04
0.25,-1.45,-0.01
0.24,-1.55,0.01
0.27,-1.65,0.04
0.28,-1.75,0.05
0.28,-1.84,0.05
0.32,-1.96,0.06
0.36,-2.09,0.04
0.38,-2.22,0.04
0.4,-2.3,0.06
0.39,-2.25,0.08
0.42,-2.11,0.05
0.5,-1.87,0.06
0.53,-1.67,0.12
0.61,-1.55,0.15
0.67,-1.47,0.18
0.66,-1.44,0.21
0.66,-1.44,0.19
0.64,-1.45,0.17
0.64,-1.46,0.21
0.67,-1.45,0.23
0.67,-1.41,0.24
0.63,-1.36,0.26
0.61,-1.29,0.26
0.59,-1.23,0.27
0.58,-1.18,0.28
0.59,-1.12,0.28
0.6,-1.08,0.27
0.6,-1.04,0.27
0.62,-1,0.27
0.66,-0.97,0.27
0.69,-0.93,0.25
0.74,-0.88,0.24
0.77,-0.85,0.22
0.81,-0.85,0.2
0.85,-0.86,0.19
0.9,-0.9,0.14
0.97,-0.94,0.13
0.97,-0.99,0.12
0.94,-1.03,0.1
0.92,-1.06,0.09
0.9,-1.09,0.1
0.87,-1.12,0.11
0.85,-1.14,0.11
0.83,-1.17,0.1
0.81,-1.21,0.1
0.78,-1.25,0.1
0.75,-1.29,0.09
0.73,-1.32,0.08
0.71,-1.36,0.06
0.68,-1.41,0.05
0.65,-1.47,0.05
0.61,-1.55,0.04
0.61,-1.64,0.04
0.61,-1.74,0.05
0.57,-1.81,0.04
0.53,-1.85,0
0.51,-1.86,-0.02
0.54,-1.84,-0.02
0.55,-1.82,0
0.54,-1.79,0.04
0.52,-1.77,0.03
0.51,-1.75,-0.03
0.48,-1.77,-0.04
0.45,-1.74,-0.05
0.43,-1.66,-0.05
0.4,-1.57,-0.05
0.39,-1.5,-0.05
0.35,-1.43,-0.05
0.32,-1.36,-0.05
0.29,-1.3,-0.05
0.27,-1.25,-0.04
0.24,-1.21,-0.05
0.22,-1.16,-0.06
0.19,-1.12,-0.07
0.17,-1.07,-0.06
0.13,-1.01,-0.04
0.09,-0.94,-0.04
0.04,-0.87,-0.04
-0.01,-0.82,-0.06
-0.06,-0.76,-0.05
-0.07,-0.72,-0.06
-0.08,-0.68,-0.06
-0.1,-0.67,-0.06
-0.09,-0.64,-0.06
-0.09,-0.62,-0.07
-0.1,-0.65,-0.1
-0.11,-0.67,-0.11
-0.15,-0.69,-0.14
-0.18,-0.69,-0.13
-0.17,-0.69,-0.12
-0.16,-0.68,-0.12
-0.15,-0.68,-0.12
-0.12,-0.69,-0.11
-0.1,-0.7,-0.11
-0.1,-0.72,-0.11
-0.09,-0.74,-0.1
-0.07,-0.77,-0.09
-0.04,-0.8,-0.08
-0.01,-0.83,-0.07
0.01,-0.88,-0.06
0.03,-0.94,-0.05
0.06,-1.03,-0.04
0.1,-1.11,-0.02
0.12,-1.18,-0.02
0.16,-1.26,-0.02
0.2,-1.32,-0.01
0.19,-1.41,-0.02
0.19,-1.5,-0.02
0.2,-1.57,-0.03
0.2,-1.65,-0.02
0.21,-1.7,-0.01
0.24,-1.74,-0.01
0.27,-1.76,-0.01
0.31,-1.76,0.01
0.37,-1.75,0.03
0.4,-1.74,0.05
0.42,-1.73,0.05
0.44,-1.7,0.06
0.44,-1.67,0.07
0.44,-1.66,0.08
0.45,-1.67,0.07
0.47,-1.68,0.1
0.52,-1.68,0.13
0.58,-1.71,0.13
0.59,-1.75,0.13
0.58,-1.75,0.14
0.6,-1.73,0.15
0.63,-1.67,0.18
0.62,-1.62,0.2
0.63,-1.55,0.19
0.67,-1.47,0.18
0.67,-1.4,0.18
0.69,-1.33,0.2
0.71,-1.26,0.22
0.73,-1.2,0.22
0.74,-1.17,0.22
0.77,-1.15,0.23
0.8,-1.11,0.24
0.82,-1.06,0.25
0.85,-1.02,0.24
0.88,-0.94,0.23
0.92,-0.88,0.24
0.93,-0.84,0.24
0.93,-0.81,0.24
0.91,-0.82,0.24
0.91,-0.85,0.25
0.91,-0.87,0.24
0.9,-0.9,0.23
0.87,-0.94,0.21
0.83,-0.99,0.19
0.79,-1.05,0.16
0.75,-1.11,0.15
0.71,-1.18,0.14
0.67,-1.25,0.13
0.65,-1.32,0.11
0.64,-1.41,0.09
0.63,-1.51,0.06
0.61,-1.61,0.03
0.58,-1.71,0.02
0.56,-1.77,0.01
0.53,-1.79,-0.02
0.52,-1.82,-0.02
0.49,-1.82,-0.02
0.47,-1.79,-0.03
0.48,-1.77,-0.02
0.5,-1.77,-0.06
0.46,-1.8,-0.08
0.47,-1.82,-0.11
0.47,-1.83,-0.12
0.44,-1.84,-0.12
0.38,-1.83,-0.15
0.34,-1.81,-0.15
0.3,-1.77,-0.16
0.26,-1.72,-0.19
0.21,-1.66,-0.2
0.18,-1.59,-0.19
0.16,-1.5,-0.16
0.17,-1.43,-0.15
0.17,-1.38,-0.15
0.15,-1.36,-0.14
0.11,-1.33,-0.13
0.08,-1.26,-0.13
0.04,-1.16,-0.14
0,-1.07,-0.13
-0.02,-0.96,-0.11
-0.03,-0.87,-0.1
-0.05,-0.8,-0.1
-0.05,-0.74,-0.09
-0.05,-0.69,-0.08
-0.06,-0.64,-0.1
-0.08,-0.6,-0.1
-0.08,-0.55,-0.09
-0.05,-0.51,-0.1
-0.04,-0.51,-0.1
-0.04,-0.52,-0.09
-0.02,-0.53,-0.09
-0.01,-0.56,-0.1
0,-0.58,-0.1
0.02,-0.59,-0.08
0.03,-0.61,-0.08
0.05,-0.63,-0.08
0.08,-0.65,-0.08
0.09,-0.68,-0.08
0.11,-0.71,-0.08
0.12,-0.75,-0.08
0.13,-0.8,-0.08
0.14,-0.85,-0.08
0.15,-0.9,-0.08
0.17,-0.95,-0.08
0.18,-1,-0.08
0.19,-1.04,-0.07
0.2,-1.08,-0.06
0.22,-1.12,-0.06
0.25,-1.15,-0.06
0.26,-1.21,-0.05
0.28,-1.26,-0.05
0.3,-1.31,-0.04
0.31,-1.38,-0.03
0.32,-1.53,0.01
0.34,-1.62,0.02
0.35,-1.72,0.03
0.36,-1.8,0.06
0.36,-1.88,0.07
0.36,-1.94,0.05
0.36,-1.96,0.06
0.36,-1.95,0.06
0.33,-1.92,0.05
0.32,-1.86,0.06
0.37,-1.75,0.08
0.46,-1.65,0.08
0.52,-1.56,0.07
0.52,-1.46,0.08
0.51,-1.4,0.11
0.5,-1.36,0.12
0.51,-1.33,0.11
0.53,-1.35,0.11
0.54,-1.39,0.11
0.53,-1.42,0.12
0.53,-1.43,0.13
0.54,-1.42,0.14
0.52,-1.4,0.17
0.52,-1.37,0.2
0.53,-1.33,0.21
0.53,-1.29,0.21
0.53,-1.19,0.2
0.59,-1.14,0.19
0.62,-1.07,0.18
0.67,-1,0.2
0.71,-0.94,0.22
0.72,-0.91,0.24
0.76,-0.89,0.25
0.8,-0.87,0.24
0.8,-0.87,0.22
0.83,-0.87,0.2
0.86,-0.86,0.19
0.84,-0.88,0.19
0.86,-0.91,0.19
0.86,-0.94,0.18
0.82,-0.99,0.17
0.8,-1.04,0.16
0.77,-1.09,0.15
0.74,-1.13,0.15
0.72,-1.17,0.14
0.69,-1.21,0.13
0.67,-1.25,0.13
0.66,-1.29,0.1
0.64,-1.35,0.1
0.63,-1.43,0.07
0.63,-1.51,0.04
0.61,-1.59,0.02
0.59,-1.68,-0.03
0.52,-1.71,-0.04
0.48,-1.72,-0.05
0.46,-1.69,-0.07
0.45,-1.67,-0.06
0.44,-1.69,-0.05
0.41,-1.71,-0.06
0.39,-1.72,-0.08
0.37,-1.74,-0.09
0.35,-1.78,-0.08
0.35,-1.79,-0.06
0.34,-1.77,-0.09
0.31,-1.73,-0.1
0.27,-1.7,-0.08
0.26,-1.64,-0.08
0.26,-1.59,-0.07
0.23,-1.58,-0.08
0.2,-1.55,-0.08
0.18,-1.5,-0.08
0.16,-1.46,-0.09
0.12,-1.41,-0.09
0.1,-1.33,-0.1
0.08,-1.25,-0.11
0.07,-1.16,-0.11
0.08,-1.06,-0.12
0.09,-0.98,-0.12
0.08,-0.93,-0.12
0.05,-0.86,-0.12
0.02,-0.83,-0.13
-0.01,-0.81,-0.13
-0.07,-0.8,-0.11
-0.11,-0.76,-0.1
-0.12,-0.72,-0.09
-0.13,-0.7,-0.09
-0.15,-0.69,-0.08
-0.19,-0.68,-0.08
-0.21,-0.67,-0.08
-0.23,-0.66,-0.08
-0.24,-0.65,-0.07
-0.23,-0.64,-0.06
-0.21,-0.63,-0.06
-0.18,-0.62,-0.06
-0.14,-0.62,-0.06
-0.09,-0.62,-0.06
-0.04,-0.63,-0.07
0,-0.65,-0.06
0.03,-0.69,-0.05
0.07,-0.74,-0.06
0.11,-0.78,-0.06
0.14,-0.84,-0.06
0.16,-0.9,-0.05
0.18,-0.97,-0.05
0.21,-1.04,-0.04
0.23,-1.18,-0.03
0.22,-1.28,-0.02
0.25,-1.39,-0.02
0.27,-1.51,-0.01
0.24,-1.64,0
0.24,-1.75,0
0.26,-1.82,0
0.26,-1.85,0.01
0.28,-1.84,0.01
0.32,-1.84,0.04
0.35,-1.86,0.05
0.38,-1.89,0.06
0.4,-1.94,0.06
0.42,-1.97,0.08
0.45,-1.96,0.07
0.41,-1.96,0.07
0.41,-1.92,0.04
0.51,-1.82,-0.01
0.6,-1.73,0.02
0.61,-1.66,0.06
0.62,-1.6,0.08
0.63,-1.54,0.08
0.66,-1.47,0.06
0.67,-1.39,0.11
0.61,-1.37,0.19
0.57,-1.37,0.2
0.58,-1.31,0.19
0.6,-1.29,0.19
0.61,-1.28,0.2
0.64,-1.23,0.21
0.67,-1.17,0.23
0.7,-1.11,0.25
0.74,-1.05,0.25
0.78,-1.01,0.24
0.82,-0.97,0.24
0.83,-0.95,0.24
0.85,-0.91,0.24
0.9,-0.89,0.22
0.95,-0.88,0.2
0.98,-0.86,0.17
0.99,-0.84,0.15
0.98,-0.85,0.14
0.96,-0.87,0.13
0.93,-0.92,0.13
0.89,-0.97,0.13
0.86,-1.05,0.12
0.83,-1.12,0.09
0.79,-1.18,0.06
0.76,-1.23,0.04
0.73,-1.27,0.04
0.71,-1.3,0.04
0.7,-1.35,0.02
0.7,-1.52,0.03
0.71,-1.63,0.02
0.72,-1.73,0.02
0.73,-1.81,-0.02
0.72,-1.89,-0.06
0.66,-2,-0.06
0.57,-2.07,-0.05
0.52,-2.07,-0.03
0.5,-2,-0.01
0.51,-1.92,0
0.5,-1.88,-0.02
0.47,-1.86,-0.06
0.45,-1.84,-0.06
0.41,-1.84,-0.06
0.35,-1.83,-0.06
0.3,-1.78,-0.04
0.28,-1.73,-0.05
0.26,-1.69,-0.06
0.24,-1.67,-0.07
0.22,-1.63,-0.1
0.19,-1.59,-0.11
0.16,-1.54,-0.12
0.14,-1.46,-0.13
0.13,-1.37,-0.15
0.12,-1.28,-0.15
0.1,-1.19,-0.16
0.08,-1.01,-0.16
0.08,-0.95,-0.16
0.08,-0.93,-0.14
0.07,-0.93,-0.13
0.03,-0.95,-0.15
0.01,-0.93,-0.15
0,-0.87,-0.14
-0.03,-0.82,-0.14
-0.03,-0.78,-0.13
-0.04,-0.76,-0.13
-0.07,-0.75,-0.14
-0.09,-0.73,-0.15
-0.11,-0.7,-0.14
-0.12,-0.65,-0.12
-0.13,-0.61,-0.1
-0.15,-0.57,-0.09
-0.15,-0.53,-0.08
-0.15,-0.5,-0.08
-0.13,-0.47,-0.09
-0.12,-0.47,-0.09
-0.1,-0.48,-0.09
-0.08,-0.5,-0.09
-0.06,-0.53,-0.09
-0.02,-0.57,-0.09
0.01,-0.61,-0.09
0.05,-0.66,-0.08
0.09,-0.78,-0.09
0.15,-0.85,-0.09
0.18,-0.93,-0.1
0.2,-1.01,-0.1
0.2,-1.09,-0.09
0.21,-1.18,-0.1
0.25,-1.26,-0.1
0.29,-1.35,-0.08
0.31,-1.47,-0.09
0.35,-1.6,-0.09
0.39,-1.74,-0.07
0.42,-1.9,-0.05
0.42,-2.07,-0.02
0.4,-2.17,0.02
0.42,-2.22,0.07
0.46,-2.24,0.09
0.41,-2.24,0.08
0.36,-2.19,0.08
0.34,-2.13,0.12
0.28,-2.09,0.16
0.44,-2,0.12
0.63,-1.85,0.06
0.62,-1.76,0.07
0.65,-1.69,0.08
0.73,-1.58,0.13
0.72,-1.51,0.12
0.66,-1.39,0.09
0.63,-1.37,0.09
0.56,-1.38,0.11
0.55,-1.37,0.13
0.51,-1.36,0.15
0.5,-1.34,0.17
0.53,-1.3,0.18
0.55,-1.24,0.19
0.57,-1.17,0.2
0.6,-1.1,0.21
0.63,-1.02,0.24
0.66,-0.95,0.28
0.63,-0.92,0.28
0.65,-0.9,0.27
0.7,-0.87,0.3
0.72,-0.88,0.3
0.75,-0.89,0.27
0.79,-0.87,0.25
0.84,-0.86,0.23
0.89,-0.85,0.2
0.92,-0.85,0.19
0.91,-0.88,0.18
0.88,-0.9,0.17
0.87,-0.92,0.17
0.86,-0.96,0.16
0.83,-1,0.15
0.79,-1.11,0.13
0.72,-1.16,0.12
0.69,-1.21,0.11
0.67,-1.26,0.09
0.66,-1.31,0.07
0.66,-1.37,0.05
0.65,-1.41,0.03
0.64,-1.46,0.01
0.62,-1.52,-0.01
0.6,-1.56,-0.04
0.58,-1.61,-0.07
0.56,-1.67,-0.11
0.55,-1.73,-0.11
0.55,-1.76,-0.11
0.5,-1.77,-0.07
0.51,-1.73,-0.05
0.6,-1.72,-0.13
0.58,-1.74,-0.17
0.52,-1.72,-0.18
0.56,-1.72,-0.17
0.57,-1.73,-0.16
0.55,-1.74,-0.16
0.53,-1.74,-0.16
0.49,-1.71,-0.18
0.46,-1.65,-0.16
0.44,-1.58,-0.13
0.41,-1.51,-0.11
0.34,-1.35,-0.13
0.32,-1.3,-0.14
0.3,-1.26,-0.13
0.27,-1.23,-0.14
0.24,-1.21,-0.16
0.21,-1.2,-0.17
0.17,-1.17,-0.17
0.13,-1.12,-0.17
0.09,-1.04,-0.18
0.07,-0.95,-0.18
0.06,-0.86,-0.18
0.05,-0.78,-0.17
0.04,-0.72,-0.17
0.03,-0.67,-0.17
0.02,-0.63,-0.16
0.01,-0.58,-0.15
0,-0.55,-0.16
-0.03,-0.53,-0.16
-0.05,-0.52,-0.15
-0.07,-0.53,-0.14
-0.09,-0.55,-0.12
-0.09,-0.57,-0.11
-0.09,-0.58,-0.1
-0.07,-0.57,-0.09
-0.04,-0.58,-0.08
-0.02,-0.61,-0.08
0.03,-0.64,-0.08
0.05,-0.66,-0.08
0.07,-0.68,-0.08
0.09,-0.72,-0.08
0.11,-0.76,-0.08
0.13,-0.79,-0.07
0.15,-0.84,-0.07
0.18,-0.89,-0.07
0.2,-0.95,-0.06
0.22,-1.04,-0.05
0.24,-1.12,-0.04
0.26,-1.21,-0.05
0.26,-1.33,-0.05
0.27,-1.46,-0.05
0.3,-1.57,-0.04
0.3,-1.69,-0.02
0.32,-1.8,0.01
0.36,-1.88,0.03
0.35,-1.93,0.06
0.35,-1.97,0.05
0.39,-2,0.05
0.44,-2.01,0.07
0.49,-2,0.14
0.49,-1.99,0.14
0.47,-1.99,0.07
0.58,-1.87,0.23
0.61,-1.59,0.25
0.78,-1.47,0.13
0.71,-1.39,0.13
0.62,-1.39,0.13
0.71,-1.42,0.12
0.71,-1.44,0.12
0.67,-1.46,0.13
0.64,-1.46,0.15
0.59,-1.42,0.18
0.57,-1.36,0.21
0.56,-1.29,0.24
0.58,-1.22,0.24
0.59,-1.14,0.23
0.59,-1.06,0.24
0.6,-1,0.28
0.62,-0.94,0.31
0.63,-0.9,0.32
0.64,-0.88,0.32
0.68,-0.86,0.32
0.72,-0.85,0.29
0.76,-0.85,0.29
0.8,-0.85,0.3
0.83,-0.85,0.27
0.88,-0.85,0.26
0.91,-0.86,0.26
0.9,-0.9,0.24
0.89,-0.98,0.23
0.87,-1.02,0.23
0.84,-1.05,0.22
0.82,-1.09,0.22
0.81,-1.12,0.22
0.8,-1.16,0.21
0.79,-1.2,0.19
0.78,-1.24,0.16
0.76,-1.28,0.15
0.75,-1.32,0.14
0.74,-1.37,0.12
0.72,-1.43,0.1
0.71,-1.51,0.07
0.72,-1.61,0.04
0.71,-1.7,0.03
0.66,-1.78,0.03
0.62,-1.83,0.03
0.61,-1.84,0.03
0.57,-1.84,0.02
0.51,-1.84,0.01
0.48,-1.82,0
0.46,-1.75,0.01
0.43,-1.7,0.03
0.43,-1.66,0.04
0.44,-1.6,0.04
0.43,-1.56,0.01
0.39,-1.55,-0.02
0.35,-1.56,-0.01
0.33,-1.55,-0.03
0.31,-1.52,-0.05
0.27,-1.48,-0.05
0.25,-1.44,-0.06
0.23,-1.4,-0.08
0.21,-1.32,-0.09
0.19,-1.23,-0.09
0.17,-1.14,-0.1
0.15,-1.04,-0.11
0.15,-0.93,-0.1
0.14,-0.85,-0.1
0.1,-0.76,-0.1
0.09,-0.68,-0.11
0.09,-0.63,-0.12
0.06,-0.59,-0.12
0.04,-0.55,-0.12
0.03,-0.52,-0.12
0.02,-0.5,-0.12
0.01,-0.5,-0.11
0.01,-0.51,-0.1
-0.01,-0.54,-0.09
-0.04,-0.58,-0.09
-0.07,-0.62,-0.09
-0.09,-0.66,-0.09
-0.09,-0.69,-0.08
-0.05,-0.68,-0.08
-0.01,-0.67,-0.08
0.04,-0.66,-0.08
0.08,-0.66,-0.08
0.1,-0.66,-0.08
0.13,-0.67,-0.08
0.15,-0.68,-0.08
0.17,-0.71,-0.08
0.18,-0.74,-0.07
0.2,-0.77,-0.07
0.21,-0.81,-0.08
0.22,-0.86,-0.08
0.23,-0.91,-0.07
0.24,-0.98,-0.06
0.28,-1.02,-0.06
0.3,-1.08,-0.04
0.31,-1.18,-0.01
0.34,-1.29,0.01
0.35,-1.42,0.01
0.37,-1.52,0.02
0.38,-1.64,0.03
0.38,-1.77,0.04
0.4,-1.86,0.03
0.42,-1.9,0.03
0.39,-1.95,0.02
0.44,-1.9,0.11
0.41,-1.89,0.14
0.39,-1.9,0.12
0.49,-1.84,0.13
0.55,-1.79,0.14
0.58,-1.78,0.15
0.6,-1.72,0.12
0.64,-1.66,0.09
0.65,-1.64,0.12
0.62,-1.62,0.16
0.63,-1.59,0.19
0.63,-1.54,0.21
0.63,-1.49,0.24
0.65,-1.43,0.25
0.63,-1.36,0.29
0.63,-1.27,0.32
0.63,-1.18,0.29
0.63,-1.11,0.26
0.62,-1.03,0.27
0.62,-0.95,0.29
0.64,-0.87,0.31
0.67,-0.82,0.3
0.67,-0.79,0.29
0.69,-0.77,0.27
0.71,-0.76,0.26
0.73,-0.77,0.25
0.77,-0.84,0.22
0.87,-0.87,0.2
0.93,-0.9,0.19
0.97,-0.94,0.15
1.02,-0.97,0.11
1.04,-1.01,0.1
1.03,-1.06,0.1
1,-1.12,0.09
0.97,-1.17,0.07
0.93,-1.21,0.05
0.89,-1.24,0.03
0.85,-1.26,0.04
0.84,-1.26,0.04
0.85,-1.28,0.02
0.85,-1.32,0
0.83,-1.36,-0.02
0.8,-1.41,-0.05
0.76,-1.47,-0.07
0.71,-1.53,-0.07
0.67,-1.61,-0.07
0.63,-1.68,-0.06
0.62,-1.73,-0.06
0.62,-1.75,-0.05
0.6,-1.73,-0.05
0.55,-1.7,-0.05
0.51,-1.65,0
0.5,-1.61,-0.01
0.45,-1.59,-0.03
0.4,-1.58,-0.02
0.38,-1.56,-0.03
0.38,-1.53,-0.05
0.37,-1.51,-0.04
0.37,-1.49,-0.05
0.34,-1.48,-0.08
0.32,-1.49,-0.07
0.31,-1.48,-0.07
0.29,-1.47,-0.09
0.25,-1.44,-0.08
0.21,-1.39,-0.07
0.19,-1.31,-0.07
0.18,-1.23,-0.08
0.18,-1.15,-0.08
0.16,-1.07,-0.08
0.16,-0.99,-0.08
0.15,-0.91,-0.1
0.16,-0.85,-0.1
0.18,-0.78,-0.1
0.16,-0.72,-0.09
0.16,-0.69,-0.09
0.16,-0.65,-0.11
0.15,-0.59,-0.1
0.14,-0.56,-0.1
0.12,-0.55,-0.09
0.09,-0.53,-0.08
0.07,-0.53,-0.08
0.05,-0.55,-0.08
0.03,-0.58,-0.08
0.02,-0.6,-0.08
0.01,-0.62,-0.07
0,-0.63,-0.07
0,-0.64,-0.07
0,-0.64,-0.06
0.02,-0.64,-0.06
0.05,-0.65,-0.06
0.07,-0.66,-0.06
0.1,-0.67,-0.06
0.12,-0.7,-0.07
0.15,-0.72,-0.08
0.17,-0.74,-0.09
0.18,-0.77,-0.09
0.2,-0.82,-0.08
0.21,-0.86,-0.09
0.22,-0.9,-0.11
0.22,-0.98,-0.1
0.21,-1.06,-0.08
0.26,-1.11,-0.07
0.28,-1.2,-0.05
0.28,-1.31,-0.06
0.31,-1.43,-0.07
0.32,-1.77,-0.06
0.36,-1.94,-0.03
0.4,-2.09,0
0.41,-2.21,0.02
0.47,-2.27,0.01
0.55,-2.29,0.04
0.6,-2.27,0.04
0.61,-2.19,0.06
0.52,-2.07,0.04
0.46,-1.97,0.03
0.5,-1.8,0.05
0.58,-1.6,0.07
0.66,-1.48,0.11
0.63,-1.4,0.12
0.63,-1.36,0.14
0.68,-1.38,0.12
0.66,-1.42,0.11
0.66,-1.45,0.13
0.64,-1.46,0.16
0.62,-1.45,0.19
0.61,-1.41,0.2
0.61,-1.32,0.2
0.6,-1.22,0.21
0.59,-1.13,0.24
0.59,-1.05,0.26
0.61,-0.99,0.3
0.66,-0.96,0.3
0.72,-0.96,0.28
0.77,-0.95,0.26
0.82,-0.93,0.26
0.85,-0.91,0.24
0.88,-0.91,0.22
0.94,-0.89,0.21
1.01,-0.89,0.19
1.01,-0.91,0.18
1.03,-0.94,0.18
1.05,-0.98,0.16
1.02,-1.02,0.15
0.99,-1.05,0.15
0.95,-1.09,0.15
0.91,-1.13,0.16
0.86,-1.17,0.18
0.83,-1.22,0.19
0.8,-1.28,0.17
0.77,-1.35,0.14
0.73,-1.41,0.13
0.7,-1.45,0.11
0.68,-1.5,0.1
0.67,-1.58,0.09
0.66,-1.65,0.1
0.66,-1.72,0.1
0.66,-1.77,0.08
0.63,-1.86,0.05
0.6,-1.87,0.05
0.56,-1.88,0.05
0.54,-1.9,0.03
0.5,-1.9,0.02
0.43,-1.9,0.02
0.39,-1.91,0.01
0.39,-1.88,-0.03
0.38,-1.85,-0.02
0.37,-1.84,-0.02
0.36,-1.81,-0.04
0.31,-1.77,-0.06
0.28,-1.73,-0.08
0.23,-1.68,-0.08
0.19,-1.61,-0.08
0.16,-1.51,-0.08
0.13,-1.39,-0.08
0.11,-1.28,-0.09
0.09,-1.17,-0.09
0.09,-1.06,-0.09
0.11,-0.98,-0.1
0.11,-0.93,-0.11
0.12,-0.88,-0.14
0.14,-0.85,-0.14
0.1,-0.83,-0.14
0.07,-0.8,-0.14
0.04,-0.72,-0.12
0,-0.69,-0.11
0,-0.67,-0.11
-0.01,-0.64,-0.1
-0.01,-0.62,-0.09
-0.02,-0.59,-0.09
-0.02,-0.57,-0.09
-0.02,-0.54,-0.09
-0.03,-0.51,-0.09
-0.04,-0.49,-0.09
-0.04,-0.47,-0.08
-0.04,-0.46,-0.07
-0.03,-0.45,-0.06
-0.02,-0.46,-0.06
-0.01,-0.47,-0.06
0.01,-0.48,-0.06
0.03,-0.5,-0.06
0.05,-0.53,-0.07
0.08,-0.56,-0.07
0.11,-0.6,-0.07
0.14,-0.64,-0.07
0.18,-0.7,-0.08
0.2,-0.76,-0.08
0.22,-0.83,-0.08
0.23,-0.9,-0.08
0.24,-0.97,-0.06
0.26,-1.18,-0.02
0.25,-1.3,-0.05
0.27,-1.43,-0.02
0.3,-1.58,0
0.31,-1.75,-0.01
0.3,-1.92,0.01
0.35,-2.07,0.04
0.39,-2.2,0.04
0.38,-2.26,0.05
0.41,-2.31,0.05
0.49,-2.34,0.04
0.52,-2.31,0.04
0.45,-2.26,0.2
0.38,-2.26,0.24
0.47,-2.13,0.11
0.55,-1.91,0.12
0.61,-1.79,0.11
0.72,-1.71,0.08
0.76,-1.68,0.12
0.7,-1.68,0.15
0.68,-1.71,0.18
0.72,-1.72,0.17
0.67,-1.67,0.18
0.62,-1.6,0.23
0.6,-1.5,0.24
0.6,-1.38,0.26
0.63,-1.25,0.27
0.68,-1,0.27
0.69,-0.93,0.28
0.71,-0.9,0.3
0.73,-0.87,0.3
0.76,-0.88,0.3
0.78,-0.89,0.28
0.83,-0.9,0.26
0.88,-0.89,0.23
0.94,-0.87,0.21
0.98,-0.87,0.17
1.03,-0.86,0.14
1.05,-0.87,0.13
1.06,-0.89,0.12
1.05,-0.92,0.11
1.01,-0.98,0.1
0.97,-1.05,0.1
0.91,-1.1,0.1
0.84,-1.15,0.1
0.79,-1.2,0.1
0.74,-1.24,0.1
0.69,-1.28,0.1
0.65,-1.34,0.1
0.63,-1.41,0.08
0.6,-1.49,0.06
0.56,-1.58,0.04
0.53,-1.67,0.04
0.48,-1.78,0.05
0.47,-1.79,0.05
0.47,-1.76,0.06
0.47,-1.74,0.05
0.46,-1.74,0.04
0.44,-1.75,0.04
0.42,-1.77,0.05
0.42,-1.81,0.03
0.41,-1.84,0
0.36,-1.87,-0.01
0.32,-1.88,-0.01
0.28,-1.85,-0.02
0.27,-1.8,-0.03
0.28,-1.76,-0.03
0.28,-1.72,-0.03
0.27,-1.67,-0.04
0.25,-1.62,-0.03
0.22,-1.56,-0.04
0.17,-1.48,-0.04
0.13,-1.39,-0.04
0.12,-1.3,-0.04
0.12,-1.23,-0.04
0.12,-1.15,-0.05
0.12,-1.1,-0.08
0.15,-1.06,-0.07
0.18,-1.02,-0.08
0.11,-0.96,-0.07
0.08,-0.94,-0.07
0.04,-0.9,-0.1
0,-0.86,-0.1
-0.01,-0.8,-0.1
-0.01,-0.75,-0.1
-0.01,-0.72,-0.09
-0.02,-0.7,-0.09
-0.05,-0.66,-0.09
-0.07,-0.63,-0.09
-0.09,-0.6,-0.1
-0.1,-0.57,-0.1
-0.1,-0.54,-0.09
-0.09,-0.51,-0.09
-0.08,-0.48,-0.09
-0.06,-0.46,-0.09
-0.04,-0.45,-0.09
-0.02,-0.46,-0.09
-0.01,-0.48,-0.1
0.01,-0.51,-0.11
0.02,-0.54,-0.11
0.04,-0.57,-0.1
0.07,-0.6,-0.1
0.1,-0.64,-0.11
0.13,-0.69,-0.11
0.16,-0.75,-0.11
0.22,-0.94,-0.12
0.22,-1.04,-0.11
0.23,-1.15,-0.11
0.23,-1.28,-0.08
0.22,-1.41,-0.07
0.24,-1.54,-0.04
0.25,-1.73,-0.03
0.25,-1.91,-0.03
0.26,-2.08,0.01
0.28,-2.21,0.01
0.28,-2.26,0.02
0.27,-2.26,0.02
0.3,-2.22,0.02
0.35,-2.13,0.02
0.38,-2,0.06
0.33,-1.92,0.1
0.38,-1.86,0.11
0.52,-1.74,0.08
0.56,-1.65,0.04
0.58,-1.65,0.03
0.55,-1.68,0.06
0.53,-1.75,0.1
0.56,-1.84,0.1
0.6,-1.88,0.1
0.59,-1.89,0.1
0.55,-1.83,0.17
0.54,-1.59,0.2
0.57,-1.46,0.19
0.58,-1.3,0.19
0.61,-1.17,0.2
0.65,-1.08,0.21
0.72,-1.02,0.17
0.77,-0.96,0.14
0.78,-0.91,0.15
0.78,-0.85,0.14
0.78,-0.81,0.13
0.77,-0.81,0.12
0.73,-0.81,0.13
0.73,-0.81,0.14
0.84,-0.79,0.09
0.89,-0.79,0.07
0.85,-0.86,0.08
0.86,-0.91,0.07
0.88,-0.93,0.06
0.87,-0.95,0.06
0.85,-0.98,0.06
0.84,-1.02,0.07
0.82,-1.06,0.07
0.81,-1.1,0.08
0.79,-1.14,0.08
0.76,-1.19,0.08
0.73,-1.24,0.06
0.69,-1.37,0.06
0.63,-1.46,0.05
0.59,-1.56,0.04
0.55,-1.66,0.03
0.52,-1.76,0.05
0.49,-1.82,0.05
0.45,-1.83,0.05
0.43,-1.79,0.04
0.4,-1.75,0.04
0.39,-1.73,0.01
0.37,-1.74,-0.02
0.34,-1.8,-0.03
0.35,-1.87,-0.02
0.33,-1.96,0.02
0.3,-2.02,0.02
0.31,-2.01,0.02
0.3,-1.97,0.02
0.28,-1.92,-0.01
0.26,-1.84,-0.03
0.24,-1.78,-0.03
0.2,-1.74,-0.03
0.19,-1.68,-0.04
0.17,-1.59,-0.05
0.17,-1.51,-0.06
0.18,-1.43,-0.06
0.18,-1.35,-0.06
0.16,-1.25,-0.06
0.16,-1.21,-0.09
0.16,-1.16,-0.11
0.15,-1.08,-0.09
0.15,-1.01,-0.12
0.16,-0.94,-0.14
0.17,-0.86,-0.14
0.15,-0.83,-0.13
0.14,-0.79,-0.12
0.13,-0.76,-0.13
0.09,-0.73,-0.13
0.04,-0.71,-0.12
0.01,-0.71,-0.13
-0.02,-0.72,-0.12
-0.05,-0.73,-0.11
-0.08,-0.73,-0.11
-0.09,-0.73,-0.1
-0.1,-0.72,-0.09
-0.1,-0.7,-0.09
-0.09,-0.66,-0.07
-0.07,-0.63,-0.06
-0.05,-0.6,-0.07
-0.03,-0.59,-0.07
-0.01,-0.57,-0.06
0.02,-0.56,-0.06
0.05,-0.56,-0.06
0.08,-0.59,-0.05
0.14,-0.62,-0.04
0.17,-0.65,-0.04
0.2,-0.69,-0.04
0.21,-0.75,-0.03
0.23,-0.81,-0.03
0.23,-0.9,-0.02
0.23,-1,-0.02
0.24,-1.11,-0.01
0.26,-1.21,-0.01
0.24,-1.34,0.01
0.22,-1.46,0.02
0.27,-1.54,0.03
0.29,-1.63,0.06
0.3,-1.76,0.08
0.33,-1.92,0.07
0.36,-2.04,0.05
0.4,-2.12,0.06
0.43,-2.19,0.1
0.45,-2.25,0.11
0.53,-2.25,0.11
0.5,-2.24,0.08
0.5,-2.23,0.08
0.68,-2.09,0.09
0.77,-1.97,0.09
0.84,-1.9,0.14
0.91,-1.79,0.16
0.96,-1.6,0.15
0.93,-1.49,0.17
0.9,-1.38,0.21
0.86,-1.29,0.23
0.77,-1.21,0.28
0.74,-1.16,0.31
0.76,-1.11,0.3
0.78,-1.04,0.29
0.8,-0.99,0.31
0.82,-1,0.3
0.85,-0.98,0.29
0.87,-0.94,0.28
0.9,-0.89,0.28
0.92,-0.87,0.28
0.93,-0.87,0.27
0.94,-0.89,0.25
0.95,-0.91,0.23
0.94,-0.94,0.22
0.92,-1,0.2
0.88,-1.06,0.2
0.82,-1.1,0.19
0.77,-1.15,0.18
0.73,-1.19,0.17
0.69,-1.23,0.16
0.65,-1.26,0.15
0.62,-1.29,0.13
0.56,-1.35,0.11
0.53,-1.39,0.09
0.5,-1.43,0.08
0.47,-1.49,0.06
0.46,-1.56,0.04
0.42,-1.63,0.03
0.39,-1.66,0.01
0.36,-1.67,0.02
0.3,-1.65,0.03
0.37,-1.61,-0.05
0.49,-1.61,-0.19
0.43,-1.63,-0.22
0.37,-1.65,-0.21
0.35,-1.68,-0.21
0.29,-1.67,-0.21
0.25,-1.61,-0.21
0.22,-1.55,-0.19
0.2,-1.5,-0.18
0.22,-1.45,-0.19
0.25,-1.41,-0.16
0.27,-1.39,-0.13
0.27,-1.41,-0.13
0.26,-1.41,-0.15
0.25,-1.36,-0.15
0.24,-1.31,-0.12
0.22,-1.26,-0.08
0.16,-1.13,-0.08
0.14,-1.05,-0.07
0.13,-0.98,-0.06
0.12,-0.92,-0.05
0.12,-0.85,-0.05
0.11,-0.79,-0.05
0.1,-0.73,-0.04
0.09,-0.68,-0.04
0.09,-0.63,-0.04
0.08,-0.59,-0.03
0.05,-0.56,-0.02
0,-0.53,-0.02
-0.04,-0.49,-0.02
-0.08,-0.48,-0.02
-0.13,-0.47,-0.01
-0.14,-0.48,0
-0.13,-0.51,0
-0.12,-0.56,-0.01
-0.11,-0.61,-0.01
-0.11,-0.68,0
-0.1,-0.74,-0.01
-0.08,-0.78,-0.01
-0.06,-0.83,-0.01
-0.03,-0.87,-0.01
0,-0.91,-0.01
0.04,-0.96,-0.03
0.09,-1.06,-0.03
0.11,-1.13,-0.03
0.16,-1.22,-0.04
0.18,-1.34,-0.06
0.2,-1.47,-0.06
0.22,-1.6,-0.08
0.23,-1.74,-0.08
0.22,-1.85,-0.09
0.23,-1.92,-0.12
0.26,-1.95,-0.12
0.3,-1.96,-0.11
0.36,-1.94,-0.1
0.42,-1.91,-0.08
0.47,-1.88,-0.06
0.54,-1.85,-0.07
0.6,-1.77,-0.06
0.59,-1.73,-0.09
0.6,-1.66,-0.14
0.6,-1.57,-0.11
0.55,-1.51,-0.08
0.55,-1.48,-0.02
0.54,-1.49,0.04
0.53,-1.49,0.07
0.51,-1.48,0.08
0.52,-1.43,0.07
0.53,-1.38,0.18
0.62,-1.27,0.21
0.7,-1.22,0.2
0.76,-1.17,0.18
0.8,-1.12,0.17
0.79,-1.05,0.17
0.77,-0.98,0.18
0.74,-0.92,0.2
0.71,-0.88,0.23
0.73,-0.85,0.26
0.76,-0.84,0.26
0.79,-0.86,0.25
0.85,-0.88,0.24
0.92,-0.89,0.23
0.98,-0.9,0.21
1,-0.91,0.18
1.01,-0.94,0.16
1,-0.99,0.16
0.96,-1.07,0.17
0.91,-1.12,0.17
0.87,-1.18,0.16
0.84,-1.23,0.16
0.82,-1.3,0.15
0.79,-1.36,0.15
0.75,-1.41,0.16
0.73,-1.45,0.17
0.7,-1.51,0.16
0.68,-1.55,0.14
0.64,-1.59,0.17
0.61,-1.64,0.16
0.59,-1.7,0.15
0.57,-1.76,0.13
0.55,-1.81,0.12
0.52,-1.79,0.11
0.49,-1.71,0.11
0.48,-1.64,0.1
0.48,-1.58,0.09
0.48,-1.55,0.08
0.45,-1.58,0.05
0.42,-1.64,0.01
0.38,-1.68,-0.01
0.35,-1.71,0
0.33,-1.71,0.01
0.32,-1.67,0
0.31,-1.64,0
0.28,-1.59,-0.01
0.26,-1.52,-0.01
0.24,-1.44,-0.03
0.23,-1.38,-0.05
0.21,-1.31,-0.06
0.19,-1.25,-0.06
0.15,-1.15,-0.08
0.15,-1.09,-0.11
0.17,-0.95,-0.1
0.14,-0.91,-0.1
0.14,-0.86,-0.1
0.15,-0.77,-0.11
0.13,-0.71,-0.12
0.12,-0.67,-0.11
0.12,-0.63,-0.11
0.11,-0.58,-0.12
0.1,-0.54,-0.13
0.08,-0.52,-0.12
0.06,-0.5,-0.12
0.05,-0.49,-0.1
0.06,-0.48,-0.09
0.06,-0.48,-0.09
0.06,-0.49,-0.09
0.06,-0.49,-0.09
0.06,-0.5,-0.08
0.07,-0.51,-0.08
0.06,-0.52,-0.08
0.06,-0.52,-0.07
0.07,-0.53,-0.06
0.08,-0.54,-0.06
0.09,-0.57,-0.06
0.1,-0.6,-0.06
0.11,-0.63,-0.06
0.13,-0.66,-0.06
0.15,-0.74,-0.04
0.2,-0.77,-0.04
0.22,-0.81,-0.04
0.23,-0.88,-0.03
0.24,-0.96,-0.03
0.25,-1.01,-0.04
0.25,-1.09,-0.02
0.26,-1.19,-0.01
0.28,-1.3,-0.01
0.29,-1.43,0.02
0.31,-1.56,0.03
0.3,-1.7,0.03
0.31,-1.84,0.05
0.33,-1.98,0.06
0.34,-2.08,0.06
0.36,-2.15,0.06
0.39,-2.18,0.07
0.41,-2.13,0.08
0.44,-2.03,0.09
0.47,-1.92,0.12
0.46,-1.82,0.17
0.5,-1.74,0.16
0.56,-1.65,0.18
0.6,-1.61,0.22
0.69,-1.63,0.2
0.67,-1.64,0.21
0.64,-1.66,0.24
0.71,-1.65,0.24
0.71,-1.61,0.23
0.64,-1.53,0.25
0.62,-1.43,0.29
0.64,-1.35,0.3
0.67,-1.28,0.29
0.68,-1.19,0.29
0.66,-1.1,0.28
0.65,-1.04,0.28
0.64,-0.99,0.27
0.64,-0.95,0.26
0.7,-0.92,0.25
0.74,-0.9,0.25
0.74,-0.9,0.26
0.77,-0.9,0.27
0.81,-0.92,0.26
0.84,-0.94,0.25
0.87,-0.98,0.24
0.89,-1,0.21
0.9,-1.03,0.18
0.91,-1.04,0.16
0.89,-1.06,0.16
0.85,-1.09,0.16
0.83,-1.12,0.17
0.81,-1.16,0.17
0.79,-1.19,0.17
0.73,-1.25,0.17
0.71,-1.27,0.15
0.7,-1.32,0.13
0.68,-1.39,0.12
0.65,-1.46,0.12
0.63,-1.55,0.11
0.61,-1.65,0.11
0.59,-1.73,0.1
0.58,-1.78,0.08
0.53,-1.81,0.07
0.5,-1.82,0.07
0.48,-1.8,0.06
0.5,-1.75,0.04
0.52,-1.68,0.04
0.47,-1.63,0.04
0.47,-1.61,0.01
0.49,-1.59,-0.04
0.45,-1.62,-0.05
0.42,-1.66,-0.07
0.38,-1.67,-0.08
0.37,-1.66,-0.08
0.36,-1.64,-0.09
0.33,-1.61,-0.11
0.31,-1.54,-0.12
0.29,-1.46,-0.11
0.27,-1.29,-0.12
0.26,-1.22,-0.12
0.25,-1.17,-0.11
0.23,-1.14,-0.12
0.24,-1.12,-0.12
0.23,-1.11,-0.12
0.2,-1.1,-0.12
0.19,-1.07,-0.11
0.17,-1.02,-0.1
0.15,-0.97,-0.11
0.11,-0.91,-0.11
0.1,-0.84,-0.09
0.08,-0.8,-0.11
0.05,-0.74,-0.13
0.04,-0.69,-0.13
0.02,-0.66,-0.13
0.01,-0.62,-0.13
0.01,-0.58,-0.12
-0.01,-0.56,-0.12
-0.04,-0.53,-0.13
-0.06,-0.51,-0.13
-0.07,-0.49,-0.13
-0.08,-0.48,-0.13
-0.08,-0.47,-0.13
-0.07,-0.47,-0.12
-0.04,-0.48,-0.12
-0.01,-0.5,-0.11
0.06,-0.56,-0.11
0.09,-0.61,-0.1
0.13,-0.66,-0.1
0.16,-0.73,-0.09
0.18,-0.79,-0.08
0.21,-0.85,-0.06
0.23,-0.91,-0.05
0.24,-0.97,-0.06
0.23,-1.03,-0.05
0.22,-1.11,-0.03
0.23,-1.16,-0.02
0.24,-1.25,0.01
0.26,-1.36,0.02
0.29,-1.46,0.05
0.29,-1.58,0.07
0.31,-1.71,0.08
0.34,-1.83,0.1
0.38,-1.93,0.13
0.45,-2.01,0.16
0.5,-2.07,0.18
0.58,-2.11,0.15
0.65,-2.14,0.12
0.64,-2.13,0.13
0.61,-2.09,0.14
0.66,-2.09,0.3
0.48,-2.01,0.65
1,-1.86,-0.01
1.17,-1.67,0.06
0.8,-1.46,0.3
0.66,-1.48,0.31
0.77,-1.43,0.26
0.77,-1.32,0.23
0.64,-1.29,0.28
0.56,-1.24,0.32
0.58,-1.19,0.28
0.56,-1.17,0.29
0.59,-1.13,0.29
0.63,-1.08,0.29
0.62,-1.06,0.3
0.6,-1.02,0.32
0.6,-0.96,0.36
0.63,-0.91,0.4
0.66,-0.9,0.39
0.67,-0.92,0.39
0.68,-0.93,0.39
0.7,-0.93,0.39
0.69,-0.94,0.38
0.7,-0.95,0.37
0.71,-0.95,0.35
0.67,-0.95,0.32
0.63,-0.98,0.29
0.62,-1,0.26
0.6,-1.05,0.21
0.57,-1.07,0.18
0.54,-1.11,0.17
0.52,-1.14,0.14
0.5,-1.18,0.12
0.48,-1.2,0.1
0.45,-1.23,0.08
0.42,-1.25,0.07
0.39,-1.28,0.05
0.38,-1.31,0.04
0.37,-1.34,0.02
0.35,-1.37,0.01
0.34,-1.4,0
0.34,-1.42,-0.04
0.34,-1.41,-0.06
0.35,-1.39,-0.05
0.37,-1.33,-0.06
0.37,-1.26,-0.08
0.35,-1.21,-0.07
0.35,-1.21,-0.07
0.36,-1.23,-0.1
0.36,-1.27,-0.12
0.34,-1.29,-0.13
0.32,-1.32,-0.14
0.31,-1.33,-0.12
0.31,-1.33,-0.12
0.3,-1.33,-0.16
0.28,-1.31,-0.16
0.28,-1.28,-0.15
0.27,-1.24,-0.15
0.27,-1.19,-0.16
0.27,-1.14,-0.15
0.26,-1.09,-0.15
0.26,-1.04,-0.15
0.27,-0.99,-0.15
0.26,-0.94,-0.16
0.26,-0.89,-0.16
0.26,-0.84,-0.16
0.27,-0.8,-0.17
0.27,-0.76,-0.17
0.26,-0.74,-0.17
0.25,-0.72,-0.18
0.25,-0.7,-0.18
0.24,-0.68,-0.18
0.23,-0.68,-0.19
0.22,-0.68,-0.18
0.21,-0.69,-0.17
0.2,-0.71,-0.17
0.2,-0.72,-0.16
0.2,-0.73,-0.16
0.2,-0.74,-0.15
0.2,-0.74,-0.15
0.21,-0.74,-0.13
0.23,-0.74,-0.13
0.25,-0.74,-0.12
0.26,-0.76,-0.12
0.26,-0.78,-0.11
0.28,-0.81,-0.08
0.3,-0.85,-0.04
0.31,-0.9,-0.02
0.34,-0.9,-0.03
0.33,-0.93,0.01
0.32,-0.99,0.03
0.31,-1.05,0.04
0.3,-1.11,0.05
0.3,-1.14,0.07
0.29,-1.19,0.09
0.32,-1.16,0.1
0.35,-1.1,0.12
0.39,-1.02,0.16
0.44,-0.95,0.2
0.48,-0.88,0.24
0.51,-0.84,0.27
0.53,-0.84,0.27
0.53,-0.88,0.29
0.48,-0.96,0.33
0.44,-1.04,0.35
0.45,-1.12,0.37
0.44,-1.2,0.43
0.35,-1.32,0.45
0.39,-1.37,0.45
0.41,-1.39,0.45
0.43,-1.36,0.46
0.47,-1.31,0.46
0.51,-1.27,0.46
0.54,-1.23,0.46
0.56,-1.17,0.45
0.54,-1.12,0.44
0.5,-1.07,0.43
0.49,-1.03,0.42
0.48,-1,0.4
0.46,-0.98,0.4
0.45,-0.97,0.4
0.44,-0.96,0.39
0.43,-0.95,0.37
0.41,-0.92,0.36
0.39,-0.9,0.36
0.39,-0.88,0.35
0.38,-0.86,0.33
0.38,-0.84,0.32
0.37,-0.84,0.32
0.37,-0.84,0.31
0.38,-0.85,0.31
0.39,-0.86,0.31
0.39,-0.84,0.3
0.35,-0.83,0.3
0.34,-0.84,0.3
0.32,-0.84,0.3
0.31,-0.85,0.29
0.3,-0.84,0.29
0.3,-0.82,0.28
0.3,-0.81,0.27
0.31,-0.8,0.27
0.32,-0.8,0.27
0.32,-0.79,0.26
0.33,-0.78,0.27
0.33,-0.76,0.26
0.33,-0.73,0.26
0.34,-0.7,0.25
0.34,-0.68,0.26
0.34,-0.67,0.26
0.34,-0.66,0.25
0.35,-0.65,0.24
0.36,-0.67,0.23
0.35,-0.69,0.23
0.35,-0.73,0.23
0.36,-0.77,0.23
0.35,-0.82,0.23
0.35,-0.87,0.22
0.35,-0.9,0.2
0.35,-0.93,0.17
0.36,-0.94,0.16
0.36,-0.93,0.16
0.38,-0.93,0.15
0.4,-0.92,0.15
0.42,-0.9,0.16
0.44,-0.9,0.15
0.45,-0.91,0.14
0.44,-0.94,0.12
0.42,-0.97,0.11
0.41,-1,0.1
0.39,-1.06,0.09
0.35,-1.11,0.08
0.33,-1.14,0.06
0.31,-1.14,0.04
0.28,-1.13,0.02
0.26,-1.11,0.02
0.25,-1.07,0.01
0.25,-1.02,-0.01
0.26,-0.96,-0.03
0.27,-0.93,-0.03
0.28,-0.91,-0.03
0.29,-0.92,-0.04
0.28,-0.93,-0.05
0.27,-0.92,-0.06
0.27,-0.9,-0.08
0.26,-0.89,-0.09
0.27,-0.86,-0.08
0.29,-0.87,-0.07
0.32,-0.9,-0.07
0.34,-0.9,-0.05
0.36,-0.89,-0.04
0.39,-0.85,-0.02
0.4,-0.83,0.01
0.41,-0.8,0.05
0.41,-0.79,0.07
0.39,-0.79,0.07
0.4,-0.79,0.07
0.43,-0.8,0.06
0.47,-0.83,0.06
0.5,-0.87,0.07
0.54,-0.9,0.1
0.56,-0.9,0.14
0.56,-0.89,0.18
0.52,-0.88,0.21
0.48,-0.88,0.24
