Acc_x,Acc_y,Acc_z
0,0,0
0.19,0.59,0.31
0.33,0.6,0.33
0.41,0.64,0.44
0.27,0.67,0.47
0.26,0.66,0.47
0.38,0.68,0.54
0.48,0.66,0.54
0.53,0.63,0.51
0.59,0.65,0.52
0.74,0.66,0.5
0.95,0.71,0.45
0.97,0.67,0.58
0.98,0.64,0.69
1.02,0.65,0.73
1,0.63,0.76
1.01,0.61,0.76
1.11,0.64,0.69
1.1,0.64,0.71
0.98,0.62,0.73
0.98,0.63,0.7
1.09,0.64,0.64
1,0.64,0.63
0.84,0.66,0.64
0.81,0.67,0.67
0.82,0.63,0.7
0.81,0.6,0.67
0.77,0.6,0.67
0.78,0.61,0.64
0.78,0.59,0.63
0.8,0.59,0.63
0.85,0.58,0.61
0.8,0.57,0.61
0.75,0.56,0.62
0.74,0.56,0.6
0.7,0.56,0.6
0.72,0.56,0.62
0.74,0.55,0.64
0.73,0.54,0.61
0.77,0.54,0.6
0.75,0.54,0.62
0.79,0.52,0.6
0.76,0.5,0.61
0.75,0.52,0.62
0.75,0.51,0.64
0.72,0.51,0.67
0.73,0.5,0.66
0.75,0.49,0.65
0.79,0.49,0.64
0.8,0.48,0.62
0.81,0.48,0.6
0.8,0.48,0.59
0.79,0.47,0.59
0.77,0.47,0.58
0.76,0.46,0.59
0.75,0.44,0.59
0.74,0.43,0.59
0.72,0.41,0.59
0.7,0.4,0.59
0.71,0.38,0.59
0.71,0.37,0.6
0.71,0.36,0.6
0.71,0.34,0.6
0.72,0.33,0.58
0.73,0.31,0.57
0.74,0.3,0.59
0.74,0.29,0.59
0.73,0.29,0.6
0.73,0.28,0.6
0.73,0.27,0.61
0.73,0.27,0.61
0.74,0.26,0.61
0.75,0.26,0.62
0.76,0.25,0.61
0.77,0.24,0.62
0.78,0.23,0.63
0.78,0.22,0.65
0.78,0.22,0.67
0.77,0.22,0.69
0.77,0.21,0.69
0.78,0.22,0.69
0.79,0.23,0.69
0.76,0.23,0.67
0.69,0.22,0.69
0.69,0.22,0.72
0.71,0.21,0.72
0.71,0.22,0.72
0.71,0.22,0.72
0.71,0.22,0.72
0.71,0.23,0.71
0.7,0.24,0.7
0.72,0.25,0.7
0.73,0.26,0.69
0.71,0.26,0.69
0.7,0.26,0.7
0.7,0.26,0.7
0.7,0.27,0.7
0.7,0.27,0.69
0.7,0.28,0.68
0.71,0.28,0.68
0.72,0.28,0.67
0.72,0.27,0.67
0.72,0.27,0.67
0.71,0.27,0.68
0.72,0.26,0.68
0.72,0.26,0.68
0.72,0.25,0.68
0.71,0.25,0.68
0.71,0.24,0.68
0.71,0.24,0.67
0.7,0.24,0.66
0.71,0.24,0.66
0.71,0.23,0.67
0.71,0.23,0.68
0.71,0.24,0.68
0.71,0.24,0.68
0.71,0.24,0.69
0.71,0.25,0.69
0.7,0.24,0.68
0.7,0.24,0.68
0.7,0.24,0.68
0.7,0.24,0.69
0.69,0.24,0.68
0.69,0.25,0.68
0.69,0.25,0.68
0.7,0.25,0.68
0.69,0.25,0.69
0.69,0.25,0.69
0.69,0.25,0.69
0.69,0.25,0.69
0.69,0.25,0.68
0.69,0.25,0.68
0.69,0.25,0.68
0.7,0.25,0.68
0.7,0.25,0.69
0.7,0.24,0.69
0.7,0.24,0.69
0.71,0.24,0.69
0.7,0.24,0.7
0.7,0.24,0.7
0.7,0.23,0.7
0.7,0.23,0.71
0.7,0.23,0.73
0.71,0.22,0.73
0.7,0.21,0.72
0.68,0.22,0.71
0.67,0.23,0.7
0.68,0.24,0.7
0.69,0.24,0.71
0.69,0.24,0.72
0.69,0.23,0.72
0.69,0.23,0.73
0.68,0.21,0.74
0.68,0.2,0.75
0.67,0.19,0.75
0.66,0.18,0.74
0.66,0.18,0.74
0.67,0.18,0.72
0.67,0.18,0.71
0.67,0.18,0.71
0.67,0.19,0.71
0.67,0.2,0.7
0.67,0.21,0.7
0.68,0.22,0.7
0.68,0.23,0.71
0.69,0.23,0.71
0.7,0.23,0.72
0.69,0.23,0.71
0.68,0.22,0.71
0.68,0.2,0.71
0.67,0.2,0.71
0.66,0.2,0.71
0.66,0.2,0.72
0.66,0.2,0.72
0.66,0.2,0.73
0.66,0.19,0.73
0.66,0.19,0.73
0.67,0.19,0.74
0.68,0.19,0.73
0.68,0.19,0.73
0.67,0.2,0.72
0.67,0.2,0.72
0.67,0.2,0.72
0.67,0.2,0.73
0.66,0.2,0.73
0.66,0.2,0.73
0.66,0.2,0.74
0.66,0.2,0.74
0.66,0.2,0.74
0.66,0.2,0.74
0.66,0.2,0.75
0.66,0.2,0.75
0.66,0.2,0.75
0.66,0.2,0.75
0.65,0.2,0.74
0.66,0.2,0.74
0.66,0.2,0.74
0.66,0.2,0.74
0.66,0.2,0.74
0.66,0.2,0.74
0.66,0.2,0.74
0.66,0.19,0.75
0.66,0.19,0.75
0.66,0.19,0.75
0.66,0.19,0.76
0.67,0.2,0.77
0.7,0.2,0.79
0.74,0.19,0.8
0.77,0.19,0.82
0.74,0.19,0.83
0.68,0.21,0.89
0.72,0.22,0.98
0.84,0.2,1.03
0.95,0.2,1.06
1.01,0.24,1.11
1.02,0.29,1.13
1.06,0.38,1.09
1.06,0.45,1.08
0.98,0.51,1.12
0.96,0.56,1.18
0.94,0.57,1.23
0.83,0.65,1.29
0.77,0.67,1.29
0.71,0.68,1.28
0.64,0.69,1.23
0.57,0.7,1.17
0.5,0.71,1.11
0.46,0.71,1.08
0.42,0.7,1.08
0.39,0.68,1.06
0.37,0.67,1.03
0.36,0.66,1
0.34,0.66,0.97
0.33,0.67,0.94
0.33,0.69,0.9
0.31,0.7,0.87
0.28,0.69,0.87
0.24,0.66,0.89
0.18,0.65,0.88
0.13,0.65,0.85
0.11,0.65,0.8
0.09,0.64,0.76
0.06,0.63,0.74
0.04,0.61,0.73
0.02,0.61,0.72
-0.01,0.6,0.72
-0.06,0.59,0.72
-0.1,0.52,0.68
-0.16,0.49,0.67
-0.21,0.46,0.68
-0.25,0.43,0.7
-0.29,0.4,0.68
-0.31,0.38,0.66
-0.3,0.39,0.64
-0.33,0.37,0.64
-0.37,0.31,0.62
-0.41,0.29,0.61
-0.48,0.28,0.6
-0.58,0.24,0.6
-0.66,0.22,0.61
-0.69,0.21,0.62
-0.7,0.2,0.62
-0.72,0.2,0.61
-0.73,0.2,0.59
-0.76,0.21,0.57
-0.79,0.21,0.53
-0.78,0.16,0.46
-0.78,0.14,0.42
-0.81,0.17,0.42
-0.84,0.16,0.42
-0.87,0.18,0.5
-0.85,0.17,0.48
-0.81,0.13,0.37
-0.79,0.18,0.32
-0.76,0.19,0.32
-0.7,0.2,0.31
-0.66,0.22,0.31
-0.63,0.23,0.31
-0.62,0.24,0.3
-0.64,0.25,0.28
-0.62,0.27,0.26
-0.59,0.3,0.25
-0.56,0.33,0.25
-0.53,0.36,0.26
-0.51,0.4,0.26
-0.48,0.43,0.27
-0.43,0.46,0.28
-0.39,0.47,0.28
-0.39,0.48,0.26
-0.37,0.5,0.28
-0.31,0.53,0.3
-0.25,0.55,0.31
-0.22,0.56,0.33
-0.18,0.55,0.32
-0.13,0.56,0.31
-0.08,0.57,0.29
-0.04,0.6,0.27
-0.01,0.63,0.25
0.02,0.66,0.24
0.04,0.68,0.22
0.09,0.72,0.2
0.1,0.73,0.16
0.13,0.75,0.12
0.16,0.77,0.09
0.18,0.77,0.08
0.19,0.78,0.08
0.23,0.8,0.06
0.27,0.8,0.03
0.29,0.82,0.01
0.3,0.83,-0.01
0.32,0.83,-0.03
0.34,0.82,-0.06
0.36,0.81,-0.09
0.39,0.8,-0.11
0.42,0.79,-0.14
0.47,0.8,-0.16
0.51,0.81,-0.18
0.56,0.81,-0.2
0.62,0.81,-0.24
0.67,0.81,-0.28
0.72,0.81,-0.31
0.77,0.82,-0.32
0.81,0.83,-0.32
0.86,0.84,-0.33
0.9,0.85,-0.33
0.94,0.87,-0.35
0.99,0.9,-0.36
1.01,0.92,-0.36
1.02,0.93,-0.35
1.04,0.94,-0.35
1.04,0.95,-0.35
1.03,0.95,-0.34
1.02,0.95,-0.32
1.01,0.94,-0.3
1,0.91,-0.27
0.98,0.9,-0.25
0.96,0.91,-0.23
0.94,0.9,-0.2
0.91,0.89,-0.17
0.88,0.88,-0.14
0.83,0.87,-0.11
0.79,0.85,-0.08
0.75,0.83,-0.05
0.71,0.82,-0.03
0.68,0.81,0
0.62,0.82,0.02
0.58,0.83,0.04
0.54,0.82,0.07
0.49,0.81,0.09
0.44,0.8,0.11
0.39,0.79,0.13
0.33,0.77,0.16
0.25,0.76,0.16
0.19,0.77,0.19
0.12,0.77,0.21
0.1,0.76,0.2
0.12,0.74,0.21
0.09,0.72,0.24
0,0.69,0.23
-0.1,0.68,0.2
-0.15,0.68,0.19
-0.11,0.66,0.19
-0.12,0.67,0.18
-0.25,0.68,0.13
-0.33,0.66,0.09
-0.33,0.66,0.11
-0.4,0.65,0.1
-0.42,0.63,0.08
-0.44,0.63,0.09
-0.5,0.62,0.11
-0.49,0.6,0.09
-0.54,0.58,0.08
-0.55,0.54,0.07
-0.56,0.53,0.07
-0.63,0.5,0.09
-0.67,0.47,0.1
-0.7,0.47,0.12
-0.74,0.45,0.13
-0.76,0.41,0.14
-0.8,0.38,0.16
-0.85,0.36,0.17
-0.92,0.34,0.19
-0.95,0.34,0.19
-0.92,0.34,0.16
-0.94,0.32,0.16
-1,0.3,0.2
-1.05,0.28,0.23
-1.09,0.28,0.27
-1.14,0.27,0.29
-1.18,0.27,0.29
-1.2,0.26,0.31
-1.21,0.25,0.33
-1.21,0.24,0.33
-1.22,0.24,0.32
-1.24,0.23,0.31
-1.26,0.23,0.32
-1.28,0.22,0.35
-1.3,0.21,0.38
-1.33,0.21,0.41
-1.36,0.21,0.43
-1.37,0.21,0.44
-1.39,0.21,0.46
-1.42,0.21,0.47
-1.43,0.22,0.47
-1.38,0.21,0.45
-1.36,0.22,0.45
-1.33,0.23,0.46
-1.31,0.24,0.47
-1.28,0.25,0.47
-1.21,0.26,0.45
-1.17,0.27,0.45
-1.16,0.26,0.41
-1.11,0.29,0.36
-1.09,0.31,0.4
-1.03,0.31,0.4
-0.95,0.34,0.39
-0.88,0.35,0.4
-0.82,0.36,0.38
-0.81,0.37,0.34
-0.78,0.38,0.29
-0.73,0.41,0.26
-0.68,0.43,0.25
-0.66,0.46,0.27
-0.62,0.47,0.28
-0.61,0.49,0.27
-0.58,0.51,0.25
-0.54,0.54,0.22
-0.49,0.56,0.21
-0.47,0.56,0.18
-0.44,0.57,0.16
-0.4,0.61,0.13
-0.35,0.63,0.11
-0.31,0.66,0.12
-0.28,0.69,0.15
-0.26,0.71,0.15
-0.23,0.72,0.12
-0.2,0.72,0.09
-0.17,0.72,0.06
-0.13,0.72,0.04
-0.09,0.73,0.02
-0.05,0.75,0.01
-0.03,0.77,0.02
0.01,0.77,0.05
0.05,0.75,0.07
0.09,0.74,0.06
0.12,0.75,0.02
0.14,0.76,0
0.17,0.77,-0.01
0.2,0.78,-0.03
0.23,0.8,-0.05
0.26,0.81,-0.06
0.28,0.81,-0.06
0.3,0.8,-0.08
0.33,0.81,-0.11
0.35,0.82,-0.1
0.38,0.83,-0.09
0.42,0.86,-0.14
0.46,0.86,-0.18
0.47,0.87,-0.2
0.5,0.87,-0.23
0.55,0.87,-0.26
0.61,0.87,-0.28
0.66,0.88,-0.29
0.69,0.88,-0.28
0.73,0.88,-0.28
0.77,0.86,-0.28
0.81,0.85,-0.28
0.9,0.8,-0.3
0.9,0.83,-0.3
0.87,0.89,-0.29
0.94,0.87,-0.32
0.99,0.9,-0.34
1.01,0.92,-0.34
1.01,0.94,-0.32
0.99,0.95,-0.3
0.98,0.95,-0.28
0.96,0.94,-0.26
0.95,0.93,-0.24
0.93,0.92,-0.22
0.93,0.91,-0.22
0.93,0.92,-0.21
0.92,0.92,-0.2
0.89,0.91,-0.17
0.8,0.9,-0.13
0.76,0.88,-0.09
0.73,0.85,-0.05
0.7,0.83,-0.03
0.66,0.82,-0.03
0.64,0.81,-0.02
0.62,0.81,0
0.56,0.81,0.02
0.51,0.81,0.04
0.47,0.79,0.05
0.43,0.77,0.07
0.37,0.77,0.1
0.32,0.75,0.09
0.27,0.74,0.1
0.24,0.74,0.12
0.26,0.74,0.1
0.21,0.74,0.1
0.17,0.74,0.14
0.12,0.75,0.13
0,0.74,0.13
-0.07,0.71,0.14
-0.05,0.71,0.13
-0.07,0.69,0.11
-0.18,0.69,0.1
-0.24,0.69,0.12
-0.26,0.67,0.09
-0.34,0.69,0.11
-0.4,0.66,0.11
-0.41,0.65,0.1
-0.42,0.64,0.08
-0.44,0.61,0.09
-0.5,0.56,0.11
-0.47,0.53,0.11
-0.47,0.52,0.12
-0.57,0.49,0.13
-0.64,0.49,0.13
-0.68,0.5,0.13
-0.7,0.48,0.14
-0.72,0.47,0.15
-0.78,0.46,0.14
-0.83,0.42,0.13
-0.9,0.42,0.15
-0.99,0.42,0.17
-1.02,0.41,0.18
-1.03,0.39,0.18
-1.05,0.38,0.2
-1.09,0.37,0.2
-1.16,0.37,0.21
-1.24,0.37,0.21
-1.28,0.36,0.21
-1.3,0.35,0.21
-1.32,0.33,0.26
-1.38,0.31,0.28
-1.4,0.31,0.3
-1.42,0.32,0.31
-1.43,0.32,0.31
-1.42,0.32,0.31
-1.4,0.32,0.31
-1.38,0.32,0.31
-1.35,0.33,0.32
-1.34,0.33,0.33
-1.3,0.33,0.33
-1.25,0.35,0.33
-1.22,0.36,0.32
-1.18,0.37,0.32
-1.16,0.4,0.33
-1.13,0.39,0.31
-1.07,0.4,0.28
-1.03,0.41,0.28
-0.99,0.41,0.28
-0.94,0.46,0.29
-0.9,0.48,0.3
-0.89,0.5,0.29
-0.86,0.52,0.28
-0.8,0.52,0.28
-0.74,0.52,0.26
-0.7,0.51,0.21
-0.7,0.52,0.19
-0.62,0.56,0.17
-0.56,0.57,0.2
-0.53,0.57,0.2
-0.51,0.58,0.19
-0.49,0.59,0.17
-0.46,0.6,0.14
-0.43,0.6,0.12
-0.39,0.6,0.1
-0.34,0.62,0.09
-0.28,0.64,0.1
-0.25,0.66,0.11
-0.24,0.67,0.11
-0.21,0.69,0.08
-0.18,0.69,0.04
-0.16,0.69,0.01
-0.12,0.7,0
-0.08,0.72,0
-0.05,0.74,0.01
-0.02,0.76,0.01
0.01,0.77,0.01
0.04,0.78,0
0.07,0.79,-0.02
0.1,0.8,-0.03
0.13,0.81,-0.04
0.16,0.81,-0.04
0.19,0.81,-0.06
0.23,0.85,-0.08
0.25,0.86,-0.09
0.29,0.86,-0.09
0.33,0.86,-0.08
0.36,0.86,-0.06
0.36,0.85,-0.06
0.39,0.84,-0.07
0.44,0.84,-0.09
0.51,0.84,-0.1
0.57,0.84,-0.12
0.6,0.83,-0.12
0.63,0.83,-0.11
0.66,0.83,-0.1
0.69,0.84,-0.1
0.72,0.85,-0.11
0.75,0.86,-0.12
0.77,0.87,-0.13
0.79,0.88,-0.15
0.81,0.89,-0.16
0.83,0.9,-0.18
0.86,0.91,-0.19
0.87,0.92,-0.19
0.88,0.92,-0.19
0.88,0.92,-0.19
0.88,0.92,-0.18
0.88,0.92,-0.17
0.87,0.93,-0.15
0.87,0.94,-0.16
0.87,0.95,-0.16
0.88,0.95,-0.15
0.88,0.95,-0.14
0.88,0.94,-0.14
0.86,0.92,-0.14
0.85,0.91,-0.13
0.84,0.9,-0.11
0.83,0.89,-0.09
0.81,0.88,-0.07
0.8,0.87,-0.05
0.77,0.87,-0.04
0.73,0.87,-0.02
0.7,0.86,-0.01
0.66,0.86,0.01
0.61,0.86,0.02
0.56,0.86,0.04
0.52,0.86,0.06
0.48,0.85,0.08
0.43,0.84,0.11
0.38,0.83,0.15
0.35,0.82,0.17
0.3,0.83,0.19
0.22,0.84,0.21
0.18,0.83,0.2
0.16,0.82,0.18
0.09,0.81,0.17
0.04,0.8,0.19
-0.04,0.79,0.2
-0.11,0.78,0.2
-0.16,0.78,0.22
-0.14,0.77,0.2
-0.15,0.77,0.18
-0.23,0.78,0.19
-0.22,0.78,0.17
-0.28,0.77,0.15
-0.36,0.74,0.16
-0.29,0.71,0.16
-0.32,0.72,0.17
-0.4,0.7,0.15
-0.41,0.67,0.14
-0.35,0.69,0.11
-0.4,0.69,0.09
-0.51,0.64,0.12
-0.51,0.63,0.11
-0.52,0.63,0.1
-0.54,0.6,0.1
-0.59,0.59,0.1
-0.64,0.59,0.11
-0.65,0.57,0.11
-0.67,0.56,0.1
-0.71,0.54,0.11
-0.74,0.52,0.13
-0.79,0.5,0.13
-0.78,0.5,0.11
-0.82,0.49,0.11
-0.87,0.47,0.12
-0.88,0.48,0.11
-0.9,0.47,0.11
-0.92,0.45,0.13
-0.92,0.44,0.14
-0.98,0.42,0.17
-1.04,0.39,0.19
-1.07,0.38,0.19
-1.13,0.37,0.19
-1.16,0.36,0.18
-1.18,0.35,0.17
-1.22,0.35,0.18
-1.27,0.34,0.17
-1.32,0.33,0.18
-1.35,0.32,0.2
-1.36,0.32,0.21
-1.36,0.33,0.2
-1.37,0.33,0.2
-1.35,0.36,0.19
-1.33,0.39,0.21
-1.29,0.39,0.2
-1.22,0.4,0.19
-1.13,0.41,0.2
-1.11,0.42,0.21
-1.06,0.43,0.22
-1.03,0.47,0.24
-1.01,0.49,0.24
-1,0.47,0.21
-0.94,0.5,0.21
-0.84,0.52,0.21
-0.82,0.53,0.19
-0.8,0.55,0.2
-0.75,0.57,0.19
-0.74,0.57,0.19
-0.71,0.58,0.19
-0.65,0.59,0.15
-0.62,0.6,0.14
-0.57,0.61,0.16
-0.54,0.63,0.15
-0.52,0.64,0.15
-0.49,0.64,0.15
-0.45,0.66,0.16
-0.39,0.68,0.15
-0.35,0.7,0.13
-0.33,0.71,0.1
-0.28,0.69,0.09
-0.2,0.69,0.11
-0.13,0.69,0.09
-0.07,0.73,0.1
-0.04,0.76,0.13
0,0.76,0.14
0.05,0.76,0.11
0.09,0.76,0.08
0.11,0.76,0.05
0.13,0.76,0.04
0.16,0.77,0.03
0.19,0.79,0.02
0.21,0.82,0
0.23,0.83,-0.01
0.25,0.84,-0.02
0.26,0.83,-0.03
0.29,0.83,-0.04
0.32,0.83,-0.05
0.34,0.85,-0.07
0.36,0.87,-0.08
0.38,0.87,-0.08
0.42,0.86,-0.07
0.45,0.84,-0.06
0.48,0.82,-0.05
0.5,0.81,-0.04
0.54,0.8,-0.03
0.6,0.79,-0.03
0.66,0.78,-0.03
0.72,0.79,-0.06
0.82,0.78,-0.08
0.87,0.76,-0.09
0.9,0.76,-0.1
0.92,0.78,-0.12
0.95,0.8,-0.13
0.98,0.83,-0.14
1.01,0.85,-0.14
1.03,0.86,-0.14
1.04,0.88,-0.13
1.03,0.89,-0.13
1.04,0.9,-0.11
1.03,0.9,-0.1
1.02,0.89,-0.09
1.02,0.89,-0.08
1.01,0.88,-0.07
1,0.87,-0.08
1,0.87,-0.09
1,0.86,-0.08
0.97,0.86,-0.06
0.94,0.86,-0.04
0.93,0.83,-0.02
0.9,0.8,0
0.88,0.78,0.03
0.85,0.77,0.06
0.82,0.76,0.08
0.8,0.76,0.09
0.74,0.75,0.1
0.71,0.73,0.1
0.66,0.73,0.12
0.6,0.72,0.14
0.53,0.72,0.17
0.49,0.73,0.2
0.45,0.75,0.2
0.41,0.75,0.22
0.38,0.75,0.25
0.28,0.76,0.25
0.19,0.77,0.22
0.19,0.77,0.22
0.13,0.76,0.25
0.07,0.76,0.26
0.01,0.76,0.24
-0.02,0.75,0.22
-0.02,0.75,0.22
-0.12,0.73,0.23
-0.11,0.71,0.21
-0.13,0.72,0.24
-0.19,0.7,0.26
-0.28,0.7,0.24
-0.36,0.71,0.22
-0.32,0.68,0.17
-0.33,0.68,0.12
-0.37,0.66,0.13
-0.41,0.61,0.11
-0.44,0.62,0.1
-0.52,0.59,0.1
-0.57,0.57,0.12
-0.57,0.56,0.12
-0.64,0.53,0.14
-0.69,0.49,0.16
-0.71,0.48,0.15
-0.76,0.47,0.16
-0.82,0.44,0.17
-0.83,0.42,0.16
-0.87,0.4,0.16
-0.93,0.39,0.16
-0.97,0.38,0.17
-0.97,0.37,0.16
-1,0.38,0.17
-1.06,0.36,0.19
-1.05,0.34,0.2
-1.05,0.34,0.2
-1.12,0.33,0.21
-1.16,0.32,0.23
-1.18,0.31,0.25
-1.2,0.29,0.27
-1.22,0.27,0.29
-1.26,0.26,0.31
-1.3,0.24,0.33
-1.36,0.23,0.35
-1.38,0.24,0.36
-1.36,0.24,0.36
-1.32,0.24,0.37
-1.3,0.24,0.37
-1.29,0.25,0.38
-1.29,0.27,0.4
-1.28,0.29,0.38
-1.25,0.3,0.34
-1.2,0.32,0.31
-1.18,0.35,0.35
-1.12,0.36,0.36
-1.1,0.38,0.34
-1.1,0.39,0.36
-1.06,0.41,0.36
-1.01,0.41,0.31
-0.95,0.42,0.27
-0.92,0.44,0.28
-0.87,0.45,0.29
-0.87,0.44,0.31
-0.86,0.46,0.33
-0.79,0.48,0.3
-0.76,0.52,0.24
-0.72,0.55,0.23
-0.67,0.57,0.25
-0.61,0.58,0.23
-0.59,0.57,0.21
-0.51,0.59,0.19
-0.46,0.6,0.18
-0.41,0.62,0.19
-0.37,0.64,0.17
-0.34,0.63,0.15
-0.3,0.63,0.15
-0.26,0.65,0.13
-0.21,0.65,0.13
-0.17,0.67,0.12
-0.12,0.68,0.11
-0.09,0.69,0.1
-0.07,0.71,0.1
-0.03,0.71,0.1
0.02,0.72,0.09
0.07,0.75,0.07
0.11,0.77,0.05
0.14,0.78,0.04
0.17,0.79,0.02
0.19,0.8,0.02
0.23,0.81,0.01
0.26,0.81,0.01
0.29,0.81,0.02
0.3,0.82,0.03
0.32,0.83,0.04
0.35,0.83,0.03
0.38,0.83,0.02
0.46,0.83,0
0.5,0.83,-0.02
0.53,0.84,-0.02
0.56,0.83,-0.02
0.58,0.82,-0.02
0.6,0.81,-0.02
0.64,0.8,-0.04
0.68,0.78,-0.06
0.73,0.78,-0.09
0.77,0.79,-0.1
0.8,0.79,-0.11
0.83,0.78,-0.12
0.87,0.78,-0.14
0.91,0.78,-0.17
0.93,0.79,-0.19
0.94,0.8,-0.21
0.96,0.8,-0.22
0.97,0.81,-0.22
0.98,0.81,-0.22
1,0.81,-0.22
1.01,0.82,-0.23
1.01,0.83,-0.23
1.01,0.85,-0.25
1,0.86,-0.25
0.99,0.86,-0.24
0.97,0.86,-0.18
0.95,0.85,-0.17
0.96,0.84,-0.17
0.95,0.83,-0.18
0.94,0.83,-0.17
0.92,0.83,-0.14
0.9,0.82,-0.11
0.88,0.82,-0.08
0.86,0.82,-0.04
0.83,0.8,-0.01
0.79,0.8,0.01
0.76,0.79,0.01
0.72,0.79,0.04
0.67,0.8,0.07
0.62,0.8,0.09
0.58,0.79,0.11
0.53,0.78,0.13
0.48,0.78,0.16
0.43,0.78,0.19
0.38,0.79,0.22
0.31,0.77,0.23
0.23,0.77,0.24
0.21,0.77,0.25
0.24,0.74,0.23
0.17,0.74,0.23
0.09,0.77,0.25
0.09,0.77,0.26
-0.08,0.76,0.27
-0.06,0.73,0.25
-0.1,0.72,0.22
-0.13,0.71,0.23
-0.14,0.69,0.24
-0.17,0.68,0.24
-0.17,0.68,0.24
-0.2,0.67,0.24
-0.25,0.67,0.21
-0.31,0.64,0.19
-0.44,0.64,0.18
-0.42,0.62,0.17
-0.41,0.59,0.16
-0.46,0.57,0.16
-0.46,0.54,0.15
-0.48,0.5,0.13
-0.52,0.49,0.1
-0.61,0.49,0.11
-0.67,0.5,0.13
-0.66,0.52,0.11
-0.69,0.54,0.11
-0.76,0.54,0.12
-0.8,0.53,0.12
-0.8,0.52,0.11
-0.81,0.51,0.11
-0.85,0.51,0.13
-0.9,0.5,0.13
-0.98,0.49,0.14
-1,0.5,0.14
-0.99,0.5,0.13
-1.02,0.5,0.13
-1.07,0.49,0.15
-1.07,0.49,0.16
-1.08,0.5,0.16
-1.12,0.49,0.17
-1.16,0.49,0.16
-1.19,0.48,0.15
-1.21,0.48,0.16
-1.24,0.47,0.17
-1.25,0.46,0.19
-1.25,0.46,0.2
-1.25,0.46,0.22
-1.24,0.45,0.24
-1.22,0.45,0.26
-1.22,0.45,0.28
-1.22,0.44,0.27
-1.2,0.44,0.27
-1.16,0.46,0.24
-1.14,0.47,0.23
-1.13,0.46,0.23
-1.07,0.47,0.24
-1.03,0.49,0.27
-0.96,0.49,0.29
-0.95,0.51,0.31
-0.91,0.5,0.3
-0.89,0.5,0.29
-0.86,0.52,0.27
-0.84,0.52,0.28
-0.84,0.52,0.29
-0.79,0.54,0.3
-0.76,0.55,0.33
-0.73,0.56,0.33
-0.71,0.57,0.31
-0.7,0.58,0.29
-0.69,0.59,0.28
-0.65,0.59,0.27
-0.61,0.61,0.29
-0.56,0.62,0.3
-0.51,0.64,0.3
-0.48,0.65,0.3
-0.46,0.66,0.29
-0.45,0.65,0.28
-0.41,0.65,0.28
-0.34,0.65,0.27
-0.29,0.66,0.27
-0.27,0.67,0.28
-0.24,0.68,0.28
-0.2,0.7,0.27
-0.12,0.71,0.24
-0.07,0.7,0.21
-0.02,0.69,0.19
0.02,0.69,0.17
0.05,0.7,0.15
0.08,0.71,0.13
0.11,0.73,0.12
0.14,0.74,0.11
0.16,0.74,0.1
0.18,0.74,0.11
0.21,0.74,0.11
0.24,0.72,0.1
0.27,0.71,0.09
0.29,0.72,0.08
0.31,0.73,0.06
0.34,0.74,0.05
0.37,0.74,0.04
0.41,0.74,0.03
0.45,0.74,0.03
0.49,0.73,0.04
0.53,0.72,0.04
0.57,0.71,0.02
0.61,0.72,-0.02
0.65,0.73,-0.08
0.69,0.74,-0.15
0.75,0.75,-0.25
0.86,0.76,-0.27
0.88,0.76,-0.27
0.91,0.77,-0.27
0.94,0.78,-0.27
0.96,0.78,-0.27
0.97,0.79,-0.27
0.98,0.8,-0.28
1,0.82,-0.29
1.01,0.83,-0.31
1.04,0.85,-0.34
1.07,0.85,-0.36
1.08,0.85,-0.37
1.07,0.86,-0.37
1.06,0.87,-0.35
1.05,0.85,-0.34
1.05,0.84,-0.33
1.06,0.83,-0.33
1.06,0.83,-0.33
1.06,0.82,-0.33
1.04,0.82,-0.32
1.03,0.81,-0.3
1.01,0.79,-0.29
0.99,0.78,-0.27
0.96,0.77,-0.24
0.93,0.77,-0.21
0.89,0.76,-0.17
0.82,0.74,-0.13
0.79,0.72,-0.11
0.75,0.72,-0.08
0.72,0.71,-0.04
0.69,0.72,-0.01
0.64,0.73,0.02
0.6,0.72,0.03
0.57,0.72,0.05
0.53,0.72,0.06
0.48,0.72,0.09
0.45,0.72,0.11
0.41,0.71,0.13
0.33,0.71,0.16
0.26,0.7,0.18
0.22,0.68,0.2
0.22,0.69,0.18
0.17,0.71,0.17
0.07,0.72,0.22
-0.01,0.7,0.25
-0.05,0.69,0.26
-0.01,0.68,0.23
-0.04,0.67,0.2
-0.06,0.65,0.19
-0.08,0.65,0.2
-0.14,0.66,0.22
-0.16,0.66,0.23
-0.27,0.65,0.19
-0.33,0.64,0.18
-0.38,0.61,0.2
-0.42,0.59,0.19
-0.43,0.58,0.17
-0.47,0.58,0.16
-0.55,0.57,0.16
-0.55,0.55,0.16
-0.53,0.55,0.15
-0.57,0.54,0.15
-0.65,0.52,0.17
-0.71,0.51,0.2
-0.75,0.51,0.22
-0.79,0.5,0.23
-0.82,0.48,0.21
-0.84,0.48,0.21
-0.88,0.47,0.2
-0.94,0.46,0.2
-0.99,0.46,0.21
-1.03,0.45,0.23
-1.07,0.43,0.25
-1.12,0.42,0.27
-1.18,0.41,0.27
-1.22,0.41,0.25
-1.26,0.41,0.26
-1.29,0.4,0.28
-1.32,0.38,0.33
-1.36,0.36,0.35
-1.38,0.35,0.34
-1.39,0.34,0.34
-1.39,0.34,0.34
-1.38,0.35,0.36
-1.37,0.34,0.39
-1.34,0.34,0.41
-1.29,0.35,0.41
-1.26,0.34,0.4
-1.23,0.35,0.38
-1.17,0.37,0.38
-1.12,0.38,0.38
-1.12,0.39,0.38
-1.06,0.39,0.38
-0.99,0.41,0.39
-0.96,0.42,0.39
-0.92,0.44,0.38
-0.88,0.45,0.35
-0.86,0.47,0.34
-0.81,0.48,0.32
-0.76,0.48,0.25
-0.75,0.51,0.27
-0.71,0.54,0.33
-0.66,0.54,0.32
-0.61,0.55,0.3
-0.58,0.58,0.3
-0.53,0.61,0.25
-0.51,0.62,0.21
-0.49,0.64,0.19
-0.46,0.65,0.19
-0.42,0.65,0.2
-0.37,0.66,0.2
-0.32,0.66,0.19
-0.27,0.66,0.18
-0.22,0.67,0.17
-0.18,0.68,0.15
-0.16,0.69,0.14
-0.13,0.7,0.14
-0.09,0.71,0.12
-0.05,0.73,0.12
-0.02,0.74,0.13
0.02,0.75,0.15
0.05,0.75,0.16
0.08,0.75,0.16
0.11,0.75,0.14
0.13,0.76,0.13
0.14,0.78,0.11
0.17,0.79,0.11
0.21,0.79,0.1
0.26,0.82,0.1
0.26,0.82,0.1
0.28,0.84,0.11
0.3,0.86,0.11
0.28,0.87,0.11
0.42,0.83,0.04
0.47,0.82,0.02
0.52,0.81,0
0.56,0.81,-0.02
0.6,0.83,-0.04
0.63,0.82,-0.06
0.66,0.8,-0.09
0.68,0.78,-0.11
0.7,0.77,-0.1
0.75,0.76,-0.11
0.8,0.75,-0.12
0.85,0.76,-0.16
0.91,0.77,-0.22
0.95,0.79,-0.27
0.97,0.81,-0.29
0.99,0.81,-0.29
0.99,0.81,-0.29
0.99,0.81,-0.26
0.99,0.81,-0.25
0.99,0.81,-0.22
0.99,0.84,-0.24
1,0.84,-0.27
1.01,0.85,-0.29
1,0.84,-0.29
0.97,0.83,-0.26
0.94,0.83,-0.24
0.93,0.81,-0.21
0.92,0.8,-0.19
0.91,0.79,-0.16
0.9,0.78,-0.14
0.88,0.79,-0.14
0.87,0.79,-0.14
0.85,0.79,-0.12
0.81,0.78,-0.09
0.77,0.77,-0.07
0.73,0.77,-0.05
0.68,0.77,-0.02
0.63,0.77,0
0.59,0.76,0.02
0.54,0.76,0.03
0.48,0.76,0.06
0.46,0.75,0.09
0.42,0.74,0.1
0.34,0.73,0.14
0.29,0.73,0.16
0.22,0.72,0.16
0.18,0.72,0.17
0.08,0.73,0.16
0,0.72,0.2
0,0.69,0.23
0.05,0.67,0.23
0.03,0.67,0.23
-0.12,0.69,0.23
-0.16,0.69,0.21
-0.16,0.69,0.23
-0.25,0.69,0.25
-0.27,0.68,0.21
-0.27,0.67,0.2
-0.39,0.67,0.17
-0.43,0.66,0.12
-0.48,0.66,0.12
-0.56,0.64,0.14
-0.58,0.66,0.16
-0.58,0.66,0.17
-0.59,0.64,0.18
-0.63,0.62,0.19
-0.68,0.58,0.19
-0.7,0.56,0.17
-0.7,0.56,0.18
-0.75,0.55,0.19
-0.84,0.52,0.19
-0.89,0.51,0.17
-0.92,0.49,0.17
-0.93,0.47,0.18
-0.93,0.48,0.16
-0.96,0.48,0.14
-0.99,0.48,0.14
-1.04,0.47,0.14
-1.1,0.46,0.16
-1.11,0.46,0.16
-1.11,0.47,0.15
-1.14,0.44,0.16
-1.15,0.41,0.17
-1.17,0.38,0.16
-1.2,0.38,0.16
-1.23,0.39,0.15
-1.28,0.37,0.13
-1.31,0.35,0.15
-1.3,0.35,0.21
-1.3,0.36,0.27
-1.31,0.38,0.29
-1.32,0.4,0.27
-1.3,0.42,0.26
-1.27,0.43,0.23
-1.23,0.43,0.21
-1.19,0.45,0.2
-1.16,0.46,0.19
-1.12,0.48,0.2
-1.02,0.5,0.19
-0.99,0.5,0.19
-0.97,0.5,0.21
-0.93,0.51,0.22
-0.87,0.52,0.21
-0.82,0.52,0.19
-0.78,0.53,0.19
-0.75,0.54,0.24
-0.7,0.54,0.28
-0.66,0.56,0.27
-0.65,0.57,0.25
-0.62,0.6,0.21
-0.59,0.64,0.18
-0.56,0.66,0.19
-0.5,0.65,0.18
-0.45,0.64,0.15
-0.4,0.64,0.15
-0.35,0.66,0.17
-0.31,0.67,0.21
-0.28,0.69,0.24
-0.26,0.71,0.23
-0.25,0.73,0.21
-0.23,0.74,0.18
-0.21,0.74,0.14
-0.18,0.75,0.13
-0.13,0.76,0.12
-0.05,0.77,0.11
-0.02,0.79,0.11
0.01,0.79,0.12
0.02,0.79,0.14
0.02,0.8,0.17
0.03,0.81,0.18
0.06,0.81,0.19
0.09,0.81,0.17
0.13,0.82,0.15
0.16,0.83,0.14
0.18,0.82,0.13
0.21,0.81,0.13
0.24,0.8,0.12
0.29,0.8,0.12
0.32,0.81,0.13
0.35,0.8,0.14
0.39,0.8,0.14
0.42,0.8,0.12
0.45,0.81,0.09
0.48,0.81,0.07
0.52,0.8,0.05
0.56,0.8,0.02
0.6,0.79,-0.01
0.65,0.79,-0.04
0.69,0.78,-0.06
0.73,0.78,-0.08
0.79,0.78,-0.09
0.81,0.78,-0.08
0.83,0.78,-0.09
0.84,0.78,-0.1
0.86,0.79,-0.13
0.87,0.8,-0.15
0.89,0.81,-0.17
0.9,0.82,-0.18
0.92,0.83,-0.19
0.92,0.83,-0.19
0.92,0.83,-0.18
0.92,0.83,-0.17
0.92,0.82,-0.16
0.92,0.82,-0.15
0.92,0.82,-0.14
0.91,0.83,-0.15
0.9,0.83,-0.15
0.9,0.84,-0.15
0.9,0.84,-0.14
0.88,0.84,-0.12
0.87,0.83,-0.11
0.86,0.83,-0.09
0.86,0.81,-0.06
0.86,0.79,-0.04
0.85,0.78,-0.02
0.83,0.78,0.03
0.79,0.78,0.03
0.76,0.79,0.03
0.74,0.8,0.03
0.71,0.8,0.03
0.71,0.79,0.05
0.69,0.79,0.07
0.63,0.79,0.1
0.57,0.78,0.14
0.5,0.78,0.22
0.45,0.78,0.26
0.4,0.78,0.24
0.38,0.77,0.23
0.34,0.77,0.26
0.28,0.79,0.25
0.26,0.78,0.22
0.19,0.77,0.23
0.15,0.76,0.23
0.13,0.75,0.24
0.06,0.76,0.26
-0.01,0.75,0.28
-0.16,0.73,0.32
-0.16,0.71,0.31
-0.14,0.72,0.27
-0.3,0.73,0.27
-0.28,0.69,0.25
-0.29,0.69,0.19
-0.44,0.66,0.15
-0.47,0.64,0.12
-0.59,0.61,0.13
-0.62,0.59,0.15
-0.65,0.58,0.16
-0.67,0.57,0.16
-0.67,0.55,0.14
-0.74,0.52,0.13
-0.78,0.51,0.13
-0.8,0.5,0.12
-0.84,0.49,0.13
-0.85,0.47,0.14
-0.83,0.47,0.16
-0.87,0.45,0.17
-0.92,0.42,0.18
-0.96,0.41,0.17
-1.02,0.41,0.16
-1.08,0.4,0.17
-1.1,0.39,0.17
-1.09,0.39,0.19
-1.11,0.38,0.21
-1.14,0.37,0.23
-1.17,0.37,0.24
-1.2,0.37,0.24
-1.23,0.38,0.24
-1.26,0.38,0.24
-1.26,0.39,0.25
-1.25,0.39,0.26
-1.22,0.39,0.26
-1.18,0.41,0.26
-1.15,0.43,0.27
-1.14,0.45,0.27
-1.12,0.47,0.27
-1.09,0.49,0.26
-1.07,0.49,0.25
-1.04,0.49,0.26
-1,0.5,0.25
-0.97,0.51,0.23
-0.91,0.51,0.24
-0.86,0.52,0.24
-0.85,0.53,0.25
-0.83,0.53,0.29
-0.77,0.52,0.28
-0.77,0.52,0.27
-0.77,0.55,0.23
-0.73,0.6,0.2
-0.68,0.63,0.23
-0.63,0.66,0.24
-0.61,0.66,0.24
-0.6,0.67,0.26
-0.58,0.67,0.25
-0.54,0.67,0.23
-0.44,0.69,0.22
-0.38,0.69,0.23
-0.32,0.69,0.25
-0.28,0.7,0.27
-0.25,0.71,0.28
-0.23,0.71,0.28
-0.19,0.73,0.27
-0.14,0.73,0.24
-0.09,0.72,0.21
-0.04,0.71,0.19
-0.01,0.7,0.18
-0.01,0.72,0.18
-0.01,0.76,0.19
0.04,0.78,0.21
0.11,0.77,0.2
0.19,0.77,0.17
0.24,0.78,0.14
0.24,0.8,0.13
0.23,0.81,0.12
0.23,0.82,0.1
0.26,0.84,0.08
0.3,0.85,0.06
0.34,0.85,0.05
0.36,0.85,0.05
0.37,0.86,0.07
0.37,0.86,0.1
0.45,0.86,0.11
0.49,0.85,0.11
0.51,0.85,0.11
0.52,0.85,0.1
0.53,0.85,0.1
0.54,0.85,0.09
0.57,0.85,0.07
0.61,0.85,0.04
0.64,0.84,0.03
0.67,0.82,0.01
0.69,0.81,-0.01
0.71,0.8,-0.05
0.74,0.8,-0.11
0.77,0.8,-0.17
0.8,0.8,-0.2
0.82,0.81,-0.22
0.83,0.82,-0.23
0.85,0.82,-0.25
0.88,0.82,-0.28
0.9,0.82,-0.3
0.9,0.82,-0.32
0.89,0.82,-0.34
0.9,0.81,-0.35
0.92,0.82,-0.36
0.92,0.83,-0.37
0.91,0.85,-0.37
0.91,0.85,-0.37
0.88,0.85,-0.36
0.86,0.85,-0.35
0.85,0.84,-0.33
0.85,0.84,-0.3
0.84,0.83,-0.27
0.84,0.83,-0.24
0.83,0.83,-0.22
0.82,0.82,-0.21
0.8,0.82,-0.2
0.78,0.81,-0.18
0.76,0.8,-0.16
0.73,0.78,-0.13
0.69,0.76,-0.09
0.66,0.74,-0.05
0.62,0.73,-0.01
0.58,0.73,0.03
0.54,0.73,0.05
0.53,0.73,0.08
0.5,0.73,0.11
0.47,0.74,0.13
0.39,0.74,0.16
0.31,0.73,0.17
0.29,0.72,0.19
0.26,0.72,0.2
0.18,0.72,0.23
0.09,0.69,0.27
-0.01,0.7,0.25
-0.06,0.7,0.25
-0.08,0.69,0.26
-0.08,0.68,0.26
-0.07,0.68,0.26
-0.09,0.69,0.26
-0.2,0.69,0.25
-0.29,0.68,0.23
-0.4,0.69,0.24
-0.42,0.7,0.23
-0.42,0.7,0.24
-0.45,0.69,0.23
-0.5,0.67,0.18
-0.55,0.67,0.2
-0.53,0.66,0.21
-0.58,0.65,0.19
-0.63,0.64,0.19
-0.68,0.63,0.2
-0.72,0.61,0.22
-0.74,0.59,0.24
-0.76,0.57,0.24
-0.78,0.55,0.24
-0.79,0.53,0.25
-0.82,0.51,0.26
-0.84,0.5,0.27
-0.9,0.49,0.32
-0.96,0.49,0.34
-0.97,0.48,0.34
-0.98,0.47,0.34
-0.99,0.45,0.34
-1,0.44,0.36
-1.02,0.44,0.4
-1.03,0.44,0.42
-1.05,0.44,0.43
-1.08,0.43,0.44
-1.09,0.43,0.44
-1.1,0.43,0.46
-1.14,0.43,0.51
-1.15,0.42,0.53
-1.13,0.44,0.53
-1.14,0.44,0.52
-1.11,0.46,0.51
-1.16,0.46,0.51
-1.21,0.44,0.51
-1.15,0.46,0.51
-1.1,0.46,0.49
-1.07,0.47,0.47
-1.06,0.48,0.45
-1.04,0.49,0.44
-1.03,0.5,0.41
-1.04,0.5,0.39
-0.99,0.52,0.33
-0.91,0.54,0.35
-0.8,0.57,0.39
-0.76,0.58,0.39
-0.76,0.55,0.41
-0.74,0.54,0.41
-0.68,0.54,0.38
-0.63,0.53,0.35
-0.6,0.53,0.32
-0.58,0.54,0.32
-0.55,0.57,0.33
-0.49,0.59,0.34
-0.42,0.6,0.35
-0.35,0.6,0.36
-0.31,0.61,0.36
-0.29,0.62,0.33
-0.27,0.62,0.3
-0.23,0.63,0.28
-0.22,0.65,0.28
-0.19,0.66,0.29
-0.15,0.67,0.3
-0.1,0.68,0.31
-0.06,0.7,0.3
-0.01,0.72,0.27
0.03,0.73,0.24
0.07,0.75,0.22
0.1,0.77,0.18
0.16,0.77,0.18
0.18,0.78,0.19
0.21,0.78,0.19
0.25,0.78,0.18
0.3,0.78,0.16
0.35,0.79,0.13
0.37,0.8,0.1
0.38,0.8,0.08
0.4,0.8,0.07
0.43,0.8,0.06
0.47,0.8,0.05
0.49,0.81,0.04
0.51,0.81,0.03
0.52,0.81,0.02
0.54,0.8,0
0.58,0.79,-0.03
0.6,0.8,-0.07
0.62,0.8,-0.12
0.64,0.81,-0.15
0.67,0.81,-0.19
0.69,0.82,-0.21
0.7,0.81,-0.22
0.72,0.79,-0.23
0.73,0.78,-0.24
0.73,0.8,-0.25
0.73,0.83,-0.32
0.77,0.91,-0.36
0.79,0.91,-0.38
0.81,0.88,-0.38
0.82,0.84,-0.37
0.85,0.81,-0.34
0.89,0.79,-0.33
0.93,0.77,-0.36
0.96,0.76,-0.4
0.97,0.76,-0.44
0.98,0.78,-0.47
0.98,0.79,-0.49
0.97,0.8,-0.49
0.98,0.79,-0.48
0.97,0.77,-0.44
0.96,0.75,-0.4
0.94,0.75,-0.37
0.9,0.76,-0.35
0.88,0.76,-0.34
0.86,0.75,-0.31
0.85,0.74,-0.3
0.83,0.73,-0.28
0.81,0.73,-0.23
0.78,0.72,-0.19
0.76,0.71,-0.16
0.73,0.7,-0.13
0.69,0.69,-0.07
0.63,0.68,-0.03
0.58,0.67,0.01
0.53,0.67,0.05
0.48,0.68,0.07
0.46,0.69,0.08
0.43,0.7,0.1
0.37,0.7,0.12
0.32,0.69,0.15
0.27,0.69,0.18
0.22,0.68,0.21
0.18,0.67,0.26
0.16,0.67,0.29
0.13,0.66,0.31
0.07,0.66,0.3
-0.01,0.67,0.3
-0.09,0.67,0.29
-0.21,0.67,0.26
-0.32,0.65,0.25
-0.36,0.63,0.26
-0.36,0.63,0.23
-0.39,0.65,0.21
-0.43,0.65,0.26
-0.43,0.62,0.29
-0.54,0.6,0.27
-0.58,0.61,0.22
-0.51,0.63,0.16
-0.61,0.61,0.18
-0.64,0.59,0.22
-0.67,0.58,0.25
-0.68,0.57,0.24
-0.73,0.57,0.24
-0.78,0.56,0.25
-0.79,0.56,0.24
-0.85,0.54,0.24
-0.9,0.52,0.27
-0.92,0.51,0.29
-0.99,0.49,0.3
-1.04,0.47,0.29
-1.1,0.45,0.28
-1.16,0.43,0.27
-1.19,0.4,0.27
-1.21,0.37,0.27
-1.26,0.35,0.28
-1.3,0.34,0.31
-1.34,0.31,0.33
-1.39,0.29,0.34
-1.41,0.29,0.34
-1.4,0.27,0.34
-1.4,0.26,0.34
-1.39,0.25,0.34
-1.39,0.25,0.33
-1.36,0.26,0.32
-1.34,0.27,0.29
-1.26,0.3,0.27
-1.2,0.32,0.27
-1.17,0.34,0.27
-1.17,0.36,0.3
-1.1,0.36,0.31
-1.08,0.38,0.31
-1.03,0.4,0.32
-0.97,0.41,0.3
-0.93,0.43,0.29
-0.89,0.44,0.3
-0.85,0.45,0.3
-0.79,0.48,0.28
-0.79,0.5,0.32
-0.74,0.5,0.36
-0.66,0.52,0.31
-0.61,0.53,0.31
-0.55,0.53,0.29
-0.48,0.54,0.24
-0.42,0.59,0.22
-0.38,0.61,0.19
-0.31,0.61,0.16
-0.23,0.63,0.17
-0.17,0.66,0.17
-0.12,0.68,0.19
-0.1,0.68,0.22
-0.08,0.67,0.26
0.03,0.66,0.26
0.09,0.68,0.25
0.13,0.69,0.23
0.16,0.69,0.2
0.19,0.7,0.17
0.21,0.72,0.15
0.24,0.73,0.17
0.25,0.73,0.2
0.26,0.73,0.23
0.28,0.75,0.24
0.3,0.77,0.23
0.33,0.79,0.2
0.37,0.81,0.17
0.4,0.82,0.15
0.42,0.82,0.13
0.43,0.82,0.13
0.44,0.82,0.12
0.45,0.83,0.11
0.47,0.82,0.11
0.5,0.82,0.1
0.52,0.82,0.08
0.55,0.82,0.07
0.57,0.81,0.05
0.59,0.8,0.02
0.6,0.79,-0.03
0.61,0.77,-0.16
0.69,0.77,-0.23
0.74,0.77,-0.28
0.74,0.78,-0.31
0.74,0.77,-0.32
0.74,0.76,-0.32
0.75,0.74,-0.32
0.78,0.72,-0.3
0.82,0.71,-0.3
0.85,0.7,-0.31
0.87,0.7,-0.32
0.89,0.7,-0.33
0.91,0.7,-0.32
0.93,0.7,-0.32
0.95,0.71,-0.32
0.97,0.7,-0.33
0.99,0.7,-0.35
1,0.7,-0.36
1.01,0.7,-0.36
1.01,0.72,-0.34
1,0.74,-0.31
0.99,0.75,-0.28
0.97,0.76,-0.25
0.95,0.77,-0.24
0.93,0.77,-0.24
0.92,0.77,-0.24
0.92,0.77,-0.2
0.88,0.76,-0.16
0.86,0.77,-0.13
0.83,0.77,-0.11
0.79,0.78,-0.09
0.75,0.78,-0.06
0.73,0.78,-0.04
0.7,0.78,-0.02
0.65,0.78,0.01
0.6,0.77,0.03
0.55,0.77,0.06
0.51,0.77,0.08
0.47,0.77,0.09
0.43,0.76,0.09
0.4,0.75,0.09
0.35,0.75,0.1
0.29,0.75,0.14
0.24,0.73,0.18
0.21,0.72,0.22
0.21,0.69,0.24
0.17,0.67,0.28
0.15,0.66,0.31
0.16,0.66,0.31
0.1,0.67,0.3
0.01,0.67,0.3
-0.04,0.65,0.33
0.04,0.63,0.3
-0.16,0.63,0.33
-0.17,0.58,0.37
-0.13,0.58,0.37
-0.15,0.6,0.39
-0.23,0.6,0.4
-0.34,0.61,0.38
-0.43,0.61,0.34
-0.46,0.64,0.31
-0.49,0.65,0.33
-0.62,0.64,0.33
-0.66,0.62,0.34
-0.65,0.62,0.32
-0.7,0.61,0.3
-0.74,0.58,0.3
-0.75,0.56,0.27
-0.82,0.53,0.24
-0.9,0.52,0.24
-0.96,0.51,0.25
-0.99,0.51,0.25
-1.02,0.49,0.26
-1.06,0.46,0.3
-1.09,0.44,0.33
-1.13,0.43,0.33
-1.16,0.43,0.31
-1.2,0.45,0.28
-1.25,0.46,0.23
-1.29,0.47,0.22
-1.29,0.46,0.23
-1.28,0.46,0.25
-1.27,0.47,0.26
-1.25,0.48,0.27
-1.22,0.49,0.28
-1.18,0.49,0.29
-1.16,0.5,0.3
-1.1,0.51,0.3
-1.06,0.52,0.31
-1.06,0.53,0.32
-0.98,0.55,0.32
-0.94,0.57,0.33
-0.94,0.55,0.33
-0.9,0.54,0.34
-0.9,0.56,0.32
-0.87,0.56,0.31
-0.86,0.57,0.36
-0.83,0.59,0.38
-0.78,0.6,0.36
-0.8,0.58,0.36
-0.8,0.58,0.39
-0.75,0.6,0.39
-0.7,0.6,0.4
-0.66,0.62,0.41
-0.64,0.64,0.37
-0.56,0.64,0.37
-0.5,0.64,0.37
-0.45,0.64,0.37
-0.41,0.64,0.37
-0.38,0.64,0.37
-0.35,0.66,0.34
-0.32,0.68,0.3
-0.28,0.69,0.28
-0.23,0.69,0.29
-0.19,0.69,0.3
-0.13,0.69,0.3
-0.07,0.69,0.27
-0.04,0.7,0.25
-0.03,0.72,0.24
-0.01,0.74,0.23
0,0.74,0.22
0.03,0.75,0.21
0.07,0.76,0.19
0.1,0.77,0.16
0.13,0.78,0.13
0.15,0.79,0.12
0.16,0.79,0.11
0.17,0.79,0.09
0.19,0.77,0.07
0.22,0.76,0.05
0.24,0.76,0
0.31,0.78,0
0.37,0.79,0
0.41,0.79,0
0.44,0.78,0
0.45,0.78,-0.01
0.47,0.77,-0.03
0.51,0.75,-0.05
0.56,0.73,-0.06
0.61,0.72,-0.05
0.67,0.71,-0.04
0.73,0.7,-0.04
0.77,0.71,-0.05
0.81,0.73,-0.08
0.84,0.76,-0.13
0.87,0.79,-0.18
0.9,0.81,-0.22
0.93,0.83,-0.24
0.97,0.85,-0.24
1,0.86,-0.23
1,0.87,-0.22
1.01,0.87,-0.21
1.02,0.88,-0.21
1.02,0.88,-0.2
1,0.89,-0.19
0.99,0.91,-0.19
0.98,0.93,-0.2
0.98,0.9,-0.19
0.96,0.89,-0.17
0.95,0.86,-0.15
0.92,0.84,-0.12
0.9,0.83,-0.1
0.87,0.82,-0.08
0.84,0.81,-0.07
0.8,0.8,-0.06
0.77,0.8,-0.04
0.73,0.78,-0.02
0.68,0.78,0
0.63,0.77,0.03
0.62,0.75,0.05
0.63,0.74,0.07
0.62,0.73,0.1
0.59,0.73,0.12
0.51,0.73,0.13
0.45,0.73,0.14
0.41,0.74,0.15
0.37,0.75,0.15
0.33,0.74,0.17
0.29,0.72,0.19
0.25,0.73,0.2
0.22,0.73,0.22
0.18,0.72,0.24
0.18,0.72,0.26
0.12,0.73,0.27
0.08,0.74,0.24
-0.01,0.74,0.26
-0.01,0.73,0.29
0.01,0.74,0.29
-0.13,0.74,0.29
-0.14,0.72,0.29
-0.14,0.73,0.29
-0.25,0.72,0.3
-0.25,0.69,0.3
-0.29,0.71,0.27
-0.4,0.72,0.28
-0.33,0.71,0.29
-0.32,0.71,0.28
-0.39,0.7,0.27
-0.44,0.67,0.29
-0.48,0.68,0.28
-0.51,0.67,0.27
-0.58,0.65,0.28
-0.62,0.64,0.28
-0.65,0.62,0.28
-0.71,0.6,0.29
-0.75,0.59,0.28
-0.78,0.57,0.27
-0.81,0.56,0.27
-0.85,0.55,0.27
-0.86,0.52,0.3
-0.91,0.5,0.32
-0.96,0.49,0.33
-0.99,0.49,0.32
-1.03,0.48,0.31
-1.08,0.48,0.32
-1.11,0.47,0.33
-1.13,0.46,0.33
-1.14,0.46,0.33
-1.16,0.45,0.33
-1.18,0.45,0.35
-1.2,0.45,0.38
-1.2,0.45,0.38
-1.2,0.46,0.37
-1.19,0.47,0.36
-1.19,0.48,0.36
-1.19,0.49,0.35
-1.17,0.5,0.34
-1.14,0.51,0.33
-1.11,0.51,0.32
-1.08,0.51,0.33
-1.06,0.52,0.33
-1.03,0.54,0.32
-1.01,0.56,0.31
-0.99,0.56,0.3
-0.99,0.56,0.29
-0.94,0.57,0.34
-0.82,0.58,0.32
-0.8,0.58,0.3
-0.81,0.57,0.28
-0.82,0.58,0.3
-0.76,0.59,0.35
-0.7,0.6,0.35
-0.66,0.6,0.33
-0.63,0.6,0.32
-0.59,0.62,0.33
-0.57,0.63,0.33
-0.56,0.62,0.33
-0.52,0.62,0.31
-0.46,0.64,0.29
-0.4,0.65,0.29
-0.35,0.66,0.29
-0.31,0.67,0.31
-0.27,0.68,0.3
-0.23,0.68,0.29
-0.21,0.68,0.28
-0.19,0.7,0.28
-0.16,0.71,0.3
-0.12,0.71,0.3
-0.09,0.71,0.29
-0.05,0.71,0.27
-0.02,0.73,0.24
0.01,0.74,0.17
0.07,0.76,0.13
0.12,0.77,0.11
0.15,0.77,0.1
0.17,0.77,0.1
0.2,0.77,0.11
0.22,0.77,0.11
0.24,0.77,0.11
0.27,0.77,0.1
0.32,0.77,0.08
0.35,0.78,0.06
0.37,0.78,0.04
0.39,0.78,0.04
0.39,0.78,0.06
0.4,0.77,0.08
0.43,0.76,0.1
0.47,0.76,0.1
0.52,0.75,0.1
0.57,0.74,0.09
0.61,0.74,0.06
0.64,0.74,0.04
0.65,0.75,0.01
0.66,0.75,-0.01
0.68,0.73,-0.04
0.71,0.72,-0.07
0.74,0.71,-0.1
0.78,0.71,-0.19
0.87,0.71,-0.25
0.91,0.72,-0.32
0.94,0.73,-0.38
0.97,0.72,-0.41
1.02,0.72,-0.43
1.04,0.72,-0.44
1.08,0.69,-0.47
1.05,0.74,-0.46
1.01,0.78,-0.43
1.04,0.76,-0.44
1.04,0.78,-0.43
1.03,0.79,-0.42
1.02,0.82,-0.42
1.01,0.82,-0.42
1,0.82,-0.41
0.99,0.82,-0.39
0.97,0.82,-0.37
0.94,0.8,-0.36
0.93,0.78,-0.34
0.93,0.78,-0.31
0.9,0.78,-0.28
0.88,0.77,-0.25
0.87,0.76,-0.23
0.86,0.76,-0.21
0.84,0.76,-0.19
0.8,0.75,-0.15
0.74,0.71,-0.15
0.7,0.7,-0.13
0.66,0.7,-0.08
0.62,0.7,-0.04
0.6,0.7,-0.01
0.56,0.71,0.02
0.52,0.71,0.05
0.48,0.7,0.07
0.44,0.68,0.08
0.38,0.66,0.1
0.33,0.67,0.12
0.3,0.68,0.14
0.25,0.66,0.17
0.22,0.64,0.21
0.19,0.65,0.21
0.11,0.66,0.22
0.11,0.66,0.24
0.08,0.68,0.25
0.03,0.69,0.25
0.09,0.68,0.25
0.04,0.67,0.27
-0.12,0.67,0.28
-0.2,0.65,0.3
-0.22,0.65,0.29
-0.23,0.66,0.29
-0.3,0.67,0.25
-0.43,0.65,0.25
-0.48,0.65,0.26
-0.55,0.65,0.26
-0.51,0.64,0.22
-0.5,0.62,0.23
-0.57,0.61,0.25
-0.64,0.6,0.25
-0.68,0.59,0.27
-0.73,0.59,0.29
-0.77,0.57,0.29
-0.79,0.54,0.3
-0.81,0.52,0.31
-0.85,0.51,0.31
-0.95,0.49,0.31
-1.03,0.48,0.31
-1.08,0.48,0.27
-1.14,0.48,0.26
-1.17,0.48,0.26
-1.18,0.49,0.27
-1.2,0.49,0.29
-1.23,0.48,0.29
-1.24,0.47,0.3
-1.29,0.46,0.3
-1.32,0.45,0.3
-1.31,0.45,0.31
-1.3,0.44,0.32
-1.26,0.43,0.35
-1.24,0.43,0.35
-1.23,0.43,0.35
-1.2,0.43,0.35
-1.17,0.44,0.33
-1.13,0.46,0.31
-1.08,0.47,0.29
-1.02,0.49,0.3
-0.94,0.51,0.31
-0.92,0.51,0.32
-0.9,0.51,0.34
-0.85,0.51,0.32
-0.86,0.52,0.29
-0.86,0.56,0.29
-0.8,0.58,0.29
-0.73,0.58,0.29
-0.68,0.58,0.3
-0.64,0.58,0.33
-0.59,0.59,0.35
-0.54,0.6,0.35
-0.54,0.6,0.35
-0.53,0.61,0.36
-0.48,0.62,0.37
-0.41,0.63,0.37
-0.39,0.64,0.35
-0.38,0.64,0.34
-0.35,0.65,0.34
-0.28,0.66,0.34
-0.24,0.67,0.34
-0.19,0.68,0.33
-0.15,0.69,0.31
-0.11,0.7,0.3
-0.07,0.7,0.29
-0.04,0.71,0.28
-0.02,0.72,0.28
0.01,0.72,0.27
0.06,0.72,0.26
0.11,0.73,0.24
0.14,0.74,0.24
0.17,0.76,0.23
0.19,0.77,0.21
0.21,0.79,0.18
0.24,0.79,0.16
0.28,0.78,0.14
0.31,0.78,0.15
0.34,0.77,0.17
0.36,0.77,0.18
0.39,0.77,0.19
0.43,0.76,0.2
0.47,0.75,0.2
0.5,0.76,0.19
0.52,0.76,0.17
0.54,0.76,0.09
0.6,0.76,0.05
0.66,0.74,0.01
0.71,0.72,0
0.76,0.7,-0.01
0.81,0.7,-0.01
0.84,0.71,-0.02
0.85,0.72,-0.02
0.87,0.72,-0.02
0.88,0.72,-0.01
0.9,0.74,0.01
0.9,0.76,0.02
0.88,0.79,0.01
0.86,0.82,-0.02
0.85,0.82,-0.06
0.89,0.8,-0.08
0.93,0.78,-0.09
0.95,0.77,-0.1
0.97,0.77,-0.12
0.99,0.77,-0.15
0.99,0.77,-0.18
0.99,0.77,-0.22
1,0.76,-0.26
1.02,0.75,-0.27
1.04,0.73,-0.26
1.04,0.72,-0.24
1.04,0.72,-0.21
1,0.72,-0.19
0.97,0.74,-0.17
0.94,0.75,-0.16
0.93,0.74,-0.17
0.91,0.74,-0.17
0.89,0.73,-0.16
0.87,0.73,-0.13
0.85,0.73,-0.09
0.83,0.73,-0.05
0.8,0.74,-0.02
0.77,0.74,-0.01
0.74,0.74,0
0.7,0.74,0
0.67,0.73,0.01
0.64,0.73,0.02
0.61,0.72,0.05
0.57,0.71,0.09
0.52,0.73,0.12
0.49,0.73,0.15
0.48,0.73,0.17
0.43,0.73,0.18
0.37,0.73,0.19
0.33,0.74,0.2
0.3,0.74,0.2
0.24,0.73,0.21
0.17,0.72,0.18
0.1,0.7,0.21
0.01,0.68,0.25
-0.01,0.68,0.25
-0.03,0.69,0.25
-0.09,0.71,0.27
-0.16,0.72,0.25
-0.25,0.71,0.25
-0.25,0.69,0.26
-0.25,0.7,0.27
-0.29,0.7,0.27
-0.31,0.68,0.25
-0.4,0.67,0.23
-0.51,0.68,0.23
-0.55,0.67,0.26
-0.49,0.65,0.27
-0.47,0.65,0.27
-0.52,0.65,0.27
-0.56,0.64,0.27
-0.59,0.63,0.25
-0.63,0.64,0.24
-0.69,0.62,0.25
-0.72,0.61,0.26
-0.71,0.61,0.27
-0.74,0.61,0.28
-0.78,0.6,0.28
-0.8,0.59,0.3
-0.84,0.58,0.3
-0.9,0.57,0.31
-0.95,0.56,0.32
-0.99,0.56,0.33
-1.01,0.55,0.34
-1.03,0.54,0.37
-1.08,0.54,0.39
-1.13,0.54,0.41
-1.15,0.53,0.41
-1.18,0.53,0.38
-1.21,0.53,0.33
-1.22,0.53,0.29
-1.21,0.54,0.28
-1.19,0.55,0.29
-1.19,0.55,0.32
-1.18,0.55,0.33
-1.16,0.55,0.33
-1.11,0.56,0.32
-1.07,0.57,0.32
-1.02,0.57,0.29
-1.03,0.58,0.27
-1.07,0.58,0.25
-1,0.61,0.24
-0.93,0.61,0.27
-0.87,0.6,0.28
-0.79,0.62,0.31
-0.74,0.59,0.33
-0.71,0.6,0.33
-0.68,0.61,0.32
-0.63,0.62,0.33
-0.57,0.64,0.31
-0.55,0.63,0.29
-0.54,0.63,0.3
-0.51,0.64,0.32
-0.46,0.64,0.35
-0.4,0.63,0.33
-0.34,0.63,0.32
-0.3,0.64,0.34
-0.28,0.66,0.35
-0.26,0.67,0.35
-0.22,0.67,0.36
-0.17,0.66,0.36
-0.11,0.66,0.35
-0.08,0.68,0.33
-0.06,0.69,0.32
-0.03,0.7,0.31
0,0.71,0.32
0.02,0.72,0.31
0.03,0.74,0.29
0.04,0.75,0.25
0.08,0.75,0.21
0.12,0.76,0.18
0.18,0.79,0.18
0.2,0.8,0.18
0.22,0.8,0.18
0.25,0.79,0.2
0.29,0.78,0.21
0.32,0.77,0.2
0.33,0.78,0.17
0.34,0.8,0.12
0.36,0.8,0.09
0.39,0.79,0.07
0.43,0.78,0.07
0.46,0.77,0.07
0.48,0.75,0.07
0.52,0.74,0.05
0.56,0.73,0.03
0.59,0.73,-0.01
0.62,0.73,-0.04
0.66,0.73,-0.07
0.7,0.74,-0.11
0.73,0.74,-0.15
0.77,0.75,-0.2
0.81,0.76,-0.24
0.84,0.77,-0.27
0.87,0.79,-0.28
0.89,0.79,-0.29
0.91,0.8,-0.29
0.93,0.8,-0.29
0.94,0.82,-0.29
0.94,0.82,-0.3
0.95,0.83,-0.31
0.95,0.85,-0.33
0.96,0.87,-0.35
0.97,0.89,-0.36
0.99,0.89,-0.35
0.99,0.88,-0.33
0.97,0.87,-0.3
0.96,0.86,-0.28
0.94,0.85,-0.26
0.92,0.83,-0.25
0.91,0.81,-0.25
0.92,0.81,-0.25
0.92,0.8,-0.26
0.9,0.78,-0.26
0.88,0.77,-0.26
0.85,0.78,-0.25
0.82,0.79,-0.21
0.78,0.8,-0.18
0.72,0.79,-0.14
0.66,0.79,-0.11
0.62,0.79,-0.07
0.59,0.78,-0.05
0.57,0.77,-0.03
0.54,0.77,0.02
0.48,0.77,0.04
0.48,0.76,0.06
0.43,0.76,0.09
0.35,0.75,0.13
0.28,0.74,0.16
0.23,0.74,0.18
0.2,0.73,0.2
0.1,0.73,0.23
0.05,0.7,0.26
0.07,0.69,0.28
0.08,0.7,0.28
0.08,0.69,0.27
-0.01,0.69,0.29
-0.1,0.68,0.29
-0.17,0.67,0.29
-0.2,0.68,0.29
-0.17,0.68,0.28
-0.19,0.68,0.3
-0.22,0.66,0.35
-0.29,0.65,0.4
-0.27,0.64,0.41
-0.28,0.65,0.34
-0.4,0.66,0.31
-0.34,0.64,0.33
-0.37,0.65,0.3
-0.45,0.63,0.32
-0.47,0.62,0.35
-0.53,0.63,0.37
-0.64,0.62,0.37
-0.71,0.59,0.37
-0.63,0.62,0.37
-0.63,0.63,0.36
-0.67,0.6,0.37
-0.71,0.58,0.36
-0.72,0.58,0.37
-0.73,0.57,0.41
-0.86,0.56,0.45
-0.88,0.58,0.45
-0.9,0.57,0.47
-0.95,0.56,0.47
-0.97,0.55,0.45
-1.04,0.54,0.45
-1.07,0.56,0.44
-1.12,0.58,0.43
-1.16,0.58,0.44
-1.18,0.58,0.44
-1.19,0.58,0.45
-1.19,0.58,0.46
-1.19,0.58,0.44
-1.18,0.58,0.42
-1.16,0.58,0.41
-1.14,0.58,0.42
-1.04,0.58,0.43
-0.99,0.58,0.42
-0.96,0.58,0.42
-0.94,0.58,0.46
-0.87,0.58,0.46
-0.86,0.58,0.39
-0.85,0.58,0.41
-0.78,0.6,0.43
-0.7,0.62,0.38
-0.66,0.62,0.36
-0.65,0.61,0.39
-0.67,0.61,0.43
-0.69,0.62,0.48
-0.7,0.61,0.46
-0.66,0.61,0.4
-0.59,0.64,0.38
-0.53,0.65,0.38
-0.48,0.67,0.4
-0.43,0.67,0.42
-0.39,0.67,0.41
-0.36,0.68,0.41
-0.34,0.68,0.4
-0.32,0.67,0.38
-0.29,0.67,0.35
-0.26,0.68,0.33
-0.21,0.68,0.27
-0.09,0.67,0.23
-0.05,0.66,0.19
-0.02,0.66,0.18
0,0.66,0.17
0.02,0.66,0.15
0.04,0.68,0.13
0.06,0.71,0.11
0.08,0.75,0.11
0.11,0.78,0.1
0.14,0.81,0.09
0.17,0.81,0.08
0.21,0.82,0.07
0.22,0.82,0.08
0.22,0.83,0.07
0.24,0.84,0.06
0.25,0.85,0.06
0.27,0.86,0.06
0.31,0.87,0.05
0.34,0.87,0.04
0.36,0.88,0.03
0.38,0.89,-0.01
0.41,0.88,-0.06
0.43,0.86,-0.1
0.45,0.86,-0.11
0.46,0.85,-0.09
0.49,0.84,-0.1
0.55,0.84,-0.13
0.58,0.85,-0.18
0.6,0.86,-0.24
0.61,0.86,-0.28
0.64,0.85,-0.33
0.66,0.84,-0.35
0.69,0.82,-0.34
0.72,0.81,-0.33
0.76,0.81,-0.34
0.79,0.82,-0.35
0.81,0.84,-0.38
0.81,0.84,-0.4
0.82,0.86,-0.42
0.84,0.87,-0.43
0.85,0.87,-0.43
0.84,0.89,-0.41
0.83,0.9,-0.39
0.82,0.89,-0.36
0.79,0.9,-0.34
0.78,0.91,-0.33
0.77,0.92,-0.33
0.78,0.91,-0.33
0.78,0.9,-0.33
0.78,0.89,-0.32
0.78,0.87,-0.29
0.78,0.87,-0.22
0.75,0.86,-0.19
0.71,0.86,-0.17
0.69,0.85,-0.16
0.68,0.84,-0.15
0.67,0.82,-0.13
0.65,0.81,-0.11
0.6,0.8,-0.08
0.56,0.8,-0.05
0.52,0.8,-0.01
0.5,0.79,0.02
0.48,0.78,0.04
0.43,0.77,0.07
0.36,0.76,0.12
0.32,0.76,0.14
0.3,0.77,0.13
0.26,0.77,0.13
0.26,0.77,0.13
0.2,0.77,0.16
0.18,0.76,0.19
0.18,0.74,0.21
0.1,0.72,0.23
0.03,0.71,0.25
-0.05,0.72,0.27
-0.1,0.72,0.28
-0.08,0.71,0.28
-0.03,0.71,0.29
-0.16,0.7,0.31
-0.16,0.67,0.32
-0.18,0.66,0.36
-0.21,0.67,0.39
-0.26,0.67,0.38
-0.36,0.69,0.37
-0.48,0.69,0.38
-0.57,0.68,0.4
-0.53,0.68,0.41
-0.51,0.68,0.4
-0.57,0.68,0.39
-0.55,0.68,0.37
-0.59,0.65,0.32
-0.62,0.63,0.31
-0.66,0.64,0.32
-0.73,0.66,0.32
-0.77,0.65,0.35
-0.79,0.63,0.38
-0.73,0.63,0.38
-0.76,0.62,0.37
-0.83,0.59,0.39
-0.85,0.61,0.37
-0.87,0.62,0.36
-0.91,0.6,0.37
-0.95,0.59,0.38
-0.96,0.6,0.39
-1.03,0.57,0.39
-1.03,0.57,0.4
-1.01,0.59,0.38
-1.04,0.58,0.39
-1.07,0.56,0.41
-1.07,0.57,0.41
-1.07,0.58,0.41
-1.07,0.6,0.41
-1.07,0.61,0.42
-1.04,0.6,0.44
-0.99,0.59,0.46
-0.95,0.59,0.45
-0.91,0.59,0.43
-0.87,0.58,0.42
-0.84,0.6,0.45
-0.8,0.6,0.49
-0.74,0.61,0.5
-0.69,0.62,0.51
-0.68,0.62,0.5
-0.69,0.63,0.51
-0.68,0.65,0.54
-0.62,0.65,0.52
-0.6,0.65,0.52
-0.58,0.65,0.51
-0.53,0.66,0.49
-0.49,0.67,0.49
-0.46,0.7,0.48
-0.43,0.7,0.48
-0.39,0.71,0.49
-0.32,0.71,0.47
-0.26,0.72,0.44
-0.24,0.73,0.42
-0.22,0.73,0.41
-0.19,0.72,0.41
-0.15,0.73,0.39
-0.13,0.73,0.38
-0.12,0.74,0.37
-0.09,0.74,0.35
-0.06,0.75,0.34
-0.02,0.76,0.34
0.01,0.77,0.33
0.04,0.78,0.31
0.06,0.8,0.28
0.07,0.81,0.24
0.09,0.81,0.21
0.13,0.81,0.19
0.16,0.8,0.17
0.16,0.81,0.15
0.18,0.82,0.13
0.2,0.84,0.1
0.2,0.86,0.07
0.2,0.88,0.06
0.23,0.87,0.03
0.31,0.86,0
0.33,0.85,-0.03
0.33,0.84,-0.05
0.35,0.83,-0.05
0.38,0.82,-0.04
0.41,0.82,-0.02
0.43,0.82,-0.01
0.46,0.83,-0.02
0.48,0.84,-0.03
0.48,0.85,-0.06
0.48,0.86,-0.09
0.49,0.87,-0.11
0.51,0.86,-0.12
0.53,0.84,-0.13
0.54,0.83,-0.12
0.54,0.82,-0.12
0.54,0.81,-0.12
0.55,0.81,-0.14
0.56,0.82,-0.17
0.57,0.82,-0.21
0.58,0.81,-0.24
0.59,0.8,-0.29
0.6,0.79,-0.32
0.61,0.77,-0.35
0.63,0.76,-0.36
0.65,0.75,-0.37
0.69,0.75,-0.39
0.71,0.75,-0.41
0.72,0.76,-0.44
0.75,0.75,-0.46
0.77,0.74,-0.46
0.78,0.76,-0.47
0.79,0.77,-0.49
0.81,0.78,-0.5
0.82,0.79,-0.48
0.81,0.8,-0.46
0.79,0.82,-0.44
0.79,0.82,-0.43
0.81,0.82,-0.42
0.82,0.83,-0.4
0.81,0.84,-0.39
0.8,0.83,-0.38
0.8,0.84,-0.36
0.79,0.84,-0.34
0.77,0.83,-0.31
0.74,0.82,-0.26
0.73,0.81,-0.22
0.72,0.81,-0.18
0.72,0.81,-0.15
0.71,0.8,-0.15
0.71,0.8,-0.14
0.68,0.8,-0.08
0.61,0.78,-0.04
0.59,0.77,-0.01
0.58,0.76,0.03
0.55,0.76,0.06
0.53,0.77,0.09
0.52,0.78,0.09
0.46,0.75,0.14
0.41,0.73,0.21
0.38,0.73,0.2
0.39,0.75,0.18
0.35,0.75,0.19
0.27,0.74,0.21
0.21,0.74,0.23
0.16,0.72,0.26
0.12,0.7,0.31
0.05,0.71,0.34
-0.03,0.7,0.35
-0.09,0.69,0.36
-0.07,0.68,0.36
-0.13,0.67,0.36
-0.19,0.68,0.35
-0.23,0.69,0.35
-0.36,0.7,0.36
-0.46,0.7,0.34
-0.48,0.68,0.33
-0.52,0.68,0.3
-0.49,0.67,0.31
-0.6,0.66,0.33
-0.67,0.65,0.33
-0.64,0.66,0.35
-0.67,0.66,0.36
-0.67,0.64,0.38
-0.69,0.63,0.39
-0.75,0.61,0.43
-0.81,0.59,0.44
-0.85,0.58,0.43
-0.87,0.59,0.44
-0.93,0.6,0.44
-0.95,0.6,0.44
-0.95,0.59,0.42
-0.97,0.57,0.41
-0.98,0.57,0.44
-0.98,0.57,0.45
-0.99,0.57,0.47
-0.99,0.57,0.49
-0.97,0.57,0.49
-0.95,0.58,0.48
-0.94,0.57,0.47
-0.93,0.57,0.46
-0.91,0.58,0.46
-0.89,0.58,0.46
-0.87,0.59,0.47
-0.82,0.61,0.48
-0.78,0.62,0.47
-0.75,0.63,0.47
-0.75,0.63,0.46
-0.73,0.65,0.46
-0.72,0.66,0.46
-0.69,0.66,0.45
-0.66,0.66,0.46
-0.62,0.65,0.46
-0.6,0.66,0.46
-0.59,0.68,0.46
-0.53,0.68,0.44
-0.52,0.69,0.42
-0.51,0.69,0.45
-0.46,0.7,0.47
-0.42,0.7,0.45
-0.4,0.7,0.44
-0.37,0.73,0.42
-0.35,0.74,0.4
-0.3,0.74,0.39
-0.28,0.75,0.39
-0.26,0.76,0.38
-0.23,0.76,0.38
-0.21,0.77,0.39
-0.2,0.77,0.4
-0.15,0.79,0.42
-0.07,0.8,0.42
-0.04,0.8,0.41
-0.02,0.8,0.39
-0.01,0.8,0.35
0.01,0.8,0.32
0.03,0.8,0.31
0.06,0.8,0.29
0.1,0.79,0.29
0.14,0.79,0.28
0.18,0.79,0.27
0.21,0.8,0.25
0.22,0.81,0.24
0.24,0.81,0.22
0.26,0.81,0.18
0.29,0.8,0.15
0.31,0.8,0.12
0.33,0.8,0.11
0.36,0.79,0.11
0.38,0.78,0.12
0.4,0.78,0.13
0.43,0.77,0.12
0.45,0.76,0.11
0.47,0.75,0.08
0.47,0.74,0.06
0.47,0.73,0.02
0.5,0.71,-0.02
0.61,0.68,-0.09
0.65,0.68,-0.09
0.68,0.68,-0.09
0.71,0.68,-0.11
0.73,0.68,-0.14
0.76,0.68,-0.15
0.81,0.67,-0.17
0.88,0.67,-0.21
0.96,0.67,-0.27
1.01,0.69,-0.32
1.03,0.71,-0.32
1.02,0.73,-0.31
1.01,0.76,-0.29
1.01,0.78,-0.28
1.03,0.79,-0.26
1.02,0.8,-0.24
0.99,0.81,-0.22
0.96,0.83,-0.21
0.96,0.85,-0.2
0.97,0.86,-0.2
0.97,0.87,-0.19
0.97,0.86,-0.19
0.97,0.85,-0.18
0.98,0.84,-0.18
0.98,0.83,-0.17
0.98,0.82,-0.15
0.97,0.79,-0.11
0.92,0.78,-0.12
0.89,0.76,-0.11
0.87,0.74,-0.09
0.85,0.73,-0.06
0.83,0.72,-0.04
0.83,0.71,-0.02
0.82,0.71,0
0.77,0.71,0.02
0.72,0.71,0.02
0.68,0.71,0.03
0.64,0.71,0.06
0.59,0.71,0.1
0.56,0.7,0.13
0.49,0.72,0.18
0.46,0.74,0.2
0.45,0.73,0.21
0.37,0.72,0.23
0.33,0.73,0.24
0.36,0.72,0.22
0.3,0.73,0.24
0.17,0.73,0.31
0.13,0.69,0.34
0.15,0.69,0.34
0.15,0.71,0.33
0.09,0.72,0.3
-0.05,0.66,0.36
-0.06,0.66,0.36
-0.16,0.67,0.36
-0.25,0.65,0.33
-0.35,0.63,0.31
-0.36,0.62,0.31
-0.34,0.62,0.29
-0.36,0.62,0.29
-0.38,0.63,0.3
-0.45,0.63,0.28
-0.59,0.61,0.27
-0.62,0.61,0.29
-0.58,0.62,0.32
-0.64,0.6,0.35
-0.68,0.59,0.36
-0.72,0.59,0.34
-0.77,0.58,0.32
-0.8,0.59,0.29
-0.85,0.59,0.28
-0.92,0.57,0.31
-0.96,0.56,0.32
-0.96,0.56,0.33
-0.97,0.56,0.34
-0.99,0.56,0.34
-1.03,0.56,0.36
-1.07,0.57,0.38
-1.09,0.56,0.37
-1.09,0.56,0.36
-1.08,0.57,0.36
-1.07,0.57,0.35
-1.06,0.58,0.36
-1.03,0.59,0.37
-1.01,0.59,0.37
-0.98,0.59,0.37
-0.96,0.6,0.37
-0.93,0.61,0.37
-0.91,0.6,0.39
-0.9,0.59,0.41
-0.82,0.61,0.42
-0.79,0.61,0.45
-0.79,0.6,0.47
-0.79,0.6,0.46
-0.78,0.59,0.44
-0.76,0.58,0.46
-0.76,0.58,0.47
-0.74,0.58,0.45
-0.72,0.57,0.45
-0.67,0.58,0.46
-0.66,0.58,0.47
-0.64,0.57,0.46
-0.59,0.57,0.47
-0.6,0.58,0.46
-0.61,0.6,0.51
-0.47,0.63,0.49
-0.43,0.64,0.48
-0.4,0.65,0.47
-0.38,0.68,0.46
-0.36,0.69,0.41
-0.33,0.71,0.38
-0.3,0.74,0.37
-0.25,0.75,0.35
-0.21,0.74,0.34
-0.18,0.74,0.35
-0.14,0.73,0.36
-0.07,0.73,0.37
-0.01,0.73,0.36
0.05,0.74,0.35
0.09,0.74,0.32
0.13,0.75,0.31
0.16,0.75,0.31
0.19,0.75,0.3
0.21,0.75,0.3
0.22,0.75,0.29
0.23,0.76,0.27
0.24,0.76,0.25
0.26,0.77,0.22
0.28,0.77,0.2
0.32,0.76,0.18
0.36,0.76,0.15
0.41,0.79,0.13
0.43,0.79,0.11
0.44,0.79,0.1
0.45,0.79,0.09
0.45,0.79,0.06
0.46,0.78,0.04
0.48,0.77,0.02
0.51,0.77,0
0.53,0.78,-0.02
0.55,0.78,-0.05
0.56,0.78,-0.07
0.57,0.78,-0.1
0.58,0.79,-0.13
0.58,0.79,-0.15
0.59,0.8,-0.19
0.61,0.79,-0.24
0.64,0.8,-0.28
0.65,0.8,-0.32
0.67,0.79,-0.35
0.7,0.78,-0.39
0.74,0.77,-0.42
0.78,0.76,-0.44
0.82,0.75,-0.45
0.83,0.75,-0.43
0.83,0.77,-0.43
0.84,0.78,-0.47
0.86,0.8,-0.48
0.87,0.8,-0.49
0.88,0.81,-0.49
0.89,0.82,-0.5
0.89,0.82,-0.49
0.9,0.81,-0.47
0.9,0.82,-0.44
0.89,0.83,-0.42
0.89,0.82,-0.4
0.88,0.82,-0.38
0.86,0.82,-0.37
0.83,0.83,-0.36
0.81,0.82,-0.34
0.81,0.8,-0.31
0.81,0.8,-0.27
0.8,0.8,-0.24
0.78,0.79,-0.21
0.77,0.77,-0.19
0.74,0.76,-0.16
0.7,0.76,-0.13
0.67,0.75,-0.11
0.65,0.75,-0.1
0.63,0.75,-0.08
0.61,0.74,-0.03
0.59,0.73,0.01
0.55,0.72,0.13
0.5,0.72,0.14
0.48,0.71,0.15
0.42,0.71,0.17
0.36,0.71,0.19
0.35,0.69,0.2
0.31,0.68,0.23
0.28,0.69,0.24
0.28,0.67,0.23
0.16,0.66,0.26
0.14,0.67,0.28
0.13,0.68,0.28
0.09,0.69,0.31
0.08,0.69,0.34
-0.06,0.66,0.37
-0.12,0.67,0.36
-0.14,0.67,0.38
-0.18,0.63,0.41
-0.27,0.66,0.37
-0.34,0.7,0.36
-0.41,0.69,0.36
-0.51,0.67,0.34
-0.51,0.67,0.33
-0.55,0.68,0.31
-0.58,0.67,0.3
-0.58,0.66,0.32
-0.64,0.66,0.33
-0.75,0.66,0.26
-0.74,0.64,0.27
-0.75,0.62,0.28
-0.8,0.6,0.3
-0.82,0.58,0.3
-0.85,0.58,0.29
-0.88,0.59,0.28
-0.9,0.58,0.27
-0.93,0.58,0.25
-0.95,0.58,0.25
-0.96,0.58,0.26
-0.96,0.58,0.26
-0.97,0.58,0.26
-0.97,0.59,0.26
-0.99,0.58,0.25
-0.99,0.58,0.25
-0.98,0.58,0.26
-0.98,0.58,0.29
-0.98,0.59,0.31
-0.97,0.6,0.32
-0.95,0.61,0.32
-0.93,0.62,0.31
-0.91,0.62,0.3
-0.9,0.63,0.31
-0.91,0.63,0.32
-0.93,0.63,0.32
-0.93,0.68,0.33
-0.86,0.68,0.32
-0.85,0.66,0.35
-0.81,0.65,0.38
-0.75,0.66,0.39
-0.72,0.66,0.38
-0.71,0.67,0.39
-0.69,0.66,0.4
-0.65,0.66,0.41
-0.6,0.66,0.42
-0.6,0.66,0.4
-0.57,0.66,0.41
-0.51,0.65,0.43
-0.5,0.65,0.44
-0.45,0.67,0.46
-0.37,0.68,0.47
-0.3,0.68,0.47
-0.26,0.67,0.48
-0.22,0.69,0.48
-0.19,0.69,0.47
-0.16,0.69,0.45
-0.13,0.7,0.41
-0.1,0.71,0.38
-0.05,0.71,0.4
0,0.71,0.39
0.05,0.7,0.36
0.08,0.71,0.35
0.13,0.72,0.35
0.14,0.75,0.32
0.15,0.75,0.3
0.16,0.75,0.3
0.17,0.76,0.32
0.17,0.77,0.33
0.21,0.78,0.33
0.25,0.78,0.32
0.29,0.79,0.3
0.32,0.79,0.3
0.34,0.79,0.3
0.35,0.8,0.29
0.37,0.81,0.28
0.39,0.83,0.27
