Acc_x,Acc_y,Acc_z
0,0,0
0,0,0
0,0,0
0,0,0
0,0,0
0,0,0
0,0,0
0,0,0
0,0,0
0,0,0
0,0,0
0,0,0
0,0,0
0,0,0
0,0,0
0,0,0
0,0,0
0,0,0
0,0,0
0,0,0
0,0,0
0,0,0
0,0,0
0,0,0
0,0,0
0,0,0
0,0,0
0,0,0
0,0,0
0,0,0
0,0,0
0,0,0
0,0,0
0,0,0
0,0,0
0,0,0
0,0,0
0,0,0
0,0,0
0,0,0
0,0,0
0,0,0
0,0,0
0,0,0
0,0,0
0,0,0
0,0,0
0,0,0
0,0,0
0,0,0
0,0,0
0,0,0
0,0,0
0,0,0
0,0,0
0,0,0
0,0,0
0,0,0
0,0,0
0,0,0
0,0,0
0,0,0
0,0,0
0,0,0
0,0,0
0,0,0
0,0,0
0,0,0
0,0,0
0,0,0
0,0,0
0,0,0
0,0,0
0,0,0
0,0,0
0,0,0
0,0,0
0,0,0
0,0,0
0,0,0
0,0,0
0,0,0
0,0,0
0,0,0
0,0,0
0,0,0
0,0,0
0,0,0
0,0,0
0,0,0
0,0,0
0,0,0
0,0,0
0,0,0
0,0,0
0,0,0
0,0,0
0,0,0
0,0,0
0,0,0
0,0,0
0,0,0
0,0,0
0,0,0
0,0,0
0,0,0
0,0,0
0,0,0
0,0,0
0,0,0
0,0,0
0,0,0
0,0,0
0,0,0
0,0,0
0,0,0
0,0,0
0,0,0
0,0,0
0,0,0
0,0,0
0,0,0
0,0,0
0,0,0
0,0,0
0,0,0
0,0,0
0,0,0
0,0,0
0,0,0
0,0,0
0,0,0
0,0,0
0,0,0
0,0,0
0,0,0
0,0,0
0,0,0
0,0,0
0,0,0
0,0,0
0,0,0
0,0,0
0,0,0
0,0,0
0,0,0
0,0,0
0,0,0
0,0,0
0,0,0
0,0,0
0,0,0
0,0,0
0,0,0
0,0,0
0,0,0
0,0,0
0,0,0
0,0,0
0,0,0
0,0,0
0,0,0
0,0,0
0,0,0
0,0,0
0,0,0
0,0,0
0,0,0
0,0,0
0,0,0
0,0,0
0,0,0
0,0,0
0,0,0
0,0,0
0,0,0
0,0,0
0,0,0
0,0,0
0,0,0
0,0,0
0,0,0
0,0,0
0,0,0
0,0,0
0,0,0
0,0,0
0,0,0
0,0,0
0,0,0
0,0,0
0,0,0
0,0,0
0,0,0
0,0,0
0,0,0
0,0,0
0,0,0
0,0,0
0,0,0
0,0,0
0,0,0
0,0,0
0,0,0
0,0,0
0,0,0
0,0,0
0,0,0
0,0,0
0,0,0
0,0,0
0,0,0
0,0,0
0,0,0
0,0,0
0,0,0
0,0,0
0,0,0
0,0,0
0,0,0
0,0,0
0,0,0
0,0,0
0,0,0
0,0,0
0,0,0
0,0,0
0,0,0
0,0,0
0,0,0
0,0,0
0,0,0
0,0,0
0,0,0
0,0,0
0,0,0
0,0,0
0,0,0
0,0,0
0,0,0
0,0,0
0,0,0
0,0,0
0,0,0
0,0,0
0,0,0
0,0,0
0,0,0
0,0,0
0,0,0
0,0,0
0,0,0
0,0,0
0,0,0
0,0,0
0,0,0
0,0,0
0,0,0
0,0,0
0,0,0
0,0,0
0,0,0
0,0,0
0,0,0
0,0,0
0,0,0
0,0,0
0,0,0
0,0,0
0,0,0
0,0,0
0,0,0
0,0,0
0,0,0
0,0,0
0,0,0
0,0,0
0,0,0
0,0,0
0,0,0
0,0,0
0,0,0
0,0,0
0,0,0
0,0,0
0,0,0
0,0,0
0,0,0
0,0,0
0,0,0
0,0,0
0,0,0
0,0,0
0,0,0
0,0,0
0,0,0
0,0,0
0,0,0
0,0,0
0,0,0
0,0,0
0,0,0
0,0,0
0,0,0
0,0,0
0,0,0
0,0,0
0,0,0
0,0,0
0,0,0
0,0,0
0,0,0
0,0,0
0,0,0
0,0,0
0,0,0
0,0,0
0,0,0
0,0,0
0,0,0
0,0,0
0,0,0
0,0,0
0,0,0
0,0,0
0,0,0
0,0,0
0,0,0
0,0,0
0,0,0
0,0,0
0,0,0
0,0,0
0,0,0
0,0,0
0,0,0
0,0,0
0,0,0
0,0,0
0,0,0
0,0,0
0,0,0
0,0,0
0,0,0
0,0,0
0,0,0
0,0,0
0,0,0
0,0,0
0,0,0
0,0,0
0,0,0
0,0,0
0,0,0
0,0,0
0,0,0
0,0,0
0,0,0
0,0,0
0,0,0
0,0,0
0,0,0
0,0,0
0,0,0
0,0,0
0,0,0
0,0,0
0,0,0
0,0,0
0,0,0
0,0,0
0,0,0
0,0,0
0,0,0
0,0,0
0,0,0
0,0,0
0,0,0
0,0,0
0,0,0
0,0,0
0,0,0
0,0,0
0,0,0
0,0,0
0,0,0
0,0,0
0,0,0
0,0,0
0,0,0
0,0,0
0,0,0
0,0,0
0,0,0
0,0,0
0,0,0
0,0,0
0,0,0
0,0,0
0,0,0
0,0,0
0,0,0
0,0,0
0,0,0
0,0,0
0,0,0
0,0,0
0,0,0
0,0,0
0,0,0
0,0,0
0,0,0
0,0,0
0,0,0
0,0,0
0,0,0
0,0,0
0,0,0
0,0,0
0,0,0
0,0,0
0,0,0
0,0,0
0,0,0
0,0,0
0,0,0
0,0,0
0,0,0
0,0,0
0,0,0
0,0,0
0,0,0
0,0,0
0,0,0
0,0,0
0,0,0
0,0,0
0,0,0
0,0,0
0,0,0
0,0,0
0,0,0
0,0,0
0,0,0
0,0,0
0,0,0
0,0,0
0,0,0
0,0,0
0,0,0
0,0,0
0,0,0
0,0,0
0,0,0
0,0,0
0,0,0
0,0,0
0,0,0
0,0,0
0,0,0
0,0,0
0,0,0
0,0,0
0,0,0
0,0,0
0,0,0
0,0,0
0,0,0
0,0,0
0,0,0
0,0,0
0,0,0
0,0,0
0,0,0
0,0,0
0,0,0
0,0,0
0,0,0
0,0,0
0,0,0
0,0,0
0,0,0
0,0,0
0,0,0
0,0,0
0,0,0
0,0,0
0,0,0
0,0,0
0,0,0
0,0,0
0,0,0
0,0,0
0,0,0
0,0,0
0,0,0
0,0,0
0,0,0
0,0,0
0,0,0
0,0,0
0,0,0
0,0,0
0,0,0
0,0,0
0,0,0
0,0,0
0,0,0
0,0,0
0,0,0
0,0,0
0,0,0
0,0,0
0,0,0
0,0,0
0,0,0
0,0,0
0,0,0
0,0,0
0,0,0
0,0,0
0,0,0
0,0,0
0,0,0
0,0,0
0,0,0
0,0,0
0,0,0
0,0,0
0,0,0
0,0,0
0,0,0
0,0,0
0,0,0
0,0,0
0,0,0
0,0,0
0,0,0
0,0,0
0,0,0
0,0,0
0,0,0
0,0,0
0,0,0
0,0,0
0,0,0
0,0,0
0,0,0
0,0,0
0,0,0
0,0,0
0,0,0
0,0,0
0,0,0
0,0,0
0,0,0
0,0,0
0,0,0
0,0,0
0,0,0
0,0,0
0,0,0
0,0,0
0,0,0
0,0,0
0,0,0
0,0,0
0,0,0
0,0,0
0,0,0
0,0,0
0,0,0
0,0,0
0,0,0
0,0,0
0,0,0
0,0,0
0,0,0
0,0,0
0,0,0
0,0,0
0,0,0
0,0,0
0,0,0
0,0,0
0,0,0
0,0,0
0,0,0
0,0,0
0,0,0
0,0,0
0,0,0
0,0,0
0,0,0
0,0,0
0,0,0
0,0,0
0,0,0
0,0,0
0,0,0
0,0,0
0,0,0
0,0,0
0,0,0
0,0,0
0,0,0
0,0,0
0,0,0
0,0,0
0,0,0
0,0,0
0,0,0
0,0,0
0,0,0
0,0,0
0,0,0
0,0,0
0,0,0
0,0,0
0,0,0
0,0,0
0,0,0
0,0,0
0,0,0
0,0,0
0,0,0
0,0,0
0,0,0
0,0,0
0,0,0
0,0,0
0,0,0
0,0,0
0,0,0
0,0,0
0,0,0
0,0,0
0,0,0
0,0,0
0,0,0
0,0,0
0,0,0
0,0,0
0,0,0
0,0,0
0,0,0
0,0,0
0,0,0
0,0,0
0,0,0
0,0,0
0,0,0
0,0,0
0,0,0
0,0,0
0,0,0
0,0,0
0,0,0
0,0,0
0,0,0
0,0,0
0,0,0
0,0,0
0,0,0
0,0,0
0,0,0
0,0,0
0,0,0
0,0,0
0,0,0
0,0,0
0,0,0
0,0,0
0,0,0
0,0,0
0,0,0
0,0,0
0,0,0
0,0,0
0,0,0
0,0,0
0,0,0
0,0,0
0,0,0
0,0,0
0,0,0
0,0,0
0,0,0
0,0,0
0,0,0
0,0,0
0,0,0
0,0,0
0,0,0
0,0,0
0,0,0
0,0,0
0,0,0
0,0,0
0,0,0
0,0,0
0,0,0
0,0,0
0,0,0
0,0,0
0,0,0
0,0,0
0,0,0
0,0,0
0,0,0
0,0,0
0,0,0
0,0,0
0,0,0
0,0,0
0,0,0
0,0,0
0,0,0
0,0,0
0,0,0
0,0,0
0,0,0
0,0,0
0,0,0
0,0,0
0,0,0
0,0,0
0,0,0
0,0,0
0,0,0
0,0,0
0,0,0
0,0,0
0,0,0
0,0,0
0,0,0
0,0,0
0,0,0
0,0,0
0,0,0
0,0,0
0,0,0
0,0,0
0,0,0
0,0,0
0,0,0
0,0,0
0,0,0
0.49,0.02,0.88
0.49,0.02,0.89
0.5,0.01,0.89
0.51,0.01,0.89
0.51,0.01,0.88
0.49,0.01,0.87
0.49,0.01,0.88
0.49,0.01,0.88
0.49,0,0.88
0.49,0,0.88
0.49,0,0.88
0.49,0.01,0.88
0.49,0.01,0.88
0.48,0.02,0.88
0.5,0.01,0.88
0.5,0.01,0.88
0.5,0.01,0.88
0.49,0.01,0.88
0.49,0.01,0.88
0.49,0.01,0.88
0.49,0.01,0.88
0.5,0.01,0.87
0.5,0.01,0.88
0.49,0.01,0.88
0.48,0.01,0.88
0.48,0.01,0.88
0.49,0.01,0.88
0.5,0.01,0.88
0.51,0.01,0.87
0.51,0.01,0.87
0.49,0.01,0.88
0.49,0.02,0.89
0.49,0.02,0.89
0.48,0.02,0.89
0.48,0.01,0.88
0.5,0.01,0.88
0.5,0.01,0.88
0.5,0.01,0.89
0.49,0.01,0.88
0.49,0.01,0.88
0.48,0.01,0.88
0.48,0.01,0.89
0.48,0.01,0.88
0.49,0.01,0.89
0.49,0.02,0.89
0.5,0.01,0.88
0.5,0.01,0.88
0.5,0.01,0.88
0.48,0.01,0.89
0.47,0.01,0.89
0.48,0,0.89
0.48,0,0.88
0.48,0,0.88
0.49,0,0.89
0.49,0.01,0.89
0.48,0.01,0.9
0.48,0.01,0.89
0.49,0.01,0.89
0.49,0.01,0.88
0.49,0.01,0.88
0.48,0.02,0.89
0.47,0.02,0.9
0.47,0.02,0.89
0.47,0.01,0.88
0.49,0.02,0.89
0.49,0,0.88
0.51,0,0.87
0.52,-0.01,0.87
0.54,-0.02,0.86
0.54,-0.01,0.87
0.44,-0.01,0.87
0.46,0,0.85
0.52,0.02,0.88
0.5,0.01,0.91
0.46,0,0.88
0.42,-0.02,0.88
0.47,-0.01,0.89
0.47,-0.01,0.88
0.47,0.01,0.9
0.46,0.01,0.9
0.47,-0.01,0.87
0.49,0,0.89
0.49,0,0.89
0.46,-0.01,0.87
0.49,0.02,0.89
0.49,0.02,0.89
0.47,0.01,0.87
0.51,0.01,0.86
0.52,0.02,0.88
0.51,0.02,0.89
0.51,0,0.87
0.52,0,0.88
0.52,0.01,0.89
0.51,0,0.88
0.51,-0.01,0.87
0.51,-0.01,0.87
0.48,0,0.88
0.46,-0.01,0.88
0.44,-0.02,0.89
0.44,-0.02,0.91
0.47,0.01,0.95
0.52,0.03,0.94
0.54,-0.01,0.91
0.5,0.04,0.95
0.47,0.05,0.99
0.48,0.03,0.96
0.46,0.07,0.96
0.46,0.1,0.97
0.53,0.12,0.99
0.63,0.2,0.99
0.67,0.24,1.01
0.63,0.2,1.05
0.55,0.19,1.05
0.49,0.19,1.01
0.51,0.24,1.01
0.52,0.26,1.05
0.5,0.29,1.06
0.5,0.33,1.02
0.45,0.25,0.99
0.46,0.27,0.96
0.46,0.29,0.94
0.48,0.31,0.92
0.47,0.31,0.89
0.43,0.31,0.88
0.43,0.31,0.86
0.46,0.32,0.84
0.5,0.34,0.83
0.56,0.36,0.83
0.63,0.38,0.84
0.67,0.4,0.86
0.68,0.43,0.87
0.66,0.44,0.86
0.63,0.44,0.81
0.61,0.46,0.75
0.6,0.46,0.71
0.6,0.47,0.7
0.62,0.48,0.7
0.64,0.49,0.69
0.65,0.5,0.67
0.66,0.52,0.65
0.64,0.53,0.64
0.62,0.54,0.61
0.6,0.53,0.56
0.57,0.54,0.49
0.58,0.56,0.47
0.57,0.58,0.46
0.56,0.58,0.45
0.56,0.59,0.44
0.54,0.59,0.44
0.53,0.59,0.42
0.52,0.59,0.41
0.51,0.59,0.41
0.49,0.6,0.42
0.48,0.61,0.42
0.46,0.62,0.41
0.46,0.62,0.39
0.46,0.61,0.37
0.45,0.63,0.36
0.44,0.63,0.35
0.44,0.63,0.33
0.44,0.63,0.33
0.44,0.65,0.34
0.42,0.68,0.35
0.44,0.7,0.36
0.46,0.69,0.33
0.41,0.7,0.3
0.38,0.73,0.29
0.37,0.74,0.26
0.4,0.74,0.25
0.41,0.76,0.29
0.44,0.78,0.28
0.44,0.78,0.26
0.42,0.82,0.28
0.41,0.87,0.3
0.41,0.9,0.3
0.41,0.91,0.28
0.41,0.9,0.25
0.39,0.88,0.23
0.37,0.84,0.22
0.37,0.81,0.23
0.38,0.78,0.25
0.4,0.76,0.27
0.42,0.74,0.29
0.41,0.73,0.31
0.41,0.72,0.32
0.43,0.71,0.3
0.44,0.74,0.3
0.46,0.79,0.32
0.47,0.84,0.34
0.46,0.89,0.36
0.48,0.94,0.4
0.5,1,0.43
0.52,1.06,0.42
0.53,1.11,0.4
0.54,1.15,0.39
0.53,1.15,0.43
0.51,1.04,0.48
0.5,0.96,0.52
0.48,0.88,0.56
0.47,0.82,0.59
0.46,0.78,0.63
0.45,0.76,0.64
0.46,0.77,0.64
0.45,0.79,0.62
0.45,0.81,0.59
0.45,0.83,0.56
0.45,0.85,0.54
0.43,0.85,0.53
0.42,0.83,0.53
0.42,0.79,0.52
0.42,0.75,0.52
0.42,0.7,0.5
0.42,0.66,0.49
0.42,0.64,0.48
0.42,0.63,0.47
0.42,0.63,0.45
0.42,0.63,0.43
0.41,0.64,0.44
0.39,0.66,0.46
0.39,0.68,0.46
0.39,0.69,0.46
0.38,0.7,0.44
0.38,0.73,0.43
0.39,0.74,0.43
0.4,0.76,0.43
0.41,0.77,0.43
0.41,0.77,0.42
0.4,0.78,0.42
0.4,0.79,0.42
0.41,0.81,0.41
0.41,0.81,0.41
0.42,0.81,0.4
0.42,0.82,0.4
0.42,0.83,0.4
0.43,0.83,0.39
0.43,0.83,0.39
0.43,0.83,0.39
0.43,0.83,0.39
0.44,0.82,0.4
0.45,0.83,0.4
0.45,0.83,0.41
0.46,0.85,0.4
0.46,0.86,0.4
0.46,0.88,0.39
0.46,0.89,0.39
0.46,0.91,0.38
0.46,0.92,0.38
0.47,0.92,0.39
0.46,0.91,0.39
0.45,0.89,0.39
0.45,0.87,0.39
0.45,0.85,0.39
0.44,0.83,0.39
0.44,0.82,0.39
0.43,0.81,0.38
0.43,0.8,0.38
0.42,0.79,0.38
0.42,0.78,0.39
0.42,0.78,0.38
0.42,0.78,0.37
0.42,0.79,0.36
0.42,0.8,0.36
0.42,0.81,0.36
0.41,0.81,0.35
0.41,0.81,0.34
0.41,0.82,0.33
0.41,0.83,0.32
0.41,0.84,0.32
0.43,0.85,0.31
0.44,0.85,0.3
0.46,0.86,0.29
0.48,0.89,0.29
0.49,0.94,0.29
0.52,1.02,0.29
0.54,1.11,0.27
0.54,1.09,0.29
0.54,1.02,0.3
0.53,0.93,0.31
0.53,0.82,0.31
0.54,0.71,0.32
0.54,0.63,0.32
0.55,0.59,0.32
0.55,0.57,0.31
0.55,0.57,0.31
0.56,0.58,0.31
0.55,0.59,0.3
0.56,0.61,0.3
0.58,0.63,0.3
0.6,0.66,0.3
0.6,0.69,0.3
0.61,0.71,0.3
0.62,0.72,0.29
0.63,0.74,0.29
0.63,0.74,0.28
0.64,0.74,0.28
0.65,0.74,0.27
0.66,0.73,0.27
0.66,0.71,0.27
0.66,0.69,0.27
0.66,0.67,0.25
0.65,0.65,0.24
0.65,0.65,0.24
0.65,0.64,0.24
0.65,0.65,0.25
0.65,0.65,0.25
0.64,0.66,0.26
0.64,0.66,0.26
0.64,0.67,0.26
0.64,0.68,0.26
0.65,0.68,0.26
0.65,0.69,0.26
0.66,0.69,0.26
0.65,0.7,0.25
0.65,0.7,0.25
0.66,0.71,0.25
0.67,0.71,0.26
0.67,0.71,0.27
0.66,0.71,0.27
0.66,0.71,0.27
0.66,0.7,0.27
0.66,0.68,0.27
0.66,0.67,0.27
0.65,0.66,0.28
0.66,0.64,0.28
0.66,0.63,0.29
0.65,0.61,0.29
0.65,0.56,0.29
0.65,0.54,0.3
0.64,0.52,0.3
0.63,0.5,0.31
0.64,0.48,0.32
0.64,0.46,0.32
0.64,0.45,0.33
0.64,0.44,0.33
0.63,0.42,0.34
0.64,0.42,0.34
0.64,0.43,0.34
0.65,0.42,0.32
0.65,0.41,0.31
0.65,0.37,0.32
0.64,0.32,0.36
0.63,0.27,0.39
0.63,0.2,0.4
0.63,0.15,0.42
0.63,0.11,0.47
0.62,0.11,0.53
0.59,0.15,0.56
0.59,0.22,0.55
0.66,0.29,0.53
0.79,0.32,0.54
0.88,0.31,0.61
0.9,0.32,0.72
0.85,0.4,0.86
0.77,0.49,0.86
0.85,0.56,0.81
0.95,0.59,0.75
1.01,0.62,0.75
0.98,0.66,0.76
0.92,0.73,0.78
0.88,0.8,0.79
0.86,0.83,0.76
0.82,0.83,0.72
0.77,0.8,0.7
0.73,0.79,0.69
0.69,0.82,0.65
0.59,0.82,0.61
0.47,0.84,0.59
0.38,0.84,0.57
0.31,0.8,0.58
0.32,0.77,0.65
0.36,0.77,0.7
0.39,0.75,0.75
0.49,0.71,0.82
0.59,0.7,0.87
0.6,0.7,0.93
0.57,0.72,1
0.55,0.73,1.02
0.55,0.68,0.99
0.59,0.55,0.84
0.55,0.51,0.81
0.56,0.53,0.84
0.55,0.53,0.83
0.56,0.54,0.81
0.54,0.49,0.82
0.52,0.49,0.82
0.53,0.5,0.77
0.48,0.47,0.73
0.38,0.43,0.71
0.27,0.35,0.67
0.3,0.26,0.68
0.41,0.29,0.69
0.46,0.33,0.71
0.44,0.32,0.74
0.38,0.29,0.77
0.33,0.22,0.83
0.31,0.2,0.89
0.29,0.15,0.96
0.3,0.1,1.01
0.34,0.11,1.05
0.34,0.08,1.08
0.33,0.12,1.07
0.29,0.17,1.04
0.22,0.21,0.99
0.15,0.22,0.99
0.11,0.22,1.02
0.01,0.26,0.99
-0.05,0.28,0.96
-0.11,0.25,0.99
-0.11,0.23,1.03
-0.1,0.24,1.05
-0.14,0.24,1.05
-0.19,0.26,0.96
-0.25,0.34,0.78
-0.3,0.4,0.58
-0.32,0.39,0.43
-0.28,0.4,0.33
-0.18,0.43,0.27
-0.08,0.43,0.24
-0.08,0.44,0.32
-0.16,0.48,0.52
-0.16,0.46,0.67
-0.07,0.35,0.69
-0.03,0.21,0.63
0,0.1,0.45
0,0.07,0.13
-0.07,0.07,-0.13
-0.14,0.05,-0.15
-0.15,-0.03,0.13
-0.02,-0.17,0.73
0.28,-0.35,1.37
0.54,-0.52,1.8
0.46,-0.79,1.61
0.53,-0.94,1.16
0.56,-1.02,0.86
0.52,-0.96,0.91
0.49,-0.82,1.06
0.5,-0.71,1.07
0.59,-0.65,0.94
0.71,-0.6,0.79
0.75,-0.57,0.67
0.75,-0.58,0.59
0.72,-0.62,0.5
0.72,-0.66,0.35
0.76,-0.65,0.21
0.75,-0.61,0.12
0.71,-0.55,0.06
0.72,-0.53,-0.04
0.75,-0.55,-0.13
0.77,-0.6,-0.16
0.75,-0.66,-0.11
0.71,-0.71,0.01
0.68,-0.76,0.08
0.68,-0.82,0.1
0.69,-0.86,0.11
0.72,-0.85,0.13
0.75,-0.85,0.08
0.76,-0.89,0.19
0.77,-0.94,0.46
0.7,-0.94,0.75
0.54,-0.96,0.93
0.38,-1,0.88
0.33,-1.03,0.71
0.41,-1.01,0.56
0.61,-0.94,0.43
0.78,-0.86,0.49
0.87,-0.78,0.69
0.8,-0.68,0.82
0.55,-0.58,0.86
0.3,-0.45,0.8
0.17,-0.31,0.61
0.15,-0.19,0.4
0.24,-0.1,0.24
0.4,-0.06,0.22
0.52,-0.02,0.45
0.49,0.02,0.87
0.44,0.05,1.16
0.42,0.09,1.18
0.36,0.17,1.13
0.26,0.29,1.13
1.38,2.14,2.58
2.93,1.88,3.99
0.57,0.61,1.9
-2.05,-0.58,0.29
-0.29,-0.6,0.76
0.44,-0.27,1.13
0.56,-0.34,1.38
-0.15,-0.44,1.33
-0.29,-0.39,1.24
0.42,-0.25,0.97
1.02,-0.18,0.5
1.3,-0.15,0.23
1.19,-0.09,0.23
0.97,-0.03,0.51
0.73,0.02,0.85
0.39,0.09,1.09
0.11,0.11,1.19
0.07,0.1,1.16
0.25,0.07,1.04
0.47,0.04,0.91
0.61,0.04,0.83
0.64,0.05,0.82
0.54,0.05,0.83
0.49,0.06,0.94
0.33,0.01,0.97
0.24,0.02,0.96
0.38,0.07,0.98
0.41,0.02,0.93
0.41,-0.05,0.9
0.45,-0.07,0.93
0.53,-0.02,0.9
0.53,-0.03,0.83
0.49,-0.03,0.8
0.56,0,0.85
0.54,-0.01,0.89
0.48,-0.01,0.88
0.45,-0.01,0.89
0.45,-0.03,0.92
0.41,-0.03,0.91
0.41,-0.01,0.9
0.47,0.03,0.91
0.5,0.01,0.89
0.48,-0.04,0.86
0.48,-0.06,0.86
0.51,-0.07,0.87
0.51,-0.06,0.89
0.48,-0.04,0.87
0.49,-0.04,0.86
0.51,-0.07,0.87
0.48,-0.1,0.88
0.5,-0.1,0.89
0.49,-0.1,0.88
0.47,-0.13,0.88
0.48,-0.15,0.88
0.5,-0.16,0.87
0.5,-0.14,0.86
0.57,-0.08,0.86
0.55,-0.06,0.86
0.5,-0.06,0.86
0.46,-0.06,0.88
0.44,-0.07,0.9
0.47,-0.07,0.89
0.5,-0.05,0.87
0.54,-0.03,0.85
0.53,-0.01,0.84
0.5,-0.01,0.85
0.47,-0.01,0.88
0.47,-0.02,0.9
0.47,-0.03,0.89
0.47,-0.05,0.87
0.5,-0.06,0.86
0.53,-0.05,0.86
0.54,-0.04,0.85
0.55,-0.02,0.86
0.55,0,0.88
0.52,-0.01,0.88
0.5,0,0.88
0.48,0,0.88
0.45,0,0.88
0.45,0.03,0.9
0.44,0.04,0.9
0.41,0.04,0.91
0.42,0.01,0.92
0.46,0,0.92
0.5,-0.02,0.9
0.52,-0.04,0.87
0.54,-0.04,0.84
0.57,-0.02,0.84
0.59,-0.01,0.83
0.57,0,0.82
0.5,-0.02,0.85
0.46,-0.03,0.9
0.47,-0.04,0.92
0.48,-0.04,0.91
0.49,-0.02,0.88
0.51,0,0.87
0.53,-0.01,0.84
0.54,-0.01,0.83
0.52,-0.01,0.85
0.5,-0.01,0.84
0.51,-0.01,0.86
0.52,-0.02,0.88
0.52,-0.01,0.86
0.52,-0.02,0.84
0.54,-0.02,0.84
0.54,0,0.86
0.53,-0.02,0.87
0.56,-0.01,0.91
0.53,-0.02,0.85
0.56,0.02,0.84
0.57,0.03,0.84
0.55,0.01,0.85
0.52,0.03,0.84
0.63,0.03,0.81
0.69,0.07,0.82
0.66,0.12,0.83
0.63,0.11,0.81
0.57,0.11,0.81
0.54,0.09,0.83
0.56,0.09,0.86
0.57,0.09,0.87
0.58,0.09,0.84
0.6,0.09,0.81
0.6,0.08,0.8
0.6,0.06,0.79
0.57,0.02,0.8
0.56,-0.01,0.82
0.58,0,0.84
0.6,0.02,0.84
0.54,-0.02,0.78
0.58,0.02,0.75
0.64,0.08,0.77
0.59,0.04,0.76
0.61,0.01,0.78
0.56,-0.01,0.84
0.55,0,0.86
0.54,0,0.87
0.53,-0.02,0.83
0.56,0.02,0.8
0.6,0.07,0.82
0.58,0.07,0.83
0.56,0.05,0.81
0.56,0.02,0.82
0.56,0.01,0.84
0.55,0,0.86
0.56,0.01,0.86
0.56,0.02,0.87
0.6,0.06,0.87
0.61,0.07,0.85
0.58,0.08,0.83
0.56,0.09,0.83
0.56,0.09,0.82
0.57,0.08,0.82
0.56,0.07,0.84
0.56,0.07,0.83
0.57,0.07,0.82
0.57,0.07,0.82
0.57,0.08,0.83
0.56,0.07,0.83
0.55,0.06,0.84
0.56,0.04,0.83
0.6,0.04,0.83
0.59,0.04,0.83
0.58,0.04,0.83
0.57,0.05,0.84
0.55,0.05,0.84
0.54,0.05,0.84
0.53,0.05,0.84
0.62,0.07,0.88
0.63,0.11,0.88
0.55,0.08,0.85
0.56,0.03,0.84
0.59,0.04,0.84
0.58,0.05,0.84
0.55,0.06,0.85
0.55,0.05,0.85
0.53,0.06,0.85
0.51,0.05,0.85
0.52,0.04,0.85
0.51,0.02,0.86
0.5,0.01,0.87
0.52,0,0.86
0.54,0,0.86
0.52,0.01,0.87
0.5,0,0.87
0.51,0,0.86
0.55,0.02,0.88
0.48,0.02,0.87
0.55,0.01,0.87
0.56,0.02,0.86
0.53,0.02,0.85
0.53,0.01,0.85
0.52,0,0.86
0.53,0,0.87
0.55,0,0.86
0.54,0.01,0.86
0.53,0.01,0.85
0.53,0.01,0.85
0.53,0.01,0.85
0.53,0.02,0.85
0.53,0.02,0.86
0.52,0.02,0.85
0.51,0.01,0.86
0.52,0.01,0.86
0.54,0.01,0.86
0.55,0.01,0.85
0.55,0.01,0.85
0.55,0.01,0.85
0.54,0.02,0.85
0.54,0.01,0.85
0.55,0.01,0.85
0.56,0.02,0.85
0.57,0.01,0.84
0.56,0.01,0.84
0.55,0.01,0.85
0.54,0.01,0.85
0.53,0.01,0.85
0.52,0.01,0.86
0.52,0.01,0.86
0.53,0.01,0.86
0.53,0.01,0.85
0.55,0,0.84
0.55,0,0.85
0.55,0.05,0.93
0.58,0.1,0.9
0.58,0.05,0.82
0.55,0,0.84
0.53,0.01,0.85
0.53,0.02,0.86
0.54,0.02,0.85
0.54,0.01,0.85
0.51,-0.02,0.86
0.54,-0.01,0.85
0.56,0.02,0.85
0.53,0.01,0.85
0.54,0.01,0.85
0.53,0.01,0.85
0.53,0,0.85
0.54,0,0.86
0.57,0,0.84
0.57,0.01,0.84
0.56,0.01,0.84
0.58,0.02,0.91
0.6,0.05,0.91
0.54,0.03,0.85
0.5,0.01,0.87
0.51,0.02,0.87
0.52,0.02,0.87
0.53,0.02,0.86
0.53,0.02,0.86
0.53,0.02,0.86
0.53,0.02,0.86
0.53,0.01,0.86
0.54,0.01,0.85
0.55,0.01,0.85
0.54,0.01,0.85
0.54,0.01,0.86
0.54,0.01,0.86
0.54,0.01,0.85
0.54,0.01,0.85
0.53,0.01,0.86
0.53,0.01,0.86
0.53,0.01,0.86
0.53,0.01,0.86
0.53,0.01,0.86
0.53,0.02,0.86
0.53,0.01,0.86
0.54,0.01,0.85
0.55,0.01,0.85
0.55,0.01,0.85
0.55,0.01,0.85
0.54,0.01,0.85
0.54,0.01,0.86
0.54,0.02,0.86
0.53,0.02,0.86
0.52,0.02,0.86
0.52,0.01,0.86
0.52,0.01,0.86
0.53,0,0.86
0.54,0.01,0.86
0.54,0.01,0.86
0.54,0.01,0.85
0.53,0.01,0.86
0.53,0.02,0.86
0.53,0.02,0.86
0.53,0.02,0.86
0.52,0.02,0.86
0.52,0.02,0.86
0.54,0.02,0.86
0.54,0.02,0.86
0.53,0.01,0.86
0.53,0.01,0.86
0.53,0.01,0.86
0.53,0.01,0.86
0.52,0.01,0.86
0.5,-0.01,0.86
0.5,0,0.87
0.52,0.02,0.87
0.52,0.01,0.87
0.52,0.01,0.87
0.53,0,0.86
0.53,-0.01,0.86
0.54,0,0.86
0.54,0,0.84
0.54,-0.01,0.84
0.56,-0.01,0.84
0.56,-0.01,0.84
0.56,-0.02,0.84
0.54,-0.02,0.84
0.54,-0.02,0.85
0.55,-0.02,0.85
0.54,-0.02,0.85
0.54,-0.02,0.86
0.54,-0.02,0.86
0.53,-0.02,0.86
0.52,-0.02,0.86
0.52,-0.02,0.87
0.52,0,0.87
0.53,0.01,0.86
0.52,0.01,0.86
0.52,0,0.86
0.52,-0.01,0.86
0.53,-0.02,0.87
0.53,-0.01,0.87
0.53,-0.01,0.86
0.53,-0.02,0.85
0.54,-0.02,0.85
0.54,-0.03,0.85
0.54,-0.04,0.85
0.55,-0.05,0.85
0.55,-0.06,0.85
0.55,-0.05,0.85
0.55,-0.05,0.85
0.56,-0.04,0.85
0.56,-0.04,0.85
0.55,-0.03,0.85
0.55,-0.03,0.84
0.56,-0.03,0.84
0.56,-0.02,0.83
0.56,-0.02,0.84
0.55,-0.02,0.84
0.55,-0.02,0.85
0.54,-0.03,0.85
0.54,-0.03,0.85
0.55,-0.03,0.85
0.55,-0.03,0.84
0.56,-0.03,0.84
0.55,-0.04,0.84
0.55,-0.04,0.83
0.56,-0.04,0.84
0.56,-0.03,0.85
0.55,-0.02,0.85
0.55,-0.02,0.84
0.55,-0.01,0.84
0.56,-0.02,0.85
0.56,-0.02,0.84
0.55,-0.03,0.84
0.55,-0.03,0.84
0.55,-0.03,0.85
0.55,-0.03,0.85
0.55,-0.02,0.85
0.56,-0.02,0.85
0.55,-0.02,0.85
0.54,-0.03,0.84
0.54,-0.03,0.84
0.55,-0.03,0.84
0.57,-0.04,0.84
0.58,-0.04,0.84
0.57,-0.05,0.83
0.57,-0.04,0.84
0.58,-0.04,0.84
0.58,-0.04,0.83
0.58,-0.04,0.83
0.57,-0.04,0.83
0.57,-0.04,0.83
0.58,-0.03,0.83
0.6,-0.03,0.83
0.6,-0.03,0.82
0.6,-0.04,0.81
0.59,-0.04,0.81
0.58,-0.04,0.82
0.58,-0.04,0.83
0.58,-0.04,0.83
0.58,-0.04,0.83
0.59,-0.04,0.83
0.59,-0.04,0.82
0.59,-0.04,0.82
0.58,-0.04,0.82
0.58,-0.04,0.82
0.57,-0.04,0.83
0.58,-0.04,0.83
0.58,-0.04,0.83
0.58,-0.04,0.82
0.58,-0.04,0.82
0.58,-0.04,0.82
0.59,-0.05,0.82
0.59,-0.05,0.82
0.57,-0.05,0.82
0.57,-0.05,0.83
0.59,-0.05,0.83
0.59,-0.04,0.83
0.59,-0.04,0.82
0.59,-0.03,0.82
0.59,-0.03,0.82
0.59,-0.03,0.82
0.59,-0.04,0.81
0.59,-0.04,0.82
0.59,-0.04,0.82
0.59,-0.04,0.82
0.59,-0.04,0.82
0.59,-0.04,0.82
0.59,-0.04,0.82
0.59,-0.05,0.82
0.59,-0.04,0.82
0.59,-0.04,0.82
0.59,-0.05,0.82
0.58,-0.04,0.82
0.58,-0.04,0.82
0.58,-0.04,0.82
0.58,-0.04,0.83
0.59,-0.04,0.83
0.59,-0.04,0.82
0.58,-0.04,0.82
0.59,-0.04,0.82
0.59,-0.04,0.82
0.59,-0.05,0.82
0.59,-0.05,0.82
0.59,-0.04,0.82
0.6,-0.04,0.82
0.59,-0.04,0.82
0.59,-0.04,0.82
0.58,-0.04,0.83
0.58,-0.04,0.83
0.58,-0.04,0.83
0.58,-0.04,0.83
0.59,-0.04,0.82
0.59,-0.04,0.82
0.59,-0.04,0.81
0.59,-0.04,0.81
0.59,-0.04,0.82
0.59,-0.04,0.83
0.58,-0.04,0.83
0.58,-0.04,0.83
0.59,-0.04,0.83
0.59,-0.04,0.82
0.59,-0.04,0.82
0.59,-0.04,0.82
0.58,-0.05,0.82
0.58,-0.05,0.83
0.59,-0.05,0.82
0.59,-0.05,0.82
0.59,-0.04,0.82
0.59,-0.04,0.82
0.59,-0.03,0.82
0.59,-0.03,0.82
0.58,-0.04,0.82
0.58,-0.03,0.83
0.58,-0.04,0.83
0.58,-0.04,0.83
0.59,-0.04,0.83
0.58,-0.04,0.82
0.58,-0.04,0.82
0.59,-0.04,0.82
0.59,-0.05,0.82
0.59,-0.04,0.82
0.59,-0.04,0.82
0.59,-0.04,0.82
0.59,-0.04,0.82
0.58,-0.04,0.82
0.58,-0.04,0.82
0.58,-0.04,0.83
0.58,-0.04,0.83
0.58,-0.03,0.83
0.58,-0.04,0.82
0.6,-0.05,0.82
0.61,-0.05,0.81
0.63,-0.05,0.8
0.64,-0.05,0.79
0.63,-0.05,0.78
0.61,-0.05,0.79
0.6,-0.05,0.79
0.6,-0.06,0.8
0.6,-0.05,0.81
0.6,-0.06,0.81
0.6,-0.06,0.81
0.61,-0.06,0.8
0.62,-0.05,0.79
0.63,-0.05,0.79
0.61,-0.05,0.8
0.59,-0.05,0.82
0.57,-0.05,0.83
0.56,-0.05,0.85
0.55,-0.05,0.85
0.56,-0.04,0.85
0.56,-0.04,0.84
0.57,-0.04,0.84
0.58,-0.04,0.83
0.58,-0.05,0.83
0.57,-0.05,0.83
0.57,-0.06,0.83
0.57,-0.06,0.84
0.58,-0.06,0.84
0.58,-0.07,0.83
0.58,-0.08,0.82
0.59,-0.07,0.81
0.6,-0.07,0.81
0.59,-0.07,0.81
0.59,-0.07,0.82
0.59,-0.06,0.82
0.59,-0.06,0.82
0.59,-0.06,0.82
0.59,-0.05,0.82
0.58,-0.05,0.82
0.58,-0.05,0.82
0.58,-0.06,0.82
0.58,-0.06,0.82
0.58,-0.06,0.83
0.58,-0.06,0.83
0.58,-0.06,0.83
0.58,-0.06,0.82
0.58,-0.06,0.82
0.58,-0.06,0.82
0.59,-0.06,0.82
0.59,-0.06,0.82
0.59,-0.06,0.82
0.59,-0.06,0.82
0.58,-0.05,0.82
0.58,-0.05,0.82
0.59,-0.05,0.82
0.58,-0.06,0.82
0.58,-0.06,0.82
0.58,-0.06,0.82
0.58,-0.06,0.82
0.59,-0.06,0.82
0.59,-0.06,0.82
0.59,-0.06,0.82
0.59,-0.06,0.82
0.59,-0.06,0.82
0.59,-0.06,0.82
0.59,-0.06,0.82
0.59,-0.06,0.82
0.59,-0.06,0.82
0.59,-0.06,0.82
0.59,-0.06,0.82
0.59,-0.07,0.82
0.59,-0.06,0.82
0.6,-0.06,0.82
0.59,-0.06,0.82
0.59,-0.06,0.82
0.59,-0.06,0.82
0.58,-0.06,0.82
0.58,-0.05,0.82
0.58,-0.06,0.82
0.58,-0.06,0.82
0.59,-0.06,0.82
0.58,-0.06,0.82
0.58,-0.06,0.82
0.58,-0.06,0.82
0.58,-0.06,0.82
0.59,-0.06,0.82
0.59,-0.06,0.82
0.59,-0.06,0.82
0.58,-0.06,0.82
0.58,-0.07,0.82
0.58,-0.06,0.82
0.58,-0.06,0.82
0.58,-0.06,0.82
0.58,-0.06,0.82
0.59,-0.06,0.82
0.59,-0.06,0.82
0.59,-0.06,0.82
0.59,-0.06,0.82
0.59,-0.06,0.82
0.58,-0.06,0.82
0.59,-0.06,0.82
0.58,-0.06,0.82
0.58,-0.06,0.82
0.59,-0.06,0.82
0.59,-0.06,0.82
0.59,-0.06,0.82
0.58,-0.06,0.82
0.58,-0.06,0.82
0.58,-0.06,0.82
0.58,-0.06,0.82
0.58,-0.06,0.82
0.59,-0.06,0.82
0.59,-0.06,0.82
0.59,-0.07,0.82
0.59,-0.07,0.82
0.59,-0.06,0.82
0.58,-0.06,0.83
0.58,-0.06,0.83
0.58,-0.06,0.83
0.58,-0.06,0.82
0.59,-0.06,0.82
0.59,-0.06,0.82
0.59,-0.06,0.82
0.59,-0.06,0.82
0.58,-0.06,0.82
0.59,-0.06,0.82
0.59,-0.06,0.82
0.58,-0.06,0.82
0.58,-0.06,0.82
0.59,-0.06,0.82
0.59,-0.06,0.82
0.59,-0.06,0.82
0.59,-0.06,0.82
0.59,-0.06,0.82
0.59,-0.06,0.82
0.59,-0.06,0.82
0.59,-0.06,0.82
0.59,-0.06,0.82
0.59,-0.06,0.82
0.59,-0.06,0.82
0.59,-0.06,0.81
0.59,-0.06,0.82
0.59,-0.06,0.82
0.59,-0.06,0.82
0.59,-0.06,0.82
0.59,-0.07,0.82
0.59,-0.07,0.82
0.59,-0.07,0.82
0.59,-0.07,0.82
0.59,-0.07,0.82
0.59,-0.07,0.82
0.59,-0.07,0.82
0.59,-0.07,0.82
0.59,-0.06,0.82
0.59,-0.06,0.82
0.59,-0.06,0.82
0.59,-0.06,0.82
0.59,-0.07,0.82
0.59,-0.07,0.82
0.59,-0.07,0.82
0.59,-0.07,0.82
0.59,-0.07,0.82
0.59,-0.07,0.82
0.58,-0.06,0.82
0.59,-0.06,0.82
0.59,-0.07,0.82
0.59,-0.07,0.82
0.59,-0.07,0.82
0.59,-0.06,0.82
0.58,-0.06,0.82
0.59,-0.06,0.82
0.59,-0.06,0.82
0.59,-0.06,0.82
0.59,-0.06,0.82
0.59,-0.06,0.82
0.59,-0.06,0.82
0.59,-0.06,0.83
0.59,-0.06,0.83
0.59,-0.06,0.82
0.59,-0.06,0.82
0.6,-0.06,0.82
0.61,-0.07,0.8
0.6,-0.09,0.79
0.62,-0.09,0.78
0.63,-0.09,0.78
0.64,-0.09,0.78
0.64,-0.09,0.78
0.64,-0.08,0.78
0.64,-0.08,0.78
0.63,-0.08,0.78
0.63,-0.08,0.78
0.64,-0.08,0.78
0.63,-0.08,0.79
0.63,-0.08,0.79
0.62,-0.08,0.8
0.62,-0.08,0.8
0.61,-0.08,0.8
0.61,-0.07,0.81
0.61,-0.08,0.8
0.61,-0.07,0.8
0.61,-0.08,0.8
0.62,-0.07,0.8
0.61,-0.07,0.8
0.61,-0.07,0.8
0.62,-0.07,0.8
0.63,-0.07,0.8
0.64,-0.08,0.79
0.63,-0.08,0.78
0.64,-0.09,0.77
0.64,-0.09,0.77
0.64,-0.09,0.77
0.65,-0.09,0.77
0.65,-0.09,0.77
0.65,-0.09,0.77
0.64,-0.09,0.77
0.64,-0.09,0.78
0.64,-0.09,0.78
0.64,-0.09,0.78
0.64,-0.09,0.78
0.64,-0.08,0.78
0.64,-0.08,0.78
0.64,-0.08,0.78
0.64,-0.08,0.78
0.64,-0.08,0.78
0.65,-0.08,0.78
0.65,-0.08,0.78
0.65,-0.08,0.78
0.65,-0.08,0.77
0.65,-0.08,0.76
0.65,-0.08,0.76
0.66,-0.09,0.76
0.66,-0.09,0.76
0.67,-0.09,0.76
0.67,-0.09,0.75
0.66,-0.09,0.76
0.66,-0.09,0.76
0.66,-0.09,0.76
0.66,-0.09,0.77
0.65,-0.09,0.77
0.65,-0.09,0.77
0.65,-0.09,0.77
0.65,-0.08,0.77
0.65,-0.08,0.77
0.65,-0.07,0.77
0.66,-0.08,0.77
0.66,-0.08,0.76
0.66,-0.08,0.76
0.66,-0.09,0.76
0.66,-0.09,0.76
0.66,-0.09,0.76
0.66,-0.09,0.76
0.66,-0.09,0.76
0.66,-0.1,0.76
0.66,-0.1,0.76
0.67,-0.1,0.76
0.66,-0.09,0.76
0.67,-0.09,0.76
0.67,-0.09,0.76
0.66,-0.09,0.76
0.66,-0.08,0.76
0.66,-0.09,0.76
0.66,-0.09,0.76
0.66,-0.09,0.76
0.66,-0.09,0.76
0.66,-0.09,0.76
0.66,-0.09,0.76
0.66,-0.09,0.76
0.66,-0.09,0.76
0.66,-0.09,0.76
0.66,-0.09,0.76
0.66,-0.09,0.76
0.66,-0.09,0.76
0.66,-0.09,0.76
0.66,-0.09,0.76
0.66,-0.09,0.76
0.66,-0.1,0.76
0.66,-0.09,0.76
0.67,-0.09,0.76
0.67,-0.08,0.76
0.66,-0.08,0.76
0.66,-0.08,0.76
0.66,-0.08,0.76
0.65,-0.08,0.77
0.65,-0.08,0.77
0.65,-0.08,0.77
0.65,-0.08,0.77
0.66,-0.09,0.77
0.66,-0.09,0.76
0.66,-0.09,0.76
0.66,-0.09,0.77
0.66,-0.09,0.77
0.66,-0.09,0.77
0.66,-0.09,0.76
0.66,-0.09,0.76
0.66,-0.09,0.76
0.66,-0.09,0.76
0.66,-0.09,0.76
0.66,-0.09,0.76
0.66,-0.09,0.76
0.66,-0.09,0.76
0.66,-0.09,0.76
0.66,-0.09,0.76
0.66,-0.09,0.77
0.66,-0.09,0.77
0.66,-0.09,0.77
0.65,-0.09,0.77
0.65,-0.09,0.77
0.65,-0.09,0.77
0.65,-0.09,0.77
0.66,-0.09,0.77
0.66,-0.09,0.77
0.66,-0.09,0.77
0.66,-0.09,0.77
0.66,-0.09,0.77
0.66,-0.09,0.76
0.65,-0.09,0.77
0.65,-0.09,0.77
0.65,-0.09,0.77
0.65,-0.09,0.77
0.65,-0.09,0.77
0.66,-0.08,0.77
0.66,-0.09,0.77
0.66,-0.09,0.77
0.66,-0.1,0.77
0.66,-0.09,0.77
0.66,-0.09,0.77
0.66,-0.09,0.77
0.65,-0.08,0.77
0.65,-0.09,0.77
0.66,-0.09,0.77
0.66,-0.08,0.76
0.66,-0.09,0.76
0.66,-0.09,0.76
0.66,-0.09,0.76
0.66,-0.1,0.76
0.66,-0.09,0.76
0.67,-0.09,0.76
0.66,-0.09,0.76
0.66,-0.09,0.76
0.66,-0.09,0.76
0.66,-0.09,0.76
0.66,-0.09,0.76
0.66,-0.09,0.76
0.66,-0.08,0.76
0.66,-0.09,0.76
0.66,-0.09,0.76
0.66,-0.09,0.75
0.66,-0.1,0.75
0.66,-0.09,0.76
0.66,-0.09,0.76
0.66,-0.09,0.76
0.66,-0.09,0.76
0.66,-0.09,0.76
0.66,-0.09,0.76
0.66,-0.09,0.76
0.66,-0.09,0.76
0.66,-0.09,0.77
0.66,-0.09,0.76
0.66,-0.09,0.76
0.66,-0.09,0.76
0.66,-0.09,0.76
0.66,-0.09,0.76
0.66,-0.09,0.76
0.66,-0.09,0.76
0.66,-0.09,0.76
0.67,-0.09,0.76
0.67,-0.09,0.76
0.66,-0.09,0.76
0.66,-0.09,0.76
0.66,-0.09,0.76
0.66,-0.09,0.77
0.66,-0.09,0.77
0.66,-0.09,0.77
0.65,-0.09,0.77
0.66,-0.09,0.77
0.66,-0.09,0.77
0.66,-0.09,0.76
0.66,-0.09,0.76
0.66,-0.09,0.76
0.66,-0.09,0.76
0.66,-0.09,0.76
0.66,-0.09,0.76
0.66,-0.09,0.76
0.66,-0.09,0.76
0.66,-0.09,0.77
0.66,-0.09,0.76
0.66,-0.09,0.77
0.66,-0.09,0.77
0.66,-0.09,0.76
0.66,-0.09,0.77
0.65,-0.09,0.76
0.66,-0.09,0.76
0.65,-0.09,0.77
0.65,-0.09,0.77
0.66,-0.09,0.77
0.66,-0.09,0.77
0.66,-0.09,0.77
0.65,-0.09,0.77
0.66,-0.09,0.77
0.66,-0.09,0.77
0.66,-0.09,0.76
0.65,-0.09,0.76
0.66,-0.09,0.76
0.66,-0.09,0.76
0.66,-0.09,0.76
0.66,-0.09,0.76
0.66,-0.09,0.77
0.65,-0.09,0.77
0.65,-0.09,0.77
0.66,-0.09,0.77
0.66,-0.09,0.77
0.66,-0.09,0.76
0.66,-0.09,0.76
0.66,-0.09,0.76
0.66,-0.09,0.76
0.66,-0.09,0.76
0.66,-0.1,0.77
0.66,-0.09,0.77
0.66,-0.09,0.77
0.66,-0.09,0.77
0.66,-0.09,0.77
0.66,-0.09,0.76
0.66,-0.09,0.76
0.66,-0.09,0.76
0.66,-0.09,0.76
0.66,-0.09,0.76
0.67,-0.09,0.76
0.66,-0.09,0.76
0.66,-0.1,0.76
0.65,-0.1,0.76
0.65,-0.1,0.76
0.66,-0.1,0.77
0.66,-0.09,0.77
0.65,-0.09,0.77
0.66,-0.09,0.77
0.65,-0.1,0.77
0.65,-0.09,0.76
0.66,-0.09,0.77
0.66,-0.09,0.77
0.66,-0.09,0.76
0.66,-0.09,0.76
0.66,-0.09,0.76
0.66,-0.09,0.77
0.65,-0.09,0.77
0.65,-0.09,0.77
0.65,-0.09,0.77
0.65,-0.09,0.77
0.65,-0.09,0.77
0.66,-0.09,0.77
0.66,-0.09,0.77
0.66,-0.09,0.77
0.65,-0.09,0.77
0.65,-0.09,0.77
0.65,-0.09,0.77
0.65,-0.09,0.77
0.65,-0.1,0.77
0.66,-0.1,0.76
0.66,-0.1,0.76
0.65,-0.1,0.76
0.65,-0.1,0.76
0.66,-0.1,0.77
0.65,-0.09,0.77
0.65,-0.09,0.77
0.64,-0.09,0.77
0.65,-0.09,0.77
0.64,-0.09,0.77
0.64,-0.09,0.77
0.65,-0.09,0.77
0.64,-0.09,0.78
0.64,-0.09,0.77
0.64,-0.09,0.77
0.64,-0.09,0.77
0.65,-0.09,0.77
0.65,-0.1,0.77
0.65,-0.09,0.77
0.65,-0.09,0.77
0.65,-0.09,0.77
0.65,-0.09,0.77
0.65,-0.09,0.77
0.65,-0.09,0.77
0.65,-0.09,0.77
0.65,-0.09,0.78
0.64,-0.09,0.78
0.64,-0.09,0.78
0.64,-0.09,0.78
0.64,-0.09,0.78
0.64,-0.09,0.77
0.65,-0.09,0.77
0.64,-0.09,0.78
0.64,-0.09,0.78
0.65,-0.09,0.78
0.65,-0.09,0.78
0.64,-0.09,0.77
0.65,-0.09,0.77
0.64,-0.09,0.78
0.64,-0.09,0.78
0.64,-0.09,0.78
0.64,-0.09,0.78
0.64,-0.09,0.78
0.64,-0.09,0.78
0.65,-0.09,0.78
0.65,-0.09,0.78
0.65,-0.09,0.77
0.64,-0.09,0.77
0.64,-0.1,0.77
0.64,-0.1,0.78
0.64,-0.09,0.78
0.64,-0.09,0.78
0.64,-0.09,0.78
0.64,-0.09,0.78
0.64,-0.09,0.78
0.64,-0.09,0.78
0.64,-0.09,0.78
0.64,-0.09,0.78
0.64,-0.09,0.78
0.65,-0.09,0.78
0.64,-0.1,0.78
0.64,-0.1,0.78
0.64,-0.09,0.78
0.64,-0.09,0.78
0.64,-0.09,0.78
0.64,-0.09,0.78
0.64,-0.09,0.78
0.64,-0.09,0.78
0.64,-0.09,0.78
0.64,-0.09,0.78
0.64,-0.09,0.78
0.64,-0.09,0.78
0.64,-0.09,0.78
0.64,-0.09,0.78
0.64,-0.09,0.77
0.65,-0.09,0.77
0.65,-0.09,0.78
0.65,-0.09,0.77
0.65,-0.1,0.77
0.64,-0.1,0.77
0.65,-0.1,0.77
0.65,-0.1,0.78
0.64,-0.09,0.77
0.65,-0.09,0.77
0.65,-0.09,0.77
0.65,-0.09,0.77
0.65,-0.09,0.77
0.65,-0.09,0.77
0.65,-0.08,0.77
0.65,-0.09,0.77
0.64,-0.08,0.77
0.65,-0.08,0.77
0.65,-0.08,0.76
0.65,-0.08,0.76
0.66,-0.08,0.75
0.67,-0.07,0.76
0.67,-0.07,0.77
0.66,-0.07,0.77
0.64,-0.08,0.78
0.63,-0.08,0.79
0.62,-0.09,0.8
0.61,-0.1,0.8
0.61,-0.1,0.8
0.61,-0.11,0.8
0.61,-0.11,0.79
0.63,-0.11,0.79
0.63,-0.1,0.79
0.64,-0.09,0.79
0.65,-0.09,0.78
0.64,-0.1,0.78
0.64,-0.1,0.78
0.64,-0.09,0.79
0.63,-0.1,0.78
0.63,-0.09,0.79
0.63,-0.08,0.78
0.62,-0.08,0.77
0.63,-0.08,0.79
0.63,-0.08,0.79
0.64,-0.07,0.79
0.64,-0.07,0.79
0.64,-0.07,0.79
0.63,-0.07,0.8
0.63,-0.07,0.79
0.63,-0.07,0.79
0.63,-0.07,0.79
0.63,-0.08,0.79
0.63,-0.08,0.78
0.64,-0.09,0.78
0.64,-0.09,0.78
0.64,-0.09,0.78
0.63,-0.1,0.78
0.63,-0.1,0.78
0.63,-0.1,0.78
0.63,-0.1,0.78
0.63,-0.1,0.78
0.63,-0.1,0.78
0.64,-0.09,0.78
0.65,-0.09,0.79
0.64,-0.09,0.78
0.64,-0.08,0.78
0.63,-0.08,0.78
0.63,-0.08,0.78
0.63,-0.09,0.78
0.63,-0.09,0.78
0.65,-0.09,0.78
0.65,-0.09,0.78
0.65,-0.09,0.77
0.65,-0.1,0.77
0.64,-0.11,0.77
0.6,-0.14,0.79
0.61,-0.11,0.81
0.63,-0.08,0.79
0.62,-0.08,0.78
0.66,-0.06,0.78
0.69,-0.06,0.74
0.7,-0.07,0.71
0.67,-0.06,0.74
0.64,-0.04,0.78
0.7,0,0.78
0.76,0.03,0.77
0.74,0.03,0.77
0.68,0.01,0.76
0.65,-0.01,0.74
0.65,-0.05,0.72
0.67,-0.09,0.73
0.68,-0.12,0.75
0.7,-0.13,0.75
0.71,-0.14,0.75
0.69,-0.13,0.77
0.67,-0.1,0.76
0.69,-0.1,0.75
0.7,-0.09,0.73
0.71,-0.09,0.7
0.71,-0.1,0.69
0.71,-0.12,0.69
0.69,-0.13,0.72
0.69,-0.14,0.77
0.7,-0.14,0.81
0.7,-0.15,0.85
0.72,-0.17,0.85
0.78,-0.18,0.8
0.87,-0.27,0.73
0.92,-0.43,0.65
0.91,-0.49,0.62
0.91,-0.47,0.67
0.9,-0.46,0.75
0.89,-0.41,0.81
0.89,-0.34,0.88
0.84,-0.28,0.95
0.78,-0.23,1.01
0.76,-0.15,1.03
0.77,-0.07,1.04
0.75,-0.03,1.02
0.73,-0.01,0.98
0.71,-0.01,0.93
0.69,-0.03,0.82
0.63,-0.02,0.79
0.64,-0.01,0.73
0.66,-0.04,0.68
0.68,-0.05,0.66
0.66,-0.04,0.66
0.64,-0.04,0.67
0.63,-0.06,0.65
0.6,-0.07,0.64
0.58,-0.07,0.66
0.6,-0.06,0.7
0.61,-0.07,0.74
0.61,-0.08,0.77
0.62,-0.08,0.77
0.65,-0.09,0.77
0.68,-0.08,0.75
0.7,-0.07,0.74
0.7,-0.04,0.73
0.71,0,0.72
0.72,0.03,0.72
0.72,0.05,0.74
0.72,0.06,0.76
0.71,0.07,0.75
0.69,0.09,0.72
0.68,0.11,0.68
0.68,0.13,0.64
0.69,0.19,0.61
0.75,0.21,0.61
0.78,0.24,0.62
0.8,0.25,0.63
0.8,0.26,0.64
0.79,0.26,0.67
0.76,0.25,0.69
0.74,0.26,0.69
0.72,0.27,0.68
0.72,0.28,0.7
0.74,0.29,0.72
0.76,0.29,0.76
0.76,0.28,0.81
0.76,0.26,0.85
0.76,0.24,0.86
0.75,0.21,0.84
0.73,0.17,0.84
0.74,0.15,0.85
0.77,0.13,0.91
0.81,0.1,0.98
0.84,0.08,1.04
0.86,0.07,1.06
0.87,0.06,1.05
0.86,0.06,1.04
0.85,0.06,1.03
0.85,0.05,1.02
0.86,0.06,1.04
0.9,0.07,1.05
0.93,0.07,1.03
0.94,0.07,1.01
0.95,0.06,0.98
0.95,0.06,0.95
0.95,0.06,0.92
0.95,0.06,0.92
0.93,0.09,0.96
0.9,0.1,0.97
0.87,0.1,0.94
0.86,0.11,0.89
0.85,0.11,0.83
0.85,0.11,0.81
0.83,0.14,0.81
0.8,0.17,0.79
0.75,0.2,0.73
0.71,0.21,0.63
0.68,0.19,0.54
0.65,0.17,0.49
0.6,0.17,0.48
0.55,0.17,0.5
0.5,0.18,0.55
0.46,0.19,0.62
0.42,0.19,0.67
0.39,0.18,0.67
0.35,0.14,0.61
0.29,0.1,0.57
0.29,0.07,0.53
0.31,0.06,0.49
0.31,0.06,0.5
0.29,0.06,0.54
0.26,0.07,0.58
0.23,0.08,0.6
0.2,0.04,0.58
0.18,0.03,0.55
0.16,0.06,0.55
0.15,0.06,0.56
0.17,0.1,0.57
0.16,0.17,0.64
0.12,0.22,0.7
0.12,0.24,0.7
0.09,0.27,0.68
0.06,0.3,0.68
0.03,0.34,0.69
-0.01,0.37,0.69
-0.02,0.42,0.69
-0.06,0.51,0.72
-0.09,0.57,0.74
-0.09,0.59,0.76
-0.11,0.61,0.79
-0.16,0.63,0.79
-0.19,0.63,0.76
-0.15,0.63,0.72
-0.15,0.64,0.7
-0.19,0.66,0.68
-0.22,0.68,0.66
-0.24,0.71,0.64
-0.26,0.68,0.62
-0.26,0.63,0.57
-0.27,0.58,0.55
-0.29,0.51,0.55
-0.29,0.48,0.54
-0.29,0.47,0.56
-0.28,0.5,0.59
-0.28,0.54,0.64
-0.24,0.58,0.69
-0.22,0.59,0.71
-0.24,0.59,0.75
-0.25,0.57,0.78
-0.25,0.59,0.78
-0.26,0.6,0.78
-0.28,0.59,0.77
-0.29,0.56,0.77
-0.3,0.55,0.81
-0.29,0.55,0.9
-0.27,0.58,0.97
-0.28,0.61,1.03
-0.28,0.64,1.01
-0.26,0.68,0.96
-0.26,0.67,0.94
-0.25,0.66,0.94
-0.24,0.66,0.94
-0.25,0.65,0.94
-0.27,0.63,0.95
-0.29,0.62,0.96
-0.3,0.6,0.99
-0.31,0.59,1.02
-0.32,0.58,1.05
-0.33,0.59,1.06
-0.36,0.59,1.04
-0.37,0.58,1
-0.37,0.56,0.94
-0.37,0.54,0.88
-0.36,0.52,0.82
-0.34,0.5,0.78
-0.3,0.51,0.76
-0.27,0.52,0.75
-0.27,0.54,0.75
-0.27,0.56,0.75
-0.28,0.57,0.72
-0.28,0.56,0.69
-0.28,0.55,0.67
-0.27,0.53,0.62
-0.26,0.51,0.51
-0.25,0.53,0.5
-0.25,0.58,0.51
-0.25,0.64,0.53
-0.27,0.66,0.54
-0.3,0.65,0.54
-0.3,0.63,0.53
-0.27,0.61,0.51
-0.24,0.61,0.5
-0.24,0.63,0.5
-0.26,0.67,0.53
-0.31,0.72,0.58
-0.36,0.77,0.64
-0.39,0.8,0.69
-0.39,0.81,0.72
-0.39,0.79,0.7
-0.4,0.75,0.64
-0.43,0.69,0.63
-0.45,0.66,0.69
-0.46,0.68,0.78
-0.45,0.71,0.87
-0.43,0.74,0.93
-0.4,0.75,0.95
-0.39,0.73,0.92
-0.37,0.7,0.85
-0.35,0.67,0.79
-0.32,0.67,0.78
-0.27,0.73,0.83
-0.22,0.76,0.87
-0.13,0.79,0.88
-0.04,0.8,0.82
0.04,0.8,0.75
0.11,0.82,0.71
0.13,0.83,0.68
0.09,0.83,0.68
0.06,0.83,0.73
0.06,0.87,0.74
0.05,0.97,0.72
0.05,1.07,0.73
0.05,1.13,0.76
0.05,1.16,0.79
0.06,1.16,0.82
0.07,1.15,0.81
0.08,1.13,0.77
0.07,1.11,0.73
0.06,1.09,0.7
0.06,1.08,0.65
0.07,1.06,0.62
0.08,1.05,0.62
0.08,1.05,0.62
0.07,1.04,0.61
0.06,1.02,0.61
0.04,1.02,0.56
0.03,1,0.55
0.03,0.98,0.52
0.02,0.96,0.48
0.02,0.94,0.45
0.03,0.94,0.45
0.04,0.94,0.46
0.05,0.94,0.49
0.04,0.92,0.52
0.03,0.91,0.54
0.01,0.9,0.53
0.01,0.9,0.51
0.01,0.91,0.49
0.02,0.92,0.47
0.03,0.94,0.47
0.04,0.94,0.47
0.05,0.94,0.47
0.06,0.96,0.47
0.09,0.99,0.48
0.09,0.98,0.49
0.09,0.98,0.48
0.09,0.99,0.47
0.1,1.01,0.47
0.06,1.02,0.49
0.05,1.06,0.49
0.1,1.13,0.46
0.13,1.16,0.41
0.19,1.11,0.4
0.22,1.09,0.4
0.23,1.1,0.42
0.22,1.14,0.45
0.21,1.17,0.48
0.2,1.23,0.49
0.2,1.2,0.51
0.17,1.16,0.51
0.19,1.13,0.46
0.23,1.05,0.41
0.24,1.03,0.37
0.26,1.08,0.36
0.26,1.11,0.38
0.26,1.1,0.43
0.25,1.09,0.47
0.24,1.08,0.49
0.22,1.06,0.49
0.2,1.04,0.45
0.19,1.01,0.4
0.2,1,0.36
0.22,1.04,0.34
0.24,1.08,0.34
0.26,1.04,0.36
0.28,0.98,0.37
0.31,0.95,0.38
0.31,0.91,0.37
0.26,0.87,0.35
0.24,0.85,0.32
0.23,0.83,0.3
0.23,0.83,0.28
0.24,0.83,0.29
0.25,0.8,0.3
0.26,0.77,0.3
0.26,0.73,0.3
0.27,0.71,0.28
0.27,0.7,0.25
0.27,0.68,0.23
0.26,0.66,0.22
0.25,0.64,0.2
0.26,0.61,0.19
0.27,0.6,0.19
0.28,0.58,0.19
0.29,0.56,0.18
0.29,0.55,0.19
0.31,0.55,0.19
0.34,0.53,0.16
0.35,0.51,0.16
0.34,0.51,0.16
0.34,0.5,0.16
0.34,0.5,0.16
0.34,0.5,0.16
0.34,0.49,0.16
0.33,0.47,0.19
0.34,0.47,0.2
0.36,0.46,0.21
0.38,0.46,0.22
0.4,0.47,0.24
0.43,0.49,0.26
0.45,0.51,0.28
0.47,0.54,0.29
0.48,0.57,0.3
0.48,0.61,0.31
0.47,0.66,0.3
0.46,0.7,0.29
0.44,0.74,0.29
0.42,0.79,0.29
0.41,0.83,0.29
0.4,0.87,0.3
0.4,0.91,0.31
0.41,0.95,0.32
0.42,0.99,0.32
0.43,1.01,0.32
0.44,1.02,0.31
0.45,1.02,0.3
0.45,1.03,0.28
0.46,1.03,0.26
0.46,1.03,0.24
0.46,1.04,0.23
0.45,1.04,0.19
0.44,1.03,0.16
0.43,1.03,0.14
0.43,1.01,0.13
0.42,1.01,0.13
0.4,1,0.14
0.39,1,0.14
0.38,0.99,0.14
0.37,1,0.14
0.36,1.01,0.12
0.36,1.02,0.1
0.36,1.02,0.08
0.38,1.01,0.05
0.38,1,0.04
0.37,1,0.04
0.36,1.01,0.06
0.34,1.02,0.08
0.34,1.02,0.1
0.33,1.01,0.12
0.32,1.01,0.13
0.32,1.01,0.12
0.31,1.02,0.11
0.3,1.03,0.09
0.29,1.04,0.09
0.29,1.04,0.09
0.3,1.04,0.09
0.3,1,0.09
0.32,0.97,0.1
0.33,0.93,0.11
0.34,0.89,0.12
0.35,0.84,0.13
0.36,0.79,0.14
0.37,0.75,0.16
0.4,0.74,0.17
0.42,0.74,0.18
0.44,0.75,0.18
0.44,0.76,0.18
0.44,0.77,0.18
0.45,0.8,0.18
0.46,0.82,0.18
0.47,0.84,0.18
0.48,0.86,0.18
0.48,0.87,0.19
0.48,0.88,0.2
0.49,0.89,0.2
0.49,0.9,0.21
0.51,0.92,0.21
0.53,0.94,0.23
0.55,0.95,0.23
0.59,0.96,0.25
0.61,0.97,0.26
0.61,0.95,0.26
0.62,0.91,0.28
0.62,0.87,0.3
0.62,0.84,0.33
0.62,0.8,0.35
0.63,0.76,0.36
0.62,0.73,0.36
0.62,0.71,0.36
0.63,0.72,0.36
0.63,0.73,0.36
0.64,0.74,0.37
0.64,0.73,0.4
0.63,0.71,0.41
0.62,0.69,0.42
0.6,0.66,0.43
0.57,0.63,0.43
0.56,0.6,0.43
0.56,0.57,0.42
0.57,0.56,0.42
0.59,0.55,0.42
0.61,0.54,0.42
0.62,0.52,0.42
0.61,0.51,0.43
0.6,0.5,0.42
0.6,0.49,0.42
0.6,0.47,0.42
0.61,0.47,0.42
0.61,0.47,0.42
0.61,0.46,0.43
0.61,0.47,0.44
0.62,0.48,0.44
0.63,0.48,0.45
0.63,0.5,0.46
0.63,0.51,0.47
0.62,0.51,0.48
0.61,0.51,0.48
0.61,0.51,0.48
0.61,0.5,0.48
0.61,0.5,0.49
0.61,0.5,0.51
0.6,0.5,0.53
0.58,0.51,0.55
0.57,0.51,0.57
0.56,0.51,0.57
0.56,0.5,0.57
0.55,0.5,0.56
0.56,0.49,0.54
0.58,0.48,0.5
0.6,0.47,0.46
0.61,0.47,0.44
0.6,0.46,0.41
0.59,0.44,0.39
0.6,0.43,0.38
0.61,0.43,0.37
0.68,0.43,0.36
0.7,0.47,0.36
0.72,0.51,0.36
0.77,0.52,0.34
0.76,0.52,0.32
0.76,0.53,0.29
0.77,0.53,0.26
0.78,0.54,0.24
0.78,0.54,0.25
0.77,0.54,0.28
0.74,0.55,0.3
0.7,0.57,0.32
0.67,0.59,0.32
0.66,0.62,0.31
0.67,0.66,0.3
0.71,0.69,0.27
0.77,0.71,0.24
0.8,0.71,0.25
0.79,0.7,0.27
0.75,0.65,0.3
0.69,0.59,0.32
0.64,0.52,0.34
0.62,0.47,0.35
0.62,0.45,0.35
0.63,0.44,0.35
0.65,0.44,0.43
0.68,0.43,0.46
0.67,0.41,0.48
0.66,0.39,0.49
0.65,0.37,0.5
0.65,0.36,0.5
0.66,0.36,0.51
0.68,0.37,0.53
0.72,0.38,0.56
0.77,0.39,0.58
0.81,0.39,0.6
0.84,0.4,0.62
0.86,0.41,0.65
0.86,0.4,0.67
0.84,0.39,0.69
0.82,0.38,0.71
0.81,0.36,0.73
0.8,0.33,0.75
0.78,0.3,0.77
0.76,0.26,0.79
0.74,0.23,0.79
0.73,0.22,0.78
0.75,0.22,0.76
0.76,0.23,0.75
0.77,0.24,0.75
0.76,0.25,0.76
0.74,0.25,0.78
0.71,0.21,0.8
0.7,0.19,0.82
0.68,0.17,0.84
0.68,0.16,0.86
0.67,0.16,0.86
0.69,0.15,0.87
0.71,0.15,0.89
0.7,0.13,0.9
0.66,0.12,0.91
0.63,0.11,0.92
0.62,0.09,0.92
0.6,0.08,0.91
0.57,0.08,0.89
0.54,0.09,0.84
0.51,0.1,0.79
0.51,0.11,0.77
0.53,0.09,0.77
0.54,0.03,0.77
0.55,-0.03,0.8
0.54,-0.1,0.84
0.52,-0.18,0.86
0.53,-0.22,0.87
0.55,-0.25,0.85
0.58,-0.26,0.85
0.62,-0.26,0.87
0.64,-0.24,0.93
0.62,-0.14,0.96
0.63,-0.1,0.97
0.65,-0.08,0.96
0.65,-0.07,0.95
0.65,-0.06,0.95
0.61,-0.07,0.94
0.58,-0.07,0.91
0.62,-0.07,0.88
0.63,-0.08,0.87
0.55,-0.1,0.87
0.49,-0.12,0.87
0.46,-0.13,0.84
0.45,-0.12,0.82
0.44,-0.12,0.81
0.45,-0.12,0.82
0.47,-0.12,0.82
0.5,-0.11,0.83
0.52,-0.07,0.85
0.51,-0.05,0.86
0.5,-0.06,0.85
0.52,-0.05,0.81
0.54,-0.04,0.8
0.56,-0.08,0.84
0.61,-0.09,0.88
0.64,-0.06,0.89
0.64,-0.08,0.86
0.64,-0.12,0.83
0.64,-0.1,0.8
0.64,-0.11,0.77
0.65,-0.12,0.74
0.69,-0.11,0.71
0.69,-0.09,0.69
0.68,-0.06,0.67
0.71,-0.04,0.65
0.75,-0.01,0.64
0.76,0,0.66
0.77,0,0.69
0.79,0.02,0.72
0.78,0.05,0.76
0.75,0.06,0.77
0.73,0.02,0.79
0.73,0.01,0.8
0.72,0.03,0.8
0.66,0.03,0.8
0.6,0,0.8
0.57,-0.01,0.8
0.57,-0.01,0.81
0.58,0,0.84
0.56,0.01,0.86
0.53,0.01,0.87
0.53,-0.01,0.86
0.54,-0.04,0.8
0.57,-0.08,0.8
0.59,-0.08,0.81
0.56,-0.08,0.83
0.52,-0.08,0.85
0.53,-0.1,0.85
0.53,-0.12,0.87
0.52,-0.12,0.87
0.54,-0.13,0.85
0.57,-0.11,0.82
0.58,-0.09,0.81
0.59,-0.05,0.81
0.59,-0.02,0.83
0.56,-0.03,0.82
0.55,-0.02,0.82
0.58,0.01,0.84
0.58,0.03,0.84
0.57,0.02,0.84
0.58,0.02,0.83
0.6,0.03,0.82
0.62,0.03,0.83
0.63,0.03,0.83
0.6,0.02,0.83
0.58,0.01,0.82
0.58,0,0.82
0.59,-0.02,0.79
0.62,-0.02,0.8
0.63,-0.01,0.8
0.61,0,0.81
0.58,0,0.81
0.57,0,0.83
0.57,-0.01,0.84
0.57,-0.01,0.84
0.57,-0.01,0.84
0.58,-0.01,0.83
0.58,-0.02,0.82
0.57,-0.02,0.82
0.57,-0.01,0.82
0.58,-0.01,0.82
0.57,0,0.83
0.57,0.01,0.86
0.58,0.01,0.86
0.56,0.01,0.85
0.55,0.01,0.83
0.55,0.01,0.83
0.57,0.02,0.83
0.6,0.02,0.83
0.6,0.01,0.81
0.59,0.01,0.82
0.58,0.02,0.83
0.58,0.03,0.84
0.57,0.02,0.84
0.56,0.01,0.83
0.58,0.01,0.82
0.59,0.02,0.83
0.58,0.02,0.83
0.58,0.02,0.83
0.56,0.02,0.84
0.56,0.02,0.84
0.57,0.01,0.83
0.57,0.01,0.84
0.57,0.01,0.84
0.57,0,0.83
0.58,0,0.83
0.57,0,0.83
0.57,0,0.84
0.57,0.01,0.84
0.56,0.01,0.84
0.56,0.01,0.84
0.57,0.01,0.83
0.57,0.01,0.83
0.58,0.01,0.83
0.58,0.01,0.83
0.58,0.01,0.83
0.57,0.01,0.84
0.57,0.01,0.84
0.56,0.01,0.83
0.57,0.01,0.83
0.57,0,0.82
0.57,0.01,0.83
0.57,0.01,0.83
0.57,0.01,0.83
0.57,0.02,0.83
0.56,0.02,0.84
0.56,0.02,0.84
0.57,0.02,0.84
0.57,0.02,0.84
0.57,0.01,0.83
0.57,0.01,0.83
0.57,0.01,0.84
0.57,0.01,0.84
0.57,0.01,0.83
0.57,0.01,0.83
0.57,0.01,0.83
0.56,0.01,0.84
0.56,0.01,0.84
0.56,0.01,0.84
0.56,0.01,0.84
0.57,0.01,0.84
0.58,0,0.83
0.59,0,0.82
