Acc_x,Acc_y,Acc_z
0,0,0
0,0,0
0,0,0
0,0,0
0,0,0
0,0,0
0,0,0
0,0,0
0,0,0
0,0,0
0,0,0
0,0,0
0,0,0
0,0,0
0,0,0
0,0,0
0,0,0
0,0,0
0,0,0
0,0,0
0,0,0
0,0,0
0,0,0
0,0,0
0,0,0
0,0,0
0,0,0
0,0,0
0,0,0
0,0,0
0,0,0
0,0,0
0,0,0
0,0,0
0,0,0
0,0,0
0,0,0
0,0,0
0,0,0
0,0,0
0,0,0
0,0,0
0,0,0
0,0,0
0,0,0
0,0,0
0,0,0
0,0,0
0,0,0
0,0,0
0,0,0
0,0,0
0,0,0
0,0,0
0,0,0
0,0,0
0,0,0
0,0,0
0,0,0
0,0,0
0,0,0
0,0,0
0,0,0
0,0,0
0,0,0
0,0,0
0,0,0
0,0,0
0,0,0
0,0,0
0,0,0
0,0,0
0,0,0
0,0,0
0,0,0
0,0,0
0,0,0
0,0,0
0,0,0
0,0,0
0,0,0
0,0,0
0,0,0
0,0,0
0,0,0
0,0,0
0,0,0
0,0,0
0,0,0
0,0,0
0,0,0
0,0,0
0,0,0
0,0,0
0,0,0
0,0,0
0,0,0
0,0,0
0,0,0
0,0,0
0,0,0
0,0,0
0,0,0
0,0,0
0,0,0
0,0,0
0,0,0
0,0,0
0,0,0
0,0,0
0,0,0
0,0,0
0,0,0
0,0,0
0,0,0
0,0,0
0,0,0
0,0,0
0,0,0
0,0,0
0,0,0
0,0,0
0,0,0
0,0,0
0,0,0
0,0,0
0,0,0
0,0,0
0,0,0
0,0,0
0,0,0
0,0,0
0,0,0
0,0,0
0,0,0
0,0,0
0,0,0
0,0,0
0,0,0
0,0,0
0,0,0
0,0,0
0,0,0
0,0,0
0,0,0
0,0,0
0,0,0
0,0,0
0,0,0
0,0,0
0,0,0
0,0,0
0,0,0
0,0,0
0,0,0
0,0,0
0,0,0
0,0,0
0,0,0
0,0,0
0,0,0
0,0,0
0,0,0
0,0,0
0,0,0
0,0,0
0,0,0
0,0,0
0,0,0
0,0,0
0,0,0
0,0,0
0,0,0
0,0,0
0,0,0
0,0,0
0,0,0
0,0,0
0,0,0
0,0,0
0,0,0
0,0,0
0,0,0
0,0,0
0,0,0
0,0,0
0,0,0
0,0,0
0,0,0
0,0,0
0,0,0
0,0,0
0,0,0
0,0,0
0,0,0
0,0,0
0,0,0
0,0,0
0,0,0
0,0,0
0,0,0
0,0,0
0,0,0
0,0,0
0,0,0
0,0,0
0,0,0
0,0,0
0,0,0
0,0,0
0,0,0
0,0,0
0,0,0
0,0,0
0,0,0
0,0,0
0,0,0
0,0,0
0,0,0
0,0,0
0,0,0
0,0,0
0,0,0
0,0,0
0,0,0
0,0,0
0,0,0
0,0,0
0,0,0
0,0,0
0,0,0
0,0,0
0,0,0
0,0,0
0,0,0
0,0,0
0,0,0
0,0,0
0,0,0
0,0,0
0,0,0
0,0,0
0,0,0
0,0,0
0,0,0
0,0,0
0,0,0
0,0,0
0,0,0
0,0,0
0,0,0
0,0,0
0,0,0
0,0,0
0,0,0
0,0,0
0,0,0
0,0,0
0,0,0
0,0,0
0,0,0
0,0,0
0,0,0
0,0,0
0,0,0
0,0,0
0,0,0
0,0,0
0,0,0
0,0,0
0,0,0
0,0,0
0,0,0
0,0,0
0,0,0
0,0,0
0,0,0
0,0,0
0,0,0
0,0,0
0,0,0
0,0,0
0,0,0
0,0,0
0,0,0
0,0,0
0,0,0
0,0,0
0,0,0
0,0,0
0,0,0
0,0,0
0,0,0
0,0,0
0,0,0
0,0,0
0,0,0
0,0,0
0,0,0
0,0,0
0,0,0
0,0,0
0,0,0
0,0,0
0,0,0
0,0,0
0,0,0
0,0,0
0,0,0
0,0,0
0,0,0
0,0,0
0,0,0
0,0,0
0,0,0
0,0,0
0,0,0
0,0,0
0,0,0
0,0,0
0,0,0
0,0,0
0,0,0
0,0,0
0,0,0
0,0,0
0,0,0
0,0,0
0,0,0
0,0,0
0,0,0
0,0,0
0,0,0
0,0,0
0,0,0
0,0,0
0,0,0
0,0,0
0,0,0
0,0,0
0,0,0
0,0,0
0,0,0
0,0,0
0,0,0
0,0,0
0,0,0
0,0,0
0,0,0
0,0,0
0,0,0
0,0,0
0,0,0
0,0,0
0,0,0
0,0,0
0,0,0
0,0,0
0,0,0
0,0,0
0,0,0
0,0,0
0,0,0
0,0,0
0,0,0
0,0,0
0,0,0
0,0,0
0,0,0
0,0,0
0,0,0
0,0,0
0,0,0
0,0,0
0,0,0
0,0,0
0,0,0
0,0,0
0,0,0
0,0,0
0,0,0
0,0,0
0,0,0
0,0,0
0,0,0
0,0,0
0,0,0
0,0,0
0,0,0
0,0,0
0,0,0
0,0,0
0,0,0
0,0,0
0,0,0
0,0,0
0,0,0
0,0,0
0,0,0
0,0,0
0,0,0
0,0,0
0,0,0
0,0,0
0,0,0
0,0,0
0,0,0
0,0,0
0,0,0
0,0,0
0,0,0
0,0,0
0,0,0
0,0,0
0,0,0
0,0,0
0,0,0
0,0,0
0,0,0
0,0,0
0,0,0
0,0,0
0,0,0
0,0,0
0,0,0
0,0,0
0,0,0
0,0,0
0,0,0
0,0,0
0,0,0
0,0,0
0,0,0
0,0,0
0,0,0
0,0,0
0,0,0
0,0,0
0,0,0
0,0,0
0,0,0
0,0,0
0,0,0
0,0,0
0,0,0
0,0,0
0,0,0
0,0,0
0,0,0
0,0,0
0,0,0
0,0,0
0,0,0
0,0,0
0,0,0
0,0,0
0,0,0
0,0,0
0,0,0
0,0,0
0,0,0
0,0,0
0,0,0
0,0,0
0,0,0
0,0,0
0,0,0
0,0,0
0,0,0
0,0,0
0,0,0
0,0,0
0,0,0
0,0,0
0,0,0
0,0,0
0,0,0
0,0,0
0,0,0
0,0,0
0,0,0
0,0,0
0,0,0
0,0,0
0,0,0
0,0,0
0,0,0
0,0,0
0,0,0
0,0,0
0,0,0
0,0,0
0,0,0
0,0,0
0,0,0
0,0,0
0,0,0
0,0,0
0,0,0
0,0,0
0,0,0
0,0,0
0,0,0
0,0,0
0,0,0
0,0,0
0,0,0
0,0,0
0,0,0
0,0,0
0,0,0
0,0,0
0,0,0
0,0,0
0,0,0
0,0,0
0,0,0
0,0,0
0,0,0
0,0,0
0,0,0
0,0,0
0,0,0
0,0,0
0,0,0
0,0,0
0,0,0
0,0,0
0,0,0
0,0,0
0,0,0
0,0,0
0,0,0
0,0,0
0,0,0
0,0,0
0,0,0
0,0,0
0,0,0
0,0,0
0,0,0
0,0,0
0,0,0
0,0,0
0,0,0
0,0,0
0,0,0
0,0,0
0,0,0
0,0,0
0,0,0
0,0,0
0,0,0
0,0,0
0,0,0
0,0,0
0,0,0
0,0,0
0,0,0
0,0,0
0,0,0
0,0,0
0,0,0
0,0,0
0,0,0
0,0,0
0,0,0
0,0,0
0,0,0
0,0,0
0,0,0
0,0,0
0,0,0
0,0,0
0,0,0
0,0,0
0,0,0
0,0,0
0,0,0
0,0,0
0,0,0
0,0,0
0,0,0
0,0,0
0,0,0
0,0,0
0,0,0
0,0,0
0,0,0
0,0,0
0,0,0
0,0,0
0,0,0
0,0,0
0,0,0
0,0,0
0,0,0
0,0,0
0,0,0
0,0,0
0,0,0
0,0,0
0,0,0
0,0,0
0,0,0
0,0,0
0,0,0
0,0,0
0,0,0
0,0,0
0,0,0
0,0,0
0,0,0
0,0,0
0,0,0
0,0,0
0,0,0
0,0,0
0,0,0
0,0,0
0,0,0
0,0,0
0,0,0
0,0,0
0,0,0
0,0,0
0,0,0
0,0,0
0,0,0
0,0,0
0,0,0
0,0,0
0,0,0
0,0,0
0,0,0
0,0,0
0,0,0
0,0,0
0,0,0
0,0,0
0,0,0
0,0,0
0,0,0
0,0,0
0,0,0
0,0,0
0,0,0
0,0,0
0,0,0
0,0,0
0,0,0
0,0,0
0,0,0
0,0,0
0,0,0
0,0,0
0,0,0
0,0,0
0,0,0
0,0,0
0,0,0
0,0,0
0,0,0
0,0,0
0,0,0
0,0,0
0,0,0
0,0,0
0,0,0
0,0,0
0,0,0
0,0,0
0,0,0
0,0,0
0,0,0
0,0,0
0,0,0
0,0,0
0,0,0
0,0,0
0,0,0
0,0,0
0,0,0
0,0,0
0,0,0
0,0,0
0,0,0
0,0,0
0,0,0
0,0,0
0,0,0
0,0,0
0,0,0
0,0,0
0,0,0
0,0,0
0,0,0
0,0,0
0,0,0
0,0,0
0,0,0
0,0,0
0,0,0
0,0,0
0,0,0
0,0,0
0,0,0
0,0,0
0,0,0
0,0,0
0,0,0
0,0,0
0,0,0
0,0,0
0,0,0
0,0,0
0,0,0
0,0,0
0,0,0
0,0,0
0,0,0
0,0,0
0,0,0
0,0,0
0,0,0
0,0,0
0,0,0
0,0,0
0,0,0
0,0,0
0,0,0
0,0,0
0,0,0
-0.1,0.38,0.93
-0.1,0.38,0.91
-0.11,0.38,0.91
-0.11,0.37,0.91
-0.09,0.37,0.91
-0.1,0.37,0.91
-0.1,0.36,0.91
-0.1,0.36,0.91
-0.09,0.36,0.91
-0.08,0.36,0.92
-0.08,0.37,0.93
-0.09,0.37,0.93
-0.09,0.37,0.93
-0.1,0.37,0.92
-0.11,0.38,0.91
-0.1,0.38,0.91
-0.11,0.38,0.91
-0.12,0.38,0.91
-0.12,0.38,0.91
-0.12,0.38,0.91
-0.11,0.38,0.91
-0.11,0.38,0.92
-0.11,0.38,0.92
-0.12,0.38,0.91
-0.12,0.37,0.92
-0.11,0.37,0.92
-0.1,0.37,0.92
-0.09,0.36,0.92
-0.1,0.36,0.92
-0.1,0.37,0.91
-0.09,0.37,0.91
-0.09,0.37,0.91
-0.09,0.37,0.91
-0.09,0.38,0.92
-0.1,0.37,0.92
-0.09,0.37,0.91
-0.1,0.36,0.91
-0.11,0.37,0.92
-0.1,0.37,0.92
-0.1,0.37,0.92
-0.1,0.37,0.92
-0.1,0.37,0.92
-0.1,0.37,0.91
-0.09,0.37,0.91
-0.09,0.37,0.92
-0.1,0.38,0.93
-0.11,0.37,0.93
-0.11,0.37,0.93
-0.11,0.36,0.93
-0.11,0.36,0.92
-0.11,0.36,0.92
-0.1,0.36,0.93
-0.1,0.36,0.92
-0.1,0.36,0.92
-0.1,0.37,0.91
-0.1,0.37,0.91
-0.1,0.37,0.91
-0.1,0.37,0.92
-0.1,0.37,0.92
-0.09,0.38,0.9
-0.09,0.38,0.89
-0.11,0.38,0.91
-0.12,0.37,0.92
-0.12,0.37,0.92
-0.12,0.38,0.92
-0.12,0.38,0.92
-0.12,0.37,0.92
-0.11,0.37,0.92
-0.11,0.37,0.92
-0.11,0.37,0.92
-0.11,0.36,0.92
-0.12,0.36,0.92
-0.12,0.36,0.92
-0.12,0.35,0.92
-0.12,0.36,0.92
-0.12,0.36,0.92
-0.11,0.37,0.92
-0.11,0.37,0.92
-0.11,0.37,0.92
-0.11,0.37,0.92
-0.1,0.37,0.92
-0.1,0.37,0.92
-0.1,0.37,0.92
-0.1,0.37,0.91
-0.1,0.37,0.91
-0.1,0.37,0.92
-0.1,0.37,0.92
-0.1,0.37,0.91
-0.11,0.37,0.91
-0.11,0.37,0.92
-0.11,0.37,0.92
-0.11,0.37,0.92
-0.1,0.37,0.91
-0.1,0.36,0.92
-0.11,0.37,0.93
-0.14,0.34,0.95
-0.13,0.34,0.94
-0.09,0.37,0.92
-0.1,0.37,0.92
-0.1,0.37,0.92
-0.08,0.37,0.91
-0.08,0.37,0.92
-0.09,0.36,0.92
-0.09,0.37,0.93
-0.09,0.37,0.93
-0.09,0.36,0.92
-0.1,0.36,0.92
-0.1,0.37,0.91
-0.1,0.37,0.91
-0.1,0.36,0.92
-0.1,0.37,0.92
-0.1,0.37,0.92
-0.1,0.37,0.92
-0.1,0.37,0.92
-0.1,0.37,0.92
-0.1,0.37,0.92
-0.12,0.36,0.94
-0.1,0.36,0.94
-0.08,0.37,0.91
-0.1,0.37,0.92
-0.09,0.37,0.92
-0.1,0.37,0.92
-0.1,0.36,0.92
-0.1,0.36,0.92
-0.1,0.36,0.92
-0.1,0.36,0.92
-0.1,0.36,0.92
-0.1,0.36,0.92
-0.1,0.37,0.92
-0.1,0.37,0.92
-0.09,0.37,0.92
-0.09,0.37,0.92
-0.09,0.37,0.92
-0.09,0.37,0.92
-0.1,0.37,0.92
-0.1,0.37,0.92
-0.1,0.37,0.92
-0.1,0.37,0.92
-0.1,0.37,0.92
-0.1,0.37,0.92
-0.09,0.37,0.92
-0.1,0.37,0.93
-0.1,0.37,0.92
-0.09,0.36,0.92
-0.09,0.37,0.92
-0.09,0.37,0.92
-0.09,0.37,0.92
-0.09,0.37,0.92
-0.09,0.37,0.92
-0.09,0.37,0.92
-0.1,0.37,0.92
-0.1,0.37,0.92
-0.1,0.37,0.92
-0.1,0.37,0.92
-0.1,0.37,0.92
-0.1,0.37,0.92
-0.09,0.37,0.92
-0.1,0.37,0.92
-0.1,0.37,0.92
-0.1,0.36,0.92
-0.1,0.37,0.92
-0.1,0.37,0.92
-0.1,0.36,0.92
-0.09,0.37,0.92
-0.09,0.37,0.92
-0.09,0.37,0.92
-0.09,0.37,0.93
-0.09,0.37,0.92
-0.09,0.37,0.92
-0.09,0.36,0.92
-0.09,0.36,0.92
-0.1,0.36,0.92
-0.1,0.36,0.92
-0.1,0.36,0.92
-0.1,0.37,0.92
-0.1,0.37,0.92
-0.09,0.37,0.92
-0.1,0.37,0.92
-0.1,0.37,0.92
-0.1,0.37,0.92
-0.1,0.37,0.92
-0.09,0.37,0.92
-0.09,0.37,0.92
-0.11,0.37,0.94
-0.1,0.37,0.93
-0.09,0.37,0.92
-0.1,0.37,0.93
-0.1,0.37,0.92
-0.1,0.36,0.92
-0.1,0.37,0.92
-0.1,0.36,0.92
-0.1,0.36,0.92
-0.1,0.36,0.92
-0.1,0.37,0.92
-0.1,0.36,0.92
-0.1,0.37,0.92
-0.1,0.37,0.92
-0.1,0.37,0.92
-0.1,0.37,0.93
-0.09,0.37,0.92
-0.1,0.37,0.92
-0.1,0.37,0.92
-0.1,0.36,0.92
-0.1,0.36,0.92
-0.1,0.36,0.92
-0.1,0.36,0.92
-0.1,0.37,0.92
-0.1,0.37,0.92
-0.1,0.37,0.92
-0.1,0.37,0.92
-0.1,0.37,0.92
-0.09,0.37,0.92
-0.09,0.36,0.92
-0.09,0.37,0.92
-0.1,0.37,0.92
-0.09,0.37,0.92
-0.1,0.37,0.93
-0.1,0.37,0.93
-0.09,0.37,0.93
-0.09,0.37,0.92
-0.08,0.37,0.93
-0.07,0.37,0.93
-0.07,0.36,0.92
-0.07,0.36,0.92
-0.07,0.36,0.92
-0.07,0.36,0.92
-0.07,0.36,0.92
-0.08,0.36,0.92
-0.09,0.37,0.92
-0.09,0.37,0.92
-0.1,0.37,0.92
-0.09,0.37,0.93
-0.09,0.37,0.93
-0.09,0.37,0.93
-0.09,0.37,0.93
-0.09,0.38,0.92
-0.09,0.38,0.91
-0.1,0.38,0.91
-0.1,0.38,0.91
-0.1,0.38,0.92
-0.1,0.37,0.92
-0.1,0.37,0.92
-0.1,0.37,0.93
-0.09,0.37,0.94
-0.08,0.37,0.94
-0.08,0.36,0.93
-0.08,0.36,0.92
-0.08,0.36,0.92
-0.06,0.36,0.92
-0.04,0.36,0.93
-0.04,0.36,0.93
-0.04,0.35,0.92
-0.04,0.36,0.92
-0.04,0.36,0.94
-0.01,0.36,0.95
-0.01,0.36,0.95
-0.02,0.37,0.94
-0.04,0.36,0.93
-0.08,0.36,0.92
-0.07,0.38,0.9
-0.04,0.38,0.91
-0.02,0.38,0.94
-0.02,0.37,0.95
0,0.36,0.96
0.03,0.34,0.95
0.05,0.32,0.93
0.06,0.29,0.93
0.06,0.24,0.93
0.07,0.24,0.92
0.13,0.2,0.97
0.21,0.19,0.88
0.25,0.33,0.84
0.23,0.34,0.95
0.21,0.24,0.98
0.2,0.25,1.02
0.24,0.24,1.06
0.3,0.19,1.13
0.39,0.1,1.21
0.47,0.05,1.29
0.52,0.05,1.29
0.54,0.03,1.26
0.55,0.01,1.24
0.55,-0.02,1.24
0.55,-0.06,1.23
0.56,-0.1,1.2
0.57,-0.14,1.15
0.57,-0.17,1.12
0.6,-0.21,1.11
0.61,-0.24,1.09
0.6,-0.26,1.04
0.59,-0.24,1.02
0.56,-0.26,1
0.56,-0.37,0.91
0.51,-0.4,0.93
0.46,-0.27,0.89
0.46,-0.25,0.77
0.43,-0.29,0.73
0.43,-0.3,0.7
0.4,-0.32,0.65
0.39,-0.32,0.59
0.42,-0.34,0.59
0.4,-0.37,0.6
0.37,-0.4,0.6
0.36,-0.38,0.58
0.35,-0.36,0.56
0.32,-0.37,0.51
0.29,-0.4,0.49
0.28,-0.41,0.46
0.25,-0.43,0.44
0.25,-0.43,0.38
0.27,-0.43,0.34
0.3,-0.47,0.34
0.32,-0.51,0.36
0.34,-0.53,0.37
0.37,-0.54,0.42
0.38,-0.59,0.46
0.39,-0.64,0.5
0.39,-0.61,0.51
0.38,-0.65,0.45
0.39,-0.72,0.42
0.39,-0.7,0.42
0.41,-0.72,0.43
0.44,-0.74,0.45
0.47,-0.75,0.44
0.48,-0.76,0.46
0.48,-0.74,0.52
0.45,-0.77,0.53
0.49,-0.78,0.51
0.51,-0.78,0.49
0.5,-0.81,0.49
0.5,-0.82,0.49
0.49,-0.83,0.47
0.44,-0.84,0.44
0.46,-0.81,0.41
0.47,-0.79,0.4
0.44,-0.82,0.42
0.43,-0.86,0.44
0.44,-0.82,0.45
0.41,-0.79,0.45
0.33,-0.81,0.44
0.29,-0.78,0.42
0.27,-0.76,0.39
0.28,-0.76,0.37
0.3,-0.76,0.34
0.31,-0.79,0.31
0.32,-0.79,0.3
0.32,-0.79,0.3
0.34,-0.8,0.3
0.36,-0.82,0.33
0.37,-0.84,0.35
0.37,-0.86,0.35
0.37,-0.87,0.36
0.36,-0.89,0.37
0.34,-0.93,0.36
0.33,-1,0.32
0.34,-1.07,0.31
0.4,-1.16,0.29
0.45,-1.23,0.27
0.52,-1.31,0.28
0.56,-1.35,0.27
0.61,-1.41,0.28
0.65,-1.5,0.27
0.68,-1.6,0.26
0.66,-1.69,0.24
0.64,-1.74,0.2
0.61,-1.74,0.16
0.57,-1.67,0.13
0.54,-1.6,0.1
0.52,-1.53,0.1
0.53,-1.45,0.08
0.53,-1.41,0.06
0.52,-1.34,0.08
0.53,-1.25,0.11
0.53,-1.19,0.1
0.54,-1.16,0.08
0.56,-1.13,0.08
0.54,-1.08,0.08
0.53,-1.03,0.06
0.5,-1.03,0.06
0.48,-0.97,0.09
0.46,-0.91,0.1
0.42,-0.93,0.07
0.37,-0.94,0.06
0.36,-0.88,0.09
0.43,-0.81,0.08
0.4,-0.88,0.06
0.38,-0.86,0.05
0.41,-0.81,0.06
0.38,-0.81,0.05
0.37,-0.81,0.04
0.37,-0.81,0.03
0.37,-0.8,0.02
0.36,-0.79,0.03
0.36,-0.77,0.04
0.36,-0.76,0.05
0.35,-0.74,0.07
0.35,-0.73,0.07
0.35,-0.73,0.08
0.35,-0.72,0.08
0.35,-0.71,0.07
0.34,-0.7,0.06
0.35,-0.69,0.06
0.35,-0.68,0.05
0.34,-0.68,0.03
0.36,-0.66,0.04
0.37,-0.65,0.04
0.38,-0.65,0.04
0.39,-0.64,0.04
0.39,-0.63,0.05
0.39,-0.61,0.05
0.38,-0.58,0.05
0.38,-0.58,0.05
0.37,-0.58,0.05
0.36,-0.59,0.04
0.35,-0.6,0.04
0.34,-0.62,0.06
0.35,-0.64,0.07
0.34,-0.67,0.09
0.34,-0.71,0.1
0.34,-0.76,0.12
0.33,-0.79,0.12
0.32,-0.84,0.11
0.31,-0.89,0.1
0.3,-0.93,0.1
0.3,-1.01,0.11
0.29,-1.1,0.14
0.3,-1.17,0.15
0.3,-1.26,0.16
0.29,-1.34,0.15
0.3,-1.41,0.13
0.31,-1.5,0.12
0.31,-1.6,0.1
0.31,-1.65,0.06
0.27,-1.7,0.04
0.24,-1.78,0.04
0.23,-1.78,0.06
0.27,-1.39,0.14
0.31,-1.28,0.16
0.31,-1.22,0.17
0.31,-1.16,0.19
0.31,-1.1,0.21
0.3,-1.06,0.2
0.3,-1.02,0.18
0.31,-0.99,0.16
0.32,-0.97,0.14
0.31,-0.98,0.13
0.3,-1.02,0.12
0.3,-1.06,0.1
0.29,-1.09,0.09
0.29,-1.11,0.08
0.28,-1.14,0.08
0.28,-1.18,0.08
0.28,-1.22,0.09
0.29,-1.25,0.1
0.32,-1.24,0.12
0.33,-1.18,0.14
0.33,-1.1,0.16
0.33,-1.02,0.19
0.34,-0.96,0.21
0.34,-0.91,0.21
0.35,-0.87,0.19
0.35,-0.83,0.18
0.36,-0.79,0.14
0.39,-0.79,0.12
0.42,-0.8,0.11
0.43,-0.82,0.09
0.44,-0.83,0.09
0.44,-0.83,0.09
0.43,-0.83,0.09
0.41,-0.82,0.09
0.41,-0.82,0.08
0.41,-0.83,0.08
0.41,-0.84,0.08
0.42,-0.84,0.06
0.45,-0.84,0.03
0.49,-0.85,0
0.53,-0.89,-0.02
0.56,-0.95,-0.03
0.58,-1,-0.03
0.58,-1,0.01
0.55,-0.96,0.01
0.52,-0.95,-0.02
0.53,-1.02,-0.05
0.53,-1.08,-0.03
0.5,-1.09,-0.03
0.48,-1.08,-0.07
0.46,-1.07,-0.11
0.45,-1.08,-0.11
0.47,-1.14,-0.08
0.41,-1.16,-0.09
0.39,-1.17,-0.08
0.4,-1.17,-0.09
0.47,-1.56,-0.23
0.47,-1.56,-0.23
0.49,-1.66,-0.24
0.5,-1.7,-0.22
0.49,-1.68,-0.22
0.48,-1.63,-0.22
0.48,-1.55,-0.2
0.47,-1.47,-0.19
0.5,-1.42,-0.26
0.46,-1.35,-0.25
0.39,-1.29,-0.17
0.42,-1.26,-0.18
0.47,-1.25,-0.2
0.53,-1.24,-0.22
0.53,-1.23,-0.21
0.53,-1.21,-0.23
0.6,-1.21,-0.27
0.64,-1.23,-0.29
0.67,-1.24,-0.31
0.66,-1.22,-0.23
0.62,-1.22,-0.21
0.61,-1.22,-0.16
0.56,-1.18,-0.1
0.6,-1.14,-0.17
0.67,-1.12,-0.23
0.63,-1.08,-0.16
0.61,-1.03,-0.14
0.63,-0.99,-0.16
0.62,-0.95,-0.17
0.59,-0.91,-0.17
0.56,-0.88,-0.17
0.53,-0.84,-0.16
0.51,-0.79,-0.17
0.49,-0.75,-0.17
0.47,-0.71,-0.17
0.45,-0.67,-0.18
0.44,-0.63,-0.17
0.44,-0.6,-0.17
0.44,-0.58,-0.16
0.45,-0.57,-0.17
0.45,-0.56,-0.17
0.44,-0.55,-0.17
0.44,-0.55,-0.17
0.45,-0.55,-0.17
0.46,-0.57,-0.19
0.46,-0.57,-0.18
0.45,-0.54,-0.17
0.43,-0.54,-0.16
0.4,-0.54,-0.15
0.36,-0.54,-0.14
0.33,-0.54,-0.12
0.33,-0.54,-0.1
0.31,-0.55,-0.08
0.3,-0.57,-0.05
0.3,-0.58,-0.03
0.31,-0.6,0.01
0.31,-0.62,0.06
0.3,-0.65,0.1
0.3,-0.69,0.15
0.29,-0.74,0.18
0.29,-0.78,0.2
0.29,-0.84,0.19
0.29,-0.89,0.18
0.28,-0.95,0.15
0.27,-1.03,0.13
0.25,-1.11,0.14
0.22,-1.23,0.15
0.2,-1.27,0.23
0.23,-1.41,0.18
0.16,-1.68,0.19
0.12,-1.67,0.39
0.12,-1.52,0.48
0.04,-1.5,0.41
0.01,-1.47,0.45
-0.15,-1.7,0.43
-0.29,-1.94,0.36
-0.31,-2.07,0.35
-0.18,-1.96,0.39
-0.15,-1.76,0.4
-0.27,-1.66,0.47
-0.34,-1.59,0.56
-0.31,-1.5,0.57
-0.28,-1.45,0.55
-0.29,-1.43,0.52
-0.29,-1.36,0.5
-0.25,-1.33,0.48
-0.22,-1.31,0.49
-0.19,-1.28,0.5
-0.13,-1.27,0.49
-0.09,-1.26,0.48
-0.05,-1.26,0.44
-0.01,-1.25,0.41
-0.01,-1.2,0.42
-0.01,-1.22,0.38
0.03,-1.26,0.33
0.04,-1.21,0.34
0.03,-1.14,0.36
0.05,-1.06,0.36
0.24,-1.05,0.37
0.33,-1,0.36
0.39,-0.95,0.33
0.42,-0.92,0.27
0.44,-0.87,0.22
0.44,-0.84,0.19
0.42,-0.83,0.16
0.39,-0.83,0.15
0.37,-0.84,0.14
0.34,-0.87,0.15
0.32,-0.89,0.14
0.33,-0.9,0.14
0.35,-0.9,0.14
0.36,-0.91,0.11
0.38,-0.93,0.07
0.4,-0.95,0.03
0.43,-0.96,-0.02
0.46,-0.98,-0.04
0.45,-1.01,-0.07
0.46,-1.03,-0.08
0.46,-1.04,-0.09
0.44,-1.06,-0.1
0.44,-1.08,-0.1
0.45,-1.11,-0.12
0.45,-1.13,-0.13
0.43,-1.15,-0.14
0.39,-1.2,-0.15
0.4,-1.24,-0.16
0.39,-1.28,-0.16
0.37,-1.33,-0.15
0.36,-1.42,-0.15
0.36,-1.54,-0.17
0.36,-1.65,-0.17
0.37,-1.71,-0.17
0.37,-1.71,-0.16
0.37,-1.66,-0.14
0.39,-1.57,-0.11
0.38,-1.46,-0.08
0.36,-1.38,-0.07
0.37,-1.32,-0.05
0.37,-1.31,-0.02
0.37,-1.32,0.01
0.38,-1.35,0.02
0.4,-1.37,0.01
0.39,-1.4,0.04
0.37,-1.42,0.08
0.39,-1.44,0.07
0.39,-1.45,0.01
0.37,-1.46,-0.03
0.37,-1.46,-0.06
0.38,-1.44,-0.08
0.39,-1.4,-0.06
0.43,-1.3,0
0.46,-1.23,0.03
0.49,-1.14,0.03
0.48,-1.05,0.03
0.47,-0.96,0.02
0.46,-0.89,0.01
0.45,-0.84,0
0.43,-0.79,-0.02
0.4,-0.77,-0.04
0.38,-0.74,-0.04
0.35,-0.7,-0.03
0.33,-0.67,-0.03
0.32,-0.63,-0.03
0.31,-0.59,-0.01
0.31,-0.55,-0.01
0.3,-0.53,0
0.29,-0.52,0
0.28,-0.52,0.01
0.27,-0.52,0.01
0.27,-0.51,0.01
0.27,-0.51,0.01
0.28,-0.52,0.01
0.28,-0.52,0
0.28,-0.52,-0.01
0.28,-0.52,-0.02
0.26,-0.54,-0.04
0.26,-0.56,-0.04
0.26,-0.58,-0.04
0.28,-0.6,-0.03
0.29,-0.62,-0.02
0.3,-0.64,-0.02
0.31,-0.66,-0.02
0.32,-0.68,-0.03
0.32,-0.7,-0.04
0.33,-0.73,-0.05
0.33,-0.76,-0.06
0.32,-0.79,-0.07
0.32,-0.83,-0.07
0.32,-0.86,-0.07
0.33,-0.89,-0.07
0.34,-0.93,-0.06
0.34,-0.97,-0.06
0.34,-1.02,-0.05
0.35,-1.07,-0.06
0.34,-1.15,-0.06
0.34,-1.25,-0.07
0.33,-1.36,-0.09
0.32,-1.46,-0.12
0.32,-1.54,-0.14
0.3,-1.58,-0.15
0.28,-1.6,-0.15
0.27,-1.6,-0.13
0.29,-1.52,-0.1
0.3,-1.47,-0.05
0.31,-1.43,-0.01
0.32,-1.4,0.03
0.33,-1.38,0.07
0.35,-1.38,0.11
0.38,-1.38,0.13
0.4,-1.39,0.14
0.4,-1.41,0.13
0.39,-1.43,0.11
0.36,-1.44,0.08
0.33,-1.43,0.04
0.3,-1.42,0.02
0.27,-1.39,0.02
0.24,-1.37,0.04
0.24,-1.34,0.06
0.25,-1.3,0.07
0.25,-1.26,0.07
0.25,-1.21,0.08
0.27,-1.16,0.09
0.29,-1.11,0.09
0.31,-1.07,0.09
0.34,-1.05,0.09
0.35,-1.03,0.09
0.35,-1.01,0.08
0.36,-1,0.05
0.4,-0.99,0.03
0.41,-1,0.01
0.42,-1,0.01
0.42,-1,0
0.43,-0.99,0
0.44,-0.99,0
0.44,-0.97,0
0.45,-0.96,0
0.46,-0.96,0.02
0.45,-0.96,0.03
0.45,-0.96,0.05
0.43,-0.97,0.06
0.42,-0.98,0.07
0.4,-0.99,0.07
0.4,-1,0.08
0.4,-1.02,0.09
0.39,-1.04,0.1
0.38,-1.06,0.1
0.37,-1.09,0.11
0.36,-1.12,0.12
0.35,-1.14,0.14
0.33,-1.16,0.16
0.3,-1.17,0.18
0.28,-1.18,0.18
0.27,-1.19,0.16
0.25,-1.19,0.15
0.22,-1.19,0.16
0.21,-1.2,0.16
0.21,-1.2,0.16
0.2,-1.22,0.17
0.19,-1.21,0.16
0.19,-1.2,0.15
0.18,-1.21,0.14
0.17,-1.21,0.14
0.15,-1.2,0.16
0.14,-1.17,0.16
0.14,-1.16,0.17
0.12,-1.17,0.2
0.12,-1.18,0.17
0.17,-1.23,0.12
0.26,-1.3,0.07
0.09,-1.37,0.1
-0.19,-1.37,0.17
-0.2,-1.27,0.23
-0.03,-1.14,0.22
0.19,-1.1,0.15
0.28,-1.09,0.11
0.2,-1.03,0.11
0.13,-0.95,0.14
0.12,-0.88,0.13
0.15,-0.87,0.09
0.18,-0.88,0.06
0.22,-0.92,0.03
0.23,-0.95,0.03
0.22,-1.01,0.01
0.2,-1.04,0
0.17,-1.05,-0.01
0.15,-1.05,-0.01
0.14,-1.04,-0.02
0.14,-1.04,-0.02
0.14,-1.02,-0.02
0.15,-1.01,-0.02
0.15,-1,-0.02
0.16,-0.99,-0.03
0.17,-0.96,-0.03
0.18,-0.93,-0.04
0.19,-0.89,-0.04
0.2,-0.86,-0.04
0.21,-0.84,-0.03
0.22,-0.83,-0.03
0.22,-0.82,-0.03
0.23,-0.82,-0.02
0.24,-0.83,-0.02
0.24,-0.86,-0.02
0.25,-0.9,-0.03
0.24,-0.93,-0.03
0.23,-0.97,-0.03
0.22,-1.01,-0.02
0.21,-1.06,-0.02
0.17,-1.05,-0.01
0.16,-1.02,0.01
0.13,-1.01,0.03
0.1,-1.01,0.03
0.08,-1.01,0.02
0.08,-0.98,0.01
0.07,-0.96,0.01
0.08,-0.94,0.02
0.09,-0.94,0.02
0.1,-0.96,0.03
0.09,-0.98,0.03
0.08,-1,0.02
0.08,-1.02,0.01
0.08,-1.03,0
0.08,-1.05,-0.01
0.09,-1.06,-0.01
0.1,-1.07,0.01
0.11,-1.08,0.04
0.12,-1.1,0.05
0.13,-1.13,0.06
0.14,-1.16,0.06
0.14,-1.2,0.04
0.16,-1.2,0.04
0.18,-1.2,0.04
0.19,-1.2,0.03
0.2,-1.17,0.04
0.22,-1.17,0.05
0.23,-1.18,0.06
0.24,-1.19,0.07
0.24,-1.19,0.08
0.21,-1.18,0.08
0.21,-1.16,0.07
0.21,-1.14,0.05
0.21,-1.13,0.04
0.21,-1.12,0.04
0.21,-1.12,0.04
0.21,-1.13,0.04
0.19,-1.14,0.05
0.18,-1.16,0.04
0.16,-1.17,0.02
0.15,-1.17,0.01
0.13,-1.16,0
0.11,-1.13,0
0.09,-1.09,-0.01
0.08,-1.07,-0.02
0.07,-1.04,-0.03
0.06,-1.01,-0.03
0.07,-0.98,-0.03
0.06,-0.97,-0.03
0.04,-0.96,-0.03
0.03,-0.95,-0.05
0.01,-0.95,-0.07
-0.01,-0.95,-0.08
0,-0.95,-0.08
0,-0.95,-0.07
0.01,-0.95,-0.07
0.02,-0.96,-0.07
0.01,-0.96,-0.06
0.01,-0.96,-0.06
0.01,-0.96,-0.06
0.02,-0.96,-0.04
0.03,-0.97,-0.03
0.04,-0.97,-0.01
0.04,-0.97,0
0.03,-0.96,0
0.04,-0.96,0
0.06,-0.96,0.01
0.08,-0.97,0.01
0.08,-0.98,0.02
0.1,-1,0.03
0.12,-1.02,0.05
0.14,-1.05,0.05
0.14,-1.09,0.03
0.12,-1.1,0.01
0.08,-1.08,0
0.06,-1.05,0
0.07,-1.03,0.01
0.1,-1.02,0.05
0.14,-1.03,0.07
0.15,-1.04,0.08
0.16,-1.05,0.09
0.17,-1.06,0.09
0.17,-1.07,0.08
0.16,-1.07,0.06
0.15,-1.06,0.04
0.15,-1.03,0.04
0.15,-1.01,0.04
0.15,-1.01,0.05
0.17,-1.02,0.06
0.19,-1.03,0.07
0.22,-1.04,0.08
0.24,-1.05,0.08
0.26,-1.05,0.08
0.28,-1.04,0.08
0.3,-1.04,0.08
0.32,-1.04,0.09
0.35,-1.03,0.09
0.38,-1.03,0.11
0.44,-1.02,0.12
0.53,-1.01,0.13
0.61,-1.04,0.14
0.65,-1.08,0.14
0.65,-1.11,0.14
0.65,-1.12,0.1
0.64,-1.15,0.11
0.65,-1.15,0.13
0.65,-1.16,0.13
0.64,-1.19,0.12
0.63,-1.21,0.1
0.61,-1.23,0.09
0.59,-1.26,0.06
0.56,-1.28,0.04
0.53,-1.28,0.04
0.5,-1.27,0.04
0.47,-1.26,0.04
0.44,-1.25,0.05
0.43,-1.25,0.06
0.42,-1.22,0.08
0.4,-1.2,0.09
0.39,-1.18,0.08
0.38,-1.14,0.07
0.36,-1.11,0.07
0.34,-1.08,0.09
0.34,-1.05,0.13
0.34,-1.01,0.16
0.34,-0.98,0.18
0.32,-0.96,0.17
0.31,-0.94,0.16
0.31,-0.91,0.17
0.32,-0.88,0.24
0.33,-0.86,0.27
0.33,-0.86,0.28
0.34,-0.83,0.28
0.36,-0.8,0.27
0.36,-0.78,0.25
0.36,-0.76,0.23
0.37,-0.74,0.24
0.4,-0.75,0.25
0.42,-0.76,0.26
0.43,-0.72,0.3
0.41,-0.69,0.33
0.4,-0.68,0.35
0.42,-0.65,0.36
0.43,-0.63,0.35
0.44,-0.64,0.35
0.45,-0.64,0.38
0.45,-0.61,0.41
0.46,-0.6,0.45
0.47,-0.6,0.48
0.48,-0.59,0.47
0.49,-0.57,0.45
0.5,-0.54,0.44
0.52,-0.52,0.45
0.54,-0.52,0.49
0.56,-0.53,0.53
0.59,-0.53,0.61
0.62,-0.46,0.62
0.63,-0.45,0.62
0.67,-0.43,0.6
0.68,-0.44,0.59
0.67,-0.46,0.58
0.66,-0.45,0.59
0.65,-0.42,0.62
0.64,-0.42,0.62
0.65,-0.39,0.64
0.68,-0.35,0.64
0.69,-0.3,0.62
0.69,-0.24,0.63
0.68,-0.28,0.63
0.71,-0.31,0.65
0.72,-0.27,0.7
0.7,-0.23,0.74
0.67,-0.19,0.7
0.65,-0.16,0.69
0.67,-0.08,0.77
0.69,-0.12,0.88
0.63,-0.26,0.94
0.64,-0.33,0.91
0.69,-0.33,0.9
0.63,-0.38,0.9
0.55,-0.45,0.83
0.57,-0.49,0.79
0.53,-0.59,0.73
0.51,-0.52,0.7
0.5,-0.49,0.64
0.51,-0.43,0.7
0.5,-0.39,0.75
0.46,-0.47,0.64
0.42,-0.45,0.47
0.47,-0.55,0.36
0.91,0.04,0.72
0.81,-0.19,0.56
0.25,-1.2,0
0.4,-0.97,0.03
0.53,-0.73,0.11
0.41,-0.54,0.25
0.41,-0.4,0.34
0.36,-0.48,0.3
0.36,-0.55,0.39
0.48,-0.49,0.47
0.56,-0.35,0.72
0.6,-0.32,0.81
0.5,-0.45,0.67
0.52,-0.45,0.73
0.54,-0.39,0.77
0.46,-0.37,0.73
0.44,-0.31,0.93
0.43,-0.27,0.88
0.59,-0.23,0.75
0.62,-0.13,0.77
0.7,-0.01,0.85
0.82,0.05,0.91
0.83,0.03,0.99
0.83,-0.03,1.08
0.79,-0.11,1.06
0.67,-0.16,0.96
0.62,-0.11,0.83
0.66,-0.02,0.74
0.77,0.03,0.77
0.9,0.04,0.9
1.01,-0.03,1.03
1.04,-0.11,1.08
0.97,-0.17,1.04
0.81,-0.25,0.92
0.57,-0.3,0.77
0.4,-0.32,0.69
0.32,-0.32,0.66
0.3,-0.32,0.64
0.31,-0.34,0.64
0.29,-0.35,0.64
0.2,-0.43,0.7
-0.02,-0.48,0.69
-0.35,-0.27,0.44
-0.71,0.08,-0.14
-0.6,0.74,-0.13
-0.29,0.92,0.21
0,0.87,0.93
0.24,0.76,1.66
0.2,0.73,1.88
0.04,0.8,1.48
-0.24,0.9,0.89
-0.68,0.84,0.54
-1.04,0.64,0.5
-1.22,0.49,0.61
-1.07,0.46,0.66
-0.6,0.52,0.54
0.12,0.56,0.3
0.73,0.59,0.2
0.94,0.66,0.3
0.9,0.65,0.26
0.65,0.67,0.1
0.42,0.94,0.05
0.38,1.14,0.22
0.34,1.05,0.5
0.34,0.93,0.75
0.44,0.94,0.99
0.57,0.96,1.15
0.82,1.03,1.26
1.07,1.04,1.33
1.13,1.02,1.2
1.2,1.58,1.35
1.18,1.69,1.57
1.08,1.71,1.74
1.09,1.74,1.56
1.08,1.72,1.08
1.05,1.69,0.65
1.21,1.61,0.36
1.34,1.41,0.25
1.07,1.19,0.21
0.44,1.07,0.02
-0.15,1.09,-0.26
-0.23,1.08,-0.44
-0.03,0.94,-0.56
0.09,0.85,-0.83
0.12,0.83,-1.24
0.2,0.78,-1.63
0.26,0.66,-1.86
0.09,0.54,-1.94
-0.2,0.48,-1.89
-0.39,0.46,-1.72
-0.44,0.38,-1.46
-0.4,0.33,-1.21
-0.29,0.37,-1.06
-0.14,0.52,-0.99
-0.12,0.46,0.44
-0.12,0.48,0.34
0.11,0.52,0.26
0.36,0.45,0.41
0.52,0.35,0.82
0.55,0.21,1.25
0.41,0.02,1.48
0.3,-0.09,1.55
0.29,-0.2,1.52
0.32,-0.37,1.41
0.35,-0.53,1.32
0.35,-0.66,1.37
0.31,-0.71,1.55
0.31,-0.73,1.63
0.31,-0.78,1.57
0.32,-0.82,1.52
0.32,-0.88,1.5
0.3,-0.99,1.56
2.14,-2.51,2.8
1.2,-2.26,1.63
-2.01,0.32,0.64
-0.7,1.08,1.98
0.22,-0.65,0.97
-0.6,-0.79,1
-0.08,-0.13,0.68
0.32,0.25,0.31
0.05,0.29,0.26
-0.22,0.17,0.34
-0.13,0.03,0.29
-0.09,-0.02,0.25
0.04,-0.14,0.34
0.2,-0.28,0.48
0.18,-0.38,0.57
0.15,-0.4,0.61
0.26,-0.33,0.73
0.14,-0.55,1.8
0.93,-0.53,2.82
1.28,-0.16,1.92
0.14,-0.21,0.87
0,-0.19,0.7
0.26,0.09,0.76
0.03,0.16,0.98
0,0.06,1.03
0.23,0.01,1.02
0.45,-0.01,1.02
0.51,-0.06,0.97
0.42,-0.12,0.91
0.37,-0.14,0.9
0.34,-0.17,0.97
0.28,-0.16,0.99
0.25,-0.15,0.99
0.26,-0.1,0.99
0.28,-0.08,1.03
0.28,-0.15,0.98
0.3,-0.17,0.94
0.38,-0.13,0.95
0.44,-0.1,0.83
0.39,-0.11,0.84
0.41,-0.13,0.92
0.44,-0.1,1
0.39,-0.13,1.06
0.4,-0.19,1.02
0.38,-0.19,0.91
0.4,-0.14,0.96
0.41,-0.13,1.03
0.33,-0.13,1.04
0.3,-0.14,0.99
0.29,-0.19,0.95
0.33,-0.21,1.02
0.28,-0.22,0.93
0.27,-0.13,0.92
0.29,-0.05,1.02
0.3,-0.14,0.98
0.4,-0.08,1.1
0.28,-0.31,0.83
0.29,-0.18,0.79
0.3,-0.13,0.91
0.37,-0.25,0.91
0.33,-0.26,0.78
0.35,-0.1,0.87
0.39,-0.05,0.93
0.36,-0.12,1.01
0.31,-0.24,0.93
0.3,-0.24,0.83
0.32,-0.16,0.95
0.26,-0.12,0.98
0.13,-0.19,0.79
0.16,-0.18,0.76
0.23,-0.04,0.97
0.18,-0.01,1.07
0.17,-0.06,1
0.24,-0.05,1.03
0.26,-0.06,1.02
0.32,-0.13,0.88
0.39,-0.14,0.83
0.41,-0.11,0.9
0.37,-0.13,0.97
0.34,-0.15,0.97
0.34,-0.14,0.98
0.31,-0.11,0.98
0.29,-0.13,0.89
0.34,-0.14,0.92
0.34,-0.14,0.95
0.37,-0.16,0.94
0.38,-0.16,0.94
0.38,-0.14,0.94
0.36,-0.11,0.94
0.34,-0.1,0.95
0.32,-0.1,0.94
0.32,-0.08,0.94
0.33,-0.08,0.94
0.32,-0.1,0.94
0.33,-0.11,0.94
0.37,-0.12,0.94
0.41,-0.14,0.94
0.41,-0.16,0.92
0.38,-0.16,0.94
0.35,-0.16,0.96
0.32,-0.17,0.98
0.31,-0.17,0.97
0.3,-0.16,0.96
0.3,-0.15,0.94
0.3,-0.14,0.93
0.33,-0.13,0.92
0.36,-0.14,0.91
0.39,-0.14,0.92
0.39,-0.08,0.94
0.34,-0.08,0.95
0.33,-0.08,0.95
0.32,-0.09,0.96
0.31,-0.09,0.96
0.3,-0.09,0.96
0.3,-0.1,0.96
0.29,-0.1,0.96
0.29,-0.1,0.97
0.28,-0.1,0.96
0.29,-0.11,0.96
0.29,-0.11,0.96
0.3,-0.11,0.96
0.31,-0.11,0.96
0.32,-0.11,0.96
0.32,-0.11,0.95
0.33,-0.11,0.95
0.33,-0.11,0.95
0.34,-0.11,0.95
0.33,-0.11,0.95
0.33,-0.11,0.95
0.33,-0.1,0.95
0.32,-0.1,0.94
0.32,-0.1,0.95
0.32,-0.1,0.97
0.31,-0.11,0.97
0.3,-0.12,0.96
0.32,-0.12,0.96
0.32,-0.12,0.97
0.32,-0.12,0.97
0.33,-0.14,0.96
0.33,-0.13,0.94
0.33,-0.13,0.95
0.32,-0.14,0.96
0.33,-0.13,0.95
0.32,-0.13,0.95
0.31,-0.13,0.95
0.34,-0.18,0.98
0.33,-0.2,0.97
0.31,-0.17,0.92
0.33,-0.15,0.96
0.32,-0.16,0.97
0.3,-0.17,0.95
0.29,-0.17,0.95
0.29,-0.16,0.96
0.3,-0.14,0.96
0.29,-0.13,0.97
0.29,-0.14,0.96
0.3,-0.16,0.96
0.29,-0.15,0.96
0.29,-0.14,0.95
0.29,-0.14,0.95
0.28,-0.15,0.96
0.28,-0.15,0.96
0.29,-0.14,0.97
0.3,-0.14,0.97
0.3,-0.13,0.97
0.29,-0.12,0.97
0.28,-0.09,0.97
0.28,-0.08,0.96
0.27,0.01,0.99
0.27,0.01,0.99
0.28,-0.11,0.96
0.29,-0.13,0.95
0.29,-0.11,0.95
0.28,-0.12,0.95
0.29,-0.1,0.95
0.3,-0.09,0.94
0.3,-0.12,0.94
0.3,-0.13,0.93
0.31,-0.13,0.93
0.32,-0.11,0.94
0.33,-0.11,0.93
0.33,-0.1,0.93
0.33,-0.09,0.94
0.33,-0.08,0.96
0.33,-0.07,0.96
0.33,-0.07,0.96
0.34,-0.08,0.95
0.35,-0.11,0.94
0.35,-0.13,0.93
0.34,-0.14,0.94
0.34,-0.14,0.94
0.33,-0.15,0.94
0.32,-0.15,0.95
0.32,-0.16,0.95
0.31,-0.17,0.95
0.31,-0.17,0.95
0.32,-0.17,0.95
0.33,-0.15,0.95
0.33,-0.14,0.95
0.33,-0.14,0.96
0.33,-0.13,0.96
0.32,-0.13,0.96
0.32,-0.12,0.95
0.32,-0.12,0.95
0.31,-0.13,0.94
0.31,-0.13,0.94
0.31,-0.13,0.94
0.32,-0.13,0.94
0.33,-0.13,0.94
0.32,-0.14,0.95
0.31,-0.15,0.94
0.32,-0.15,0.95
0.33,-0.16,0.94
0.35,-0.15,0.95
0.34,-0.15,0.95
0.34,-0.15,0.95
0.34,-0.15,0.94
0.34,-0.15,0.94
0.35,-0.15,0.94
0.35,-0.15,0.94
0.35,-0.14,0.94
0.35,-0.14,0.94
0.34,-0.14,0.94
0.34,-0.14,0.94
0.34,-0.13,0.94
0.33,-0.13,0.94
0.33,-0.13,0.95
0.33,-0.13,0.95
0.33,-0.13,0.95
0.33,-0.13,0.95
0.33,-0.13,0.95
0.33,-0.13,0.95
0.33,-0.14,0.95
0.33,-0.14,0.95
0.33,-0.14,0.95
0.33,-0.14,0.95
0.33,-0.14,0.94
0.34,-0.13,0.94
0.34,-0.13,0.94
0.34,-0.13,0.94
0.35,-0.13,0.94
0.34,-0.14,0.94
0.34,-0.14,0.94
0.34,-0.14,0.94
0.34,-0.14,0.95
0.34,-0.13,0.94
0.34,-0.13,0.94
0.34,-0.13,0.94
0.34,-0.13,0.94
0.34,-0.13,0.94
0.34,-0.13,0.94
0.34,-0.13,0.94
0.34,-0.14,0.94
0.34,-0.14,0.95
0.34,-0.14,0.95
0.34,-0.14,0.95
0.34,-0.13,0.95
0.34,-0.13,0.94
0.34,-0.13,0.94
0.35,-0.13,0.94
0.34,-0.13,0.94
0.34,-0.13,0.94
0.34,-0.13,0.94
0.34,-0.13,0.95
0.34,-0.13,0.94
0.35,-0.13,0.94
0.35,-0.13,0.94
0.35,-0.13,0.94
0.35,-0.13,0.94
0.35,-0.13,0.94
0.35,-0.13,0.94
0.34,-0.13,0.94
0.34,-0.13,0.94
0.35,-0.13,0.94
0.35,-0.13,0.94
0.35,-0.13,0.94
0.35,-0.13,0.94
0.34,-0.13,0.94
0.34,-0.13,0.94
0.35,-0.13,0.94
0.34,-0.13,0.94
0.34,-0.13,0.94
0.35,-0.13,0.94
0.35,-0.13,0.94
0.35,-0.13,0.94
0.35,-0.13,0.93
0.35,-0.13,0.94
0.35,-0.13,0.94
0.35,-0.13,0.94
0.35,-0.13,0.94
0.35,-0.13,0.94
0.35,-0.13,0.94
0.34,-0.13,0.94
0.34,-0.13,0.94
0.34,-0.13,0.94
0.34,-0.13,0.94
0.34,-0.13,0.94
0.35,-0.13,0.93
0.35,-0.13,0.94
0.35,-0.13,0.94
0.35,-0.13,0.94
0.35,-0.13,0.94
0.36,-0.13,0.94
0.36,-0.13,0.94
0.36,-0.13,0.94
0.35,-0.13,0.94
0.35,-0.13,0.94
0.35,-0.13,0.94
0.35,-0.13,0.93
0.35,-0.13,0.93
0.35,-0.12,0.93
0.35,-0.12,0.93
0.35,-0.13,0.94
0.35,-0.13,0.95
0.35,-0.13,0.95
0.34,-0.14,0.96
0.34,-0.14,0.95
0.34,-0.13,0.94
0.34,-0.12,0.93
0.35,-0.12,0.93
0.35,-0.12,0.93
0.35,-0.13,0.94
0.35,-0.13,0.94
0.35,-0.13,0.94
0.35,-0.13,0.95
0.35,-0.14,0.94
0.35,-0.14,0.94
0.35,-0.14,0.94
0.35,-0.14,0.93
0.36,-0.14,0.93
0.35,-0.14,0.93
0.35,-0.13,0.94
0.35,-0.13,0.94
0.35,-0.13,0.94
0.36,-0.13,0.94
0.36,-0.12,0.94
0.36,-0.12,0.94
0.36,-0.13,0.94
0.35,-0.13,0.94
0.35,-0.13,0.94
0.35,-0.13,0.94
0.35,-0.13,0.93
0.35,-0.13,0.93
0.36,-0.13,0.94
0.36,-0.13,0.94
0.36,-0.13,0.94
0.36,-0.13,0.94
0.36,-0.12,0.94
0.36,-0.12,0.94
0.36,-0.13,0.94
0.35,-0.14,0.94
0.35,-0.15,0.94
0.34,-0.16,0.94
0.34,-0.14,0.93
0.35,-0.11,0.94
0.35,-0.1,0.94
0.35,-0.1,0.94
0.35,-0.11,0.95
0.35,-0.12,0.95
0.35,-0.13,0.95
0.36,-0.13,0.94
0.37,-0.14,0.94
0.37,-0.14,0.94
0.37,-0.14,0.94
0.37,-0.14,0.95
0.37,-0.14,0.95
0.37,-0.13,0.96
0.38,-0.13,0.96
0.38,-0.13,0.96
0.38,-0.12,0.94
0.39,-0.12,0.93
0.37,-0.11,0.93
0.34,-0.11,0.93
0.33,-0.12,0.93
0.33,-0.13,0.92
0.35,-0.13,0.91
0.36,-0.13,0.91
0.36,-0.13,0.91
0.36,-0.14,0.91
0.36,-0.14,0.92
0.36,-0.14,0.92
0.37,-0.13,0.93
0.38,-0.13,0.94
0.38,-0.13,0.94
0.38,-0.13,0.94
0.37,-0.13,0.94
0.37,-0.12,0.94
0.37,-0.12,0.94
0.36,-0.11,0.94
0.36,-0.11,0.93
0.35,-0.11,0.93
0.35,-0.11,0.94
0.34,-0.11,0.94
0.34,-0.11,0.94
0.34,-0.11,0.94
0.34,-0.11,0.94
0.33,-0.11,0.94
0.33,-0.12,0.94
0.34,-0.12,0.94
0.34,-0.11,0.94
0.34,-0.11,0.94
0.35,-0.12,0.94
0.35,-0.12,0.94
0.36,-0.12,0.94
0.36,-0.12,0.94
0.36,-0.12,0.94
0.36,-0.11,0.94
0.36,-0.11,0.94
0.36,-0.12,0.94
0.36,-0.11,0.94
0.36,-0.11,0.94
0.36,-0.1,0.94
0.35,-0.11,0.94
0.35,-0.11,0.94
0.35,-0.11,0.94
0.34,-0.11,0.94
0.35,-0.11,0.94
0.35,-0.11,0.94
0.35,-0.11,0.94
0.35,-0.11,0.95
0.34,-0.11,0.95
0.34,-0.11,0.94
0.35,-0.11,0.94
0.35,-0.11,0.94
0.35,-0.11,0.94
0.36,-0.11,0.94
0.36,-0.11,0.94
0.36,-0.11,0.94
0.36,-0.11,0.95
0.36,-0.11,0.95
0.35,-0.11,0.94
0.35,-0.11,0.94
0.35,-0.11,0.94
0.35,-0.11,0.94
0.35,-0.11,0.94
0.35,-0.11,0.94
0.35,-0.11,0.94
0.35,-0.11,0.94
0.35,-0.11,0.94
0.35,-0.11,0.94
0.35,-0.11,0.94
0.35,-0.11,0.94
0.35,-0.11,0.94
0.35,-0.11,0.94
0.35,-0.11,0.94
0.35,-0.11,0.94
0.36,-0.11,0.94
0.35,-0.11,0.94
0.35,-0.11,0.94
0.35,-0.11,0.94
0.35,-0.11,0.94
0.35,-0.11,0.94
0.35,-0.11,0.94
0.35,-0.11,0.94
0.35,-0.11,0.94
0.35,-0.11,0.94
0.35,-0.11,0.94
0.35,-0.11,0.94
0.35,-0.11,0.94
0.35,-0.11,0.94
0.35,-0.11,0.94
0.35,-0.11,0.94
0.35,-0.11,0.94
0.35,-0.11,0.94
0.35,-0.11,0.94
0.35,-0.11,0.94
0.35,-0.11,0.94
0.35,-0.11,0.94
0.35,-0.11,0.94
0.35,-0.11,0.94
0.36,-0.11,0.94
0.35,-0.11,0.94
0.35,-0.11,0.94
0.36,-0.11,0.94
0.35,-0.11,0.94
0.35,-0.11,0.94
0.35,-0.11,0.94
0.35,-0.11,0.94
0.35,-0.11,0.94
0.35,-0.11,0.94
0.35,-0.11,0.94
0.35,-0.11,0.94
0.35,-0.11,0.94
0.35,-0.11,0.94
0.35,-0.11,0.94
0.35,-0.11,0.94
0.35,-0.11,0.94
0.35,-0.11,0.94
0.35,-0.11,0.94
0.35,-0.11,0.94
0.35,-0.11,0.94
0.35,-0.11,0.94
0.35,-0.11,0.94
0.35,-0.11,0.93
0.36,-0.11,0.93
0.35,-0.11,0.94
0.35,-0.11,0.95
0.35,-0.11,0.95
0.35,-0.11,0.95
0.35,-0.11,0.94
0.35,-0.11,0.93
0.35,-0.1,0.93
0.35,-0.1,0.94
0.35,-0.1,0.94
0.35,-0.11,0.95
0.35,-0.11,0.94
0.35,-0.1,0.94
0.35,-0.1,0.94
0.35,-0.11,0.94
0.35,-0.11,0.94
0.35,-0.11,0.94
0.35,-0.11,0.94
0.35,-0.11,0.94
0.35,-0.11,0.94
0.35,-0.11,0.94
0.35,-0.11,0.94
0.35,-0.11,0.94
0.35,-0.11,0.94
0.35,-0.11,0.94
0.35,-0.11,0.94
0.35,-0.11,0.94
0.35,-0.1,0.94
0.35,-0.11,0.94
0.35,-0.11,0.94
0.35,-0.11,0.95
0.35,-0.11,0.94
0.35,-0.11,0.94
0.35,-0.11,0.94
0.35,-0.11,0.94
0.35,-0.11,0.94
0.35,-0.11,0.94
0.35,-0.1,0.94
0.35,-0.1,0.94
0.35,-0.11,0.94
0.35,-0.11,0.94
0.35,-0.11,0.94
0.35,-0.11,0.94
0.35,-0.1,0.94
0.35,-0.1,0.94
0.35,-0.1,0.94
0.35,-0.11,0.94
0.35,-0.11,0.94
0.35,-0.11,0.94
0.35,-0.11,0.94
0.35,-0.11,0.94
0.36,-0.11,0.94
0.36,-0.11,0.94
0.35,-0.11,0.94
0.35,-0.11,0.94
0.35,-0.11,0.94
0.35,-0.11,0.94
0.35,-0.11,0.94
0.35,-0.1,0.94
0.35,-0.1,0.95
0.35,-0.11,0.94
0.35,-0.1,0.94
0.35,-0.11,0.94
0.35,-0.11,0.94
0.35,-0.11,0.94
0.35,-0.11,0.94
0.35,-0.11,0.94
0.35,-0.11,0.94
0.35,-0.11,0.94
0.35,-0.11,0.94
0.35,-0.1,0.94
0.35,-0.11,0.94
0.35,-0.11,0.94
0.35,-0.11,0.94
0.35,-0.11,0.94
0.35,-0.11,0.94
0.35,-0.11,0.94
0.35,-0.1,0.94
0.35,-0.11,0.94
0.35,-0.11,0.94
0.35,-0.1,0.94
0.35,-0.1,0.94
0.35,-0.1,0.94
0.35,-0.11,0.95
0.35,-0.11,0.94
0.35,-0.11,0.94
0.35,-0.11,0.93
0.36,-0.11,0.93
0.36,-0.11,0.94
0.36,-0.11,0.94
0.36,-0.11,0.95
0.35,-0.11,0.95
0.35,-0.1,0.94
0.35,-0.1,0.94
0.35,-0.11,0.94
0.35,-0.11,0.94
0.35,-0.11,0.94
0.35,-0.11,0.94
0.35,-0.11,0.94
0.35,-0.11,0.94
0.35,-0.11,0.94
0.35,-0.11,0.94
0.36,-0.11,0.94
0.36,-0.11,0.94
0.35,-0.11,0.94
0.35,-0.11,0.94
0.35,-0.11,0.94
0.35,-0.11,0.94
0.35,-0.11,0.94
0.35,-0.11,0.94
0.35,-0.11,0.94
0.35,-0.11,0.94
0.35,-0.11,0.94
0.35,-0.11,0.94
0.35,-0.11,0.94
0.35,-0.11,0.94
0.35,-0.11,0.94
0.35,-0.11,0.94
0.35,-0.11,0.94
0.35,-0.11,0.94
0.35,-0.1,0.94
0.35,-0.1,0.94
0.35,-0.11,0.95
0.35,-0.11,0.95
0.35,-0.11,0.94
0.35,-0.11,0.94
0.35,-0.11,0.94
0.35,-0.11,0.94
0.35,-0.11,0.94
0.35,-0.11,0.94
0.35,-0.11,0.94
0.35,-0.11,0.94
0.35,-0.11,0.94
0.35,-0.11,0.94
0.35,-0.11,0.94
0.35,-0.11,0.94
0.35,-0.11,0.94
0.35,-0.11,0.94
0.35,-0.11,0.94
0.35,-0.11,0.94
0.35,-0.11,0.94
0.35,-0.11,0.94
0.35,-0.11,0.94
0.35,-0.11,0.94
0.35,-0.11,0.94
0.35,-0.11,0.94
0.35,-0.11,0.94
0.35,-0.11,0.94
0.35,-0.11,0.94
0.35,-0.11,0.94
0.35,-0.11,0.94
0.35,-0.11,0.94
0.35,-0.11,0.94
0.35,-0.11,0.94
0.35,-0.11,0.94
0.35,-0.11,0.94
0.35,-0.11,0.94
0.35,-0.11,0.94
0.35,-0.12,0.93
0.35,-0.11,0.93
0.35,-0.11,0.93
0.35,-0.1,0.94
0.35,-0.1,0.94
0.35,-0.1,0.95
0.34,-0.11,0.95
0.34,-0.1,0.95
0.34,-0.11,0.96
0.33,-0.1,0.96
0.33,-0.1,0.95
0.33,-0.1,0.95
0.33,-0.1,0.94
0.33,-0.1,0.94
0.34,-0.1,0.94
0.34,-0.1,0.94
0.35,-0.1,0.95
0.35,-0.11,0.94
0.35,-0.11,0.94
0.36,-0.1,0.93
0.36,-0.1,0.93
0.37,-0.09,0.91
0.36,-0.08,0.91
0.33,-0.09,0.91
0.32,-0.09,0.91
0.33,-0.09,0.9
0.34,-0.09,0.88
0.34,-0.1,0.88
0.34,-0.11,0.88
0.34,-0.11,0.91
0.36,-0.12,0.91
0.37,-0.12,0.91
0.39,-0.11,0.91
0.39,-0.14,0.97
0.43,-0.21,1.03
0.5,-0.21,1.01
0.47,-0.16,0.95
0.38,-0.13,0.89
0.29,-0.11,0.87
0.29,-0.11,0.91
0.37,-0.12,1
0.43,-0.13,0.97
0.49,-0.14,0.9
0.54,-0.14,0.88
0.52,-0.16,0.87
0.5,-0.21,0.89
0.45,-0.22,0.87
0.47,-0.1,0.9
0.48,-0.09,0.94
0.4,-0.18,0.92
0.37,-0.18,0.93
0.36,-0.17,0.93
0.35,-0.18,0.92
0.36,-0.19,0.91
0.39,-0.17,0.9
0.44,-0.16,0.89
0.48,-0.15,0.9
0.47,-0.14,0.9
0.46,-0.15,0.9
0.43,-0.15,0.91
0.41,-0.16,0.9
0.4,-0.16,0.9
0.4,-0.16,0.91
0.4,-0.15,0.92
0.4,-0.14,0.92
0.41,-0.12,0.93
0.41,-0.1,0.92
0.39,-0.1,0.92
0.37,-0.08,0.92
0.38,-0.05,0.93
0.39,-0.03,0.95
0.38,-0.03,0.94
0.38,-0.05,0.93
0.4,-0.07,0.92
0.43,-0.08,0.91
0.45,-0.09,0.92
0.47,-0.09,0.92
0.46,-0.09,0.93
0.44,-0.07,0.95
0.42,-0.07,0.97
0.37,-0.08,1.01
0.34,-0.09,1.02
0.3,-0.06,1.15
0.12,-0.08,1.27
0.11,-0.2,1.24
0.21,-0.22,1.22
0.25,-0.15,1.27
0.26,-0.11,1.26
0.38,-0.12,1.18
0.59,-0.18,1.18
0.65,-0.23,1.27
0.45,-0.22,1.38
0.27,-0.19,1.47
0.29,-0.2,1.45
0.33,-0.24,1.34
0.31,-0.25,1.27
0.3,-0.23,1.25
0.32,-0.22,1.24
0.34,-0.23,1.25
0.36,-0.25,1.28
0.39,-0.26,1.32
0.39,-0.25,1.36
0.35,-0.22,1.38
0.34,-0.19,1.37
0.34,-0.17,1.33
0.35,-0.15,1.3
0.34,-0.11,1.28
0.35,-0.05,1.24
0.37,0.05,1.2
0.4,0.11,1.2
0.42,0.16,1.17
0.46,0.22,1.11
0.5,0.31,1.04
0.54,0.42,0.99
0.56,0.53,0.96
0.55,0.65,0.96
0.54,0.74,0.98
0.58,0.8,0.96
0.64,0.81,0.89
0.68,0.82,0.81
0.73,0.81,0.76
0.76,0.75,0.72
0.74,0.64,0.69
0.74,0.5,0.61
0.79,0.28,0.53
0.84,-0.04,0.47
0.86,-0.36,0.5
0.82,-0.49,0.74
0.68,-0.42,1.14
0.55,-0.13,1.49
0.45,0.28,1.59
0.3,0.53,1.34
0.18,0.57,1.09
0.12,0.44,1.01
0.14,0.26,0.91
0.06,0.34,1.03
-0.06,0.36,1.13
-0.18,0.31,1.13
-0.25,0.25,1.07
-0.27,0.19,0.95
-0.21,0.14,0.81
-0.15,0.14,0.74
-0.1,0.16,0.75
-0.03,0.15,0.77
0.02,0.11,0.77
0.02,0.07,0.76
-0.03,0.04,0.71
-0.02,0.05,0.68
0.05,0.04,0.69
0.09,-0.13,0.85
0.04,-0.32,0.89
-0.04,-0.26,0.73
-0.21,-0.31,0.69
-0.37,-0.45,0.73
-0.27,-0.19,0.78
-0.09,0.05,0.72
-0.01,-0.06,0.55
-0.05,-0.21,0.42
-0.14,-0.25,0.4
-0.23,-0.22,0.53
-0.32,-0.2,0.61
-0.19,-0.16,0.56
-0.11,-0.13,0.59
-0.06,-0.16,0.64
-0.05,-0.23,0.64
-0.1,-0.24,0.61
-0.13,-0.2,0.59
-0.15,-0.22,0.56
-0.18,-0.26,0.52
-0.22,-0.26,0.52
-0.28,-0.21,0.57
-0.31,-0.15,0.59
-0.36,-0.11,0.61
-0.43,-0.08,0.66
-0.48,-0.03,0.73
-0.45,0.02,0.78
-0.37,0.04,0.82
-0.3,-0.03,0.84
-0.25,-0.1,0.85
-0.21,-0.12,0.89
-0.21,-0.12,0.94
-0.2,-0.11,0.95
-0.13,-0.13,0.91
-0.05,-0.26,0.85
-0.03,-0.41,0.84
-0.03,-0.46,0.84
-0.02,-0.43,0.79
-0.06,-0.5,0.78
-0.11,-0.56,0.74
-0.16,-0.65,0.67
-0.27,-0.78,0.58
-0.37,-0.87,0.52
-0.41,-0.98,0.47
-0.47,-1.14,0.38
-0.59,-1.32,0.2
-0.75,-1.45,-0.03
-0.91,-1.54,-0.2
-1.06,-1.6,-0.29
-1.06,-1.68,-0.3
-1.05,-1.8,-0.3
-1.04,-1.92,-0.38
-0.83,-1.99,-0.53
-0.69,-1.95,-0.64
-0.6,-1.82,-0.56
-0.45,-1.76,-0.42
-0.38,-1.83,-0.34
-0.32,-1.91,-0.27
-0.21,-1.87,-0.13
0.06,-1.78,0.17
0.4,-1.73,0.5
0.56,-1.71,0.69
0.6,-1.73,0.79
0.67,-1.71,1.26
0.97,-1.44,1.53
0.86,-1.41,1.59
0.78,-1.37,1.56
0.77,-1.35,1.48
0.77,-1.33,1.37
0.79,-1.3,1.29
0.83,-1.26,1.17
0.85,-1.14,0.96
0.84,-0.94,0.75
0.85,-0.86,0.58
0.89,-0.91,0.47
0.91,-0.94,0.42
0.85,-0.96,0.39
0.76,-0.98,0.3
0.66,-1.03,0.24
0.57,-1.08,0.19
0.51,-1.14,0.17
0.39,-1.2,0.14
0.22,-1.27,0.07
0.1,-1.31,-0.02
0.03,-1.36,-0.09
0.02,-1.38,-0.01
-0.01,-1.42,-0.03
-0.07,-1.51,-0.1
-0.08,-1.28,0.05
-0.18,-0.98,0.13
-0.27,-1.19,0.02
-0.2,-1.1,-0.12
-0.05,-1.03,-0.23
-0.01,-0.99,-0.27
-0.07,-0.9,-0.25
-0.1,-0.84,-0.28
-0.09,-0.86,-0.34
-0.12,-0.86,-0.32
-0.1,-0.91,-0.3
-0.16,-0.96,-0.33
-0.07,-0.98,-0.28
0.15,-0.91,-0.18
0.19,-0.85,-0.17
0.25,-0.93,-0.18
0.29,-0.98,-0.17
0.27,-0.96,-0.15
0.27,-0.93,-0.19
0.28,-0.94,-0.27
0.3,-0.98,-0.36
0.38,-1.01,-0.38
0.45,-1.02,-0.32
0.46,-1.01,-0.31
0.43,-1,-0.36
0.48,-0.95,-0.4
0.52,-0.91,-0.41
0.5,-0.94,-0.51
0.49,-1.09,-0.55
0.46,-1.09,-0.52
0.44,-1.09,-0.48
0.46,-1.07,-0.4
0.46,-1.04,-0.33
0.41,-1.02,-0.28
0.33,-1.02,-0.29
0.29,-1.02,-0.35
0.28,-1.01,-0.42
0.31,-0.97,-0.44
0.31,-0.92,-0.33
0.28,-0.91,-0.33
0.2,-0.94,-0.37
0.25,-0.99,-0.36
0.25,-1.04,-0.29
0.14,-1.07,0.15
0.01,-1.09,0.27
0.01,-1.05,0.34
0.05,-1.06,0.24
0.14,-1.1,0.07
0.21,-1.13,-0.05
0.17,-1.05,-0.11
0.17,-1.05,-0.06
-0.32,-1.05,-0.12
-0.76,-1.24,-0.28
-0.7,-1.42,-0.44
-0.14,-0.87,-0.03
-0.15,-0.76,-0.13
-0.05,-0.71,-0.25
0.05,-0.8,-0.37
0.02,-1.01,-0.48
-0.04,-1.25,-0.57
0.07,-1.09,-0.35
0.19,-1,-0.18
0.23,-1.12,-0.16
0.24,-1.18,-0.11
0.26,-1.13,0.03
0.04,-1.08,-0.01
0.08,-1.07,-0.12
0.04,-1.01,-0.1
0.04,-1.03,-0.07
0.02,-1.06,-0.04
-0.03,-1.07,-0.04
-0.22,-1,0.09
-0.19,-1,0.16
-0.15,-1.03,0.21
-0.05,-1.06,0.17
-0.02,-1.09,0.13
-0.02,-1.08,0.06
-0.03,-1.1,0.09
-0.05,-1.15,0.11
-0.02,-1.11,0.06
0,-1.12,0.02
0.05,-1.13,0.05
0.05,-1.16,0.22
-0.28,-1.16,0.76
0.59,-1.11,0.6
0.8,-0.96,-0.06
-0.14,-1.03,0.03
-0.1,-1.28,0.17
-0.08,-1.23,0.12
-0.16,-1.06,0.04
-0.28,-0.99,0
-0.16,-0.92,0.12
-0.09,-0.85,0.36
-0.17,-0.87,0.43
-0.12,-0.87,0.37
-0.01,-0.82,0.38
0.08,-0.76,0.41
0,-0.82,0.29
-0.01,-0.88,0.19
0.04,-0.93,0.2
0.08,-0.96,0.23
0.12,-0.96,0.19
0.15,-1.02,0.12
0.21,-1.08,0.09
0.25,-1.2,-0.03
0.22,-1.18,-0.09
0.09,-1.07,0.03
0.01,-1.2,0.15
-0.23,-1.23,0.22
-0.57,-1.29,0.3
-0.48,-1.41,0.43
-0.26,-1.44,0.38
-0.21,-1.54,0.25
-0.33,-1.59,0.21
-0.46,-1.57,0.21
-0.37,-1.58,0.15
-0.27,-1.54,0.13
-0.22,-1.4,0.14
-0.24,-1.38,0.09
-0.23,-1.36,0.07
-0.18,-1.31,0.07
-0.21,-1.31,0.08
-0.25,-1.31,0.09
-0.3,-1.37,0.05
-0.31,-1.43,0.02
-0.35,-1.49,-0.01
-0.39,-1.49,-0.03
-0.42,-1.47,-0.04
-0.39,-1.45,-0.02
-0.34,-1.44,-0.01
-0.31,-1.45,0
-0.29,-1.5,0.02
-0.3,-1.53,0.03
-0.31,-1.54,0.02
-0.31,-1.56,-0.01
-0.28,-1.55,-0.04
-0.26,-1.5,-0.06
-0.25,-1.47,-0.06
-0.28,-1.46,-0.04
-0.24,-1.48,-0.03
-0.16,-1.51,-0.03
-0.14,-1.52,-0.01
-0.12,-1.51,0.01
-0.12,-1.54,0
-0.16,-1.54,0
-0.24,-1.5,0
-0.24,-1.47,-0.01
-0.19,-1.41,-0.02
-0.19,-1.37,-0.02
-0.13,-1.34,0
-0.09,-1.35,0.02
-0.1,-1.34,0.05
-0.03,-1.32,0.07
-0.1,-1.28,0.06
-0.15,-1.25,0.07
-0.05,-1.2,0.07
-0.08,-1.14,0.08
-0.09,-1.12,0.11
-0.03,-1.1,0.13
-0.01,-1.07,0.14
0.05,-1.05,0.12
0.05,-1.05,0.1
0.01,-1.03,0.11
0.01,-0.99,0.1
0,-0.92,0.1
-0.06,-0.84,0.12
-0.08,-0.8,0.14
0,-0.8,0.15
-0.03,-0.75,0.17
-0.04,-0.76,0.16
0,-0.72,0.14
-0.04,-0.63,0.18
-0.02,-0.63,0.19
0.02,-0.65,0.17
0,-0.62,0.18
-0.01,-0.61,0.18
0.05,-0.62,0.17
0.05,-0.6,0.16
0.04,-0.56,0.15
0.05,-0.55,0.14
0.06,-0.54,0.13
0.07,-0.53,0.13
0.08,-0.52,0.12
0.1,-0.52,0.12
0.13,-0.53,0.12
0.16,-0.54,0.11
0.17,-0.55,0.1
0.17,-0.57,0.1
0.17,-0.59,0.09
0.18,-0.59,0.09
0.19,-0.58,0.09
0.18,-0.58,0.09
0.17,-0.59,0.08
0.17,-0.6,0.06
0.17,-0.62,0.04
0.17,-0.64,0.03
0.17,-0.66,0.03
0.18,-0.67,0.03
0.18,-0.68,0.05
0.18,-0.67,0.06
0.17,-0.67,-0.02
0.16,-0.69,-0.03
0.15,-0.73,-0.07
0.16,-0.78,-0.09
0.16,-0.84,-0.11
0.18,-0.89,-0.12
0.21,-0.93,-0.14
0.26,-0.98,-0.15
0.31,-1.02,-0.16
0.33,-1.03,-0.14
0.35,-1.03,-0.11
0.37,-1.04,-0.09
0.39,-1.07,-0.08
0.39,-1.09,-0.08
0.39,-1.1,-0.06
0.38,-1.08,-0.04
0.36,-1.06,-0.02
0.36,-1.06,-0.01
0.35,-1.06,-0.01
0.35,-1.06,0.01
0.37,-1.06,0.04
0.38,-1.06,0.06
0.38,-1.07,0.08
0.38,-1.08,0.07
0.39,-1.09,0.08
0.4,-1.1,0.11
0.4,-1.1,0.12
0.38,-1.12,0.08
0.32,-1.12,0.09
0.33,-1.11,0.11
0.33,-1.1,0.13
0.34,-1.09,0.15
0.35,-1.1,0.16
0.34,-1.16,0.17
0.33,-1.26,0.17
0.34,-1.35,0.15
0.35,-1.42,0.13
0.35,-1.45,0.11
0.35,-1.48,0.09
0.34,-1.5,0.05
0.3,-1.51,0.01
0.23,-1.49,-0.02
0.18,-1.47,-0.04
0.13,-1.47,-0.06
0.12,-1.49,-0.06
0.15,-1.52,-0.07
0.15,-1.58,-0.01
0.11,-1.66,0.02
0.1,-1.73,-0.03
0.08,-1.74,-0.04
0.04,-1.72,-0.07
0.02,-1.69,-0.12
0.02,-1.63,-0.17
0.04,-1.52,-0.19
0.05,-1.48,-0.22
0.05,-1.41,-0.19
-0.02,-1.32,-0.17
-0.07,-1.26,-0.18
-0.04,-1.17,-0.2
0.02,-1.04,-0.18
0.04,-0.94,-0.15
0.08,-0.87,-0.13
0.11,-0.83,-0.09
0.12,-0.81,-0.04
0.13,-0.79,-0.01
0.15,-0.77,0.01
0.16,-0.75,0.01
0.19,-0.72,0.01
0.2,-0.71,0.01
0.22,-0.68,0.01
0.25,-0.64,0.03
0.28,-0.61,0.04
0.31,-0.58,0.05
0.35,-0.55,0.09
0.39,-0.54,0.13
0.4,-0.53,0.15
0.41,-0.52,0.17
