Acc_x,Acc_y,Acc_z
0.58,0.87,0.09
0.6,0.86,0.08
0.6,0.84,0.08
0.6,0.82,0.08
0.58,0.8,0.08
0.55,0.78,0.08
0.52,0.77,0.07
0.51,0.77,0.07
0.49,0.77,0.07
0.48,0.78,0.05
0.48,0.79,0.05
0.48,0.79,0.08
0.48,0.78,0.11
0.48,0.78,0.14
0.49,0.78,0.16
0.49,0.79,0.17
0.49,0.8,0.17
0.48,0.82,0.17
0.48,0.83,0.17
0.48,0.84,0.16
0.48,0.84,0.15
0.49,0.84,0.14
0.49,0.84,0.14
0.5,0.84,0.15
0.5,0.84,0.16
0.5,0.84,0.16
0.5,0.85,0.16
0.5,0.85,0.16
0.51,0.85,0.15
0.52,0.84,0.14
0.52,0.83,0.14
0.51,0.82,0.15
0.51,0.81,0.14
0.5,0.81,0.14
0.5,0.81,0.14
0.49,0.81,0.14
0.5,0.81,0.15
0.52,0.81,0.16
0.52,0.82,0.16
0.53,0.83,0.16
0.54,0.83,0.16
0.53,0.83,0.16
0.53,0.83,0.16
0.53,0.83,0.15
0.54,0.83,0.15
0.54,0.82,0.14
0.54,0.82,0.13
0.54,0.83,0.13
0.54,0.82,0.13
0.54,0.82,0.12
0.53,0.82,0.12
0.54,0.82,0.12
0.55,0.82,0.11
0.55,0.81,0.1
0.54,0.82,0.1
0.54,0.83,0.1
0.55,0.83,0.1
0.54,0.82,0.11
0.54,0.83,0.11
0.54,0.83,0.1
0.54,0.83,0.1
0.54,0.83,0.09
0.53,0.83,0.09
0.52,0.84,0.1
0.53,0.85,0.1
0.53,0.85,0.1
0.54,0.85,0.1
0.53,0.85,0.09
0.53,0.85,0.1
0.53,0.84,0.1
0.53,0.84,0.1
0.53,0.84,0.11
0.53,0.84,0.12
0.54,0.84,0.12
0.54,0.84,0.12
0.54,0.84,0.12
0.53,0.84,0.12
0.53,0.83,0.12
0.54,0.83,0.12
0.54,0.82,0.12
0.54,0.81,0.12
0.54,0.81,0.13
0.54,0.81,0.13
0.55,0.8,0.12
0.55,0.8,0.12
0.55,0.8,0.13
0.55,0.8,0.13
0.55,0.8,0.14
0.55,0.8,0.14
0.56,0.81,0.14
0.57,0.81,0.13
0.56,0.81,0.13
0.56,0.82,0.13
0.56,0.81,0.13
0.57,0.81,0.13
0.57,0.82,0.13
0.57,0.82,0.13
0.57,0.82,0.12
0.56,0.81,0.12
0.56,0.81,0.12
0.56,0.81,0.12
0.56,0.81,0.12
0.56,0.81,0.12
0.56,0.81,0.12
0.56,0.8,0.12
0.56,0.8,0.13
0.55,0.8,0.13
0.55,0.8,0.13
0.56,0.8,0.14
0.56,0.81,0.14
0.57,0.81,0.13
0.57,0.8,0.13
0.56,0.8,0.13
0.56,0.8,0.13
0.55,0.8,0.13
0.56,0.8,0.13
0.56,0.8,0.13
0.56,0.8,0.13
0.56,0.81,0.12
0.56,0.81,0.12
0.57,0.81,0.12
0.57,0.81,0.12
0.57,0.81,0.12
0.56,0.81,0.12
0.56,0.81,0.12
0.56,0.81,0.13
0.56,0.81,0.13
0.56,0.81,0.13
0.57,0.81,0.13
0.57,0.81,0.13
0.57,0.81,0.13
0.56,0.81,0.13
0.56,0.81,0.13
0.56,0.81,0.13
0.56,0.81,0.13
0.56,0.82,0.12
0.56,0.81,0.12
0.56,0.81,0.12
0.56,0.81,0.12
0.57,0.81,0.12
0.56,0.81,0.12
0.56,0.8,0.12
0.56,0.8,0.12
0.56,0.8,0.12
0.56,0.8,0.12
0.56,0.8,0.12
0.56,0.8,0.12
0.56,0.8,0.13
0.57,0.8,0.15
0.58,0.79,0.17
0.6,0.79,0.2
0.61,0.78,0.22
0.61,0.79,0.22
0.62,0.8,0.21
0.62,0.8,0.19
0.61,0.8,0.18
0.62,0.8,0.16
0.62,0.79,0.16
0.6,0.77,0.21
0.62,0.76,0.24
0.65,0.76,0.23
0.66,0.77,0.22
0.63,0.77,0.22
0.6,0.77,0.21
0.58,0.78,0.19
0.56,0.79,0.17
0.54,0.8,0.15
0.54,0.8,0.14
0.53,0.8,0.11
0.51,0.8,0.1
0.5,0.8,0.09
0.49,0.81,0.07
0.49,0.83,0.06
0.49,0.84,0.04
0.48,0.85,0.01
0.48,0.85,0
0.47,0.85,-0.01
0.47,0.86,-0.02
0.48,0.86,-0.03
0.47,0.87,-0.04
0.47,0.88,-0.06
0.46,0.89,-0.08
0.45,0.9,-0.1
0.44,0.9,-0.1
0.44,0.9,-0.1
0.44,0.9,-0.11
0.44,0.9,-0.11
0.44,0.9,-0.12
0.43,0.91,-0.13
0.43,0.92,-0.14
0.43,0.92,-0.15
0.43,0.91,-0.15
0.43,0.91,-0.16
0.42,0.9,-0.16
0.43,0.9,-0.17
0.42,0.9,-0.17
0.41,0.89,-0.17
0.4,0.89,-0.18
0.4,0.89,-0.19
0.39,0.9,-0.19
0.39,0.9,-0.2
0.39,0.91,-0.21
0.39,0.91,-0.21
0.38,0.92,-0.22
0.37,0.92,-0.22
0.37,0.91,-0.22
0.37,0.91,-0.21
0.37,0.91,-0.21
0.37,0.92,-0.24
0.38,0.93,-0.26
0.4,0.93,-0.29
0.4,0.93,-0.32
0.39,0.91,-0.33
0.39,0.9,-0.35
0.39,0.88,-0.37
0.4,0.86,-0.4
0.41,0.85,-0.43
0.43,0.83,-0.44
0.45,0.8,-0.44
0.46,0.78,-0.41
0.48,0.75,-0.36
0.51,0.66,-0.27
1.99,-1.38,1.83
2.38,-1.9,3.33
0.72,0.17,1.3
0.12,1.17,-0.33
0.29,1.39,-0.43
0.7,0.96,-0.19
0.77,0.76,-0.04
0.68,0.84,-0.05
0.81,0.9,-0.07
0.87,0.89,0.06
0.66,0.86,0.18
0.45,0.88,0.19
0.38,0.89,0.15
0.4,0.86,0.13
0.44,0.85,0.15
0.49,0.84,0.16
0.55,0.83,0.15
0.6,0.83,0.15
0.62,0.82,0.14
0.63,0.8,0.13
0.62,0.79,0.12
0.61,0.8,0.09
0.6,0.79,0.08
0.61,0.79,0.06
0.61,0.79,0.06
0.6,0.8,0.06
0.61,0.8,0.06
0.61,0.8,0.07
0.61,0.8,0.08
0.6,0.81,0.09
0.6,0.81,0.1
0.61,0.8,0.1
0.62,0.8,0.1
0.62,0.8,0.1
0.6,0.8,0.1
0.59,0.8,0.1
0.59,0.79,0.1
0.59,0.78,0.09
0.59,0.78,0.09
0.59,0.78,0.1
0.57,0.78,0.1
0.57,0.77,0.09
0.57,0.77,0.09
0.57,0.77,0.1
0.57,0.77,0.11
0.57,0.78,0.11
0.58,0.79,0.11
0.58,0.78,0.11
0.58,0.79,0.11
0.58,0.8,0.11
0.58,0.81,0.11
0.59,0.81,0.1
0.6,0.82,0.11
0.59,0.82,0.11
0.59,0.82,0.11
0.59,0.82,0.1
0.58,0.82,0.1
0.58,0.82,0.1
0.58,0.82,0.09
0.57,0.81,0.08
0.56,0.81,0.09
0.55,0.8,0.1
0.55,0.79,0.11
0.55,0.79,0.12
0.55,0.79,0.13
0.55,0.79,0.14
0.55,0.79,0.14
0.55,0.79,0.14
0.55,0.78,0.14
0.55,0.78,0.15
0.56,0.78,0.15
0.56,0.77,0.16
0.57,0.77,0.15
0.57,0.77,0.14
0.56,0.77,0.14
0.56,0.77,0.14
0.57,0.77,0.14
0.58,0.77,0.13
0.58,0.77,0.14
0.57,0.77,0.14
0.58,0.78,0.14
0.58,0.78,0.13
0.59,0.79,0.13
0.59,0.79,0.12
0.6,0.8,0.12
0.6,0.8,0.13
0.6,0.8,0.12
0.6,0.81,0.12
0.6,0.81,0.12
0.6,0.81,0.11
0.59,0.81,0.11
0.59,0.8,0.1
0.59,0.81,0.1
0.58,0.81,0.09
0.58,0.81,0.1
0.58,0.8,0.1
0.58,0.8,0.1
0.58,0.8,0.1
0.57,0.81,0.1
0.56,0.81,0.11
0.56,0.8,0.11
0.56,0.81,0.11
0.55,0.81,0.11
0.55,0.8,0.1
0.55,0.81,0.1
0.55,0.81,0.1
0.55,0.81,0.1
0.56,0.81,0.1
0.56,0.81,0.1
0.56,0.81,0.11
0.56,0.81,0.11
0.57,0.81,0.1
0.57,0.81,0.1
0.58,0.8,0.1
0.58,0.8,0.1
0.58,0.8,0.09
0.59,0.8,0.09
0.59,0.8,0.1
0.59,0.8,0.1
0.59,0.8,0.1
0.58,0.8,0.1
0.58,0.8,0.1
0.58,0.81,0.1
0.58,0.81,0.1
0.59,0.81,0.1
0.59,0.8,0.1
0.58,0.8,0.1
0.58,0.8,0.09
0.58,0.81,0.09
0.58,0.8,0.1
0.57,0.8,0.1
0.56,0.8,0.1
0.55,0.81,0.09
0.56,0.81,0.09
0.56,0.81,0.1
0.56,0.81,0.1
0.57,0.81,0.11
0.57,0.8,0.1
0.56,0.8,0.1
0.56,0.8,0.1
0.55,0.8,0.09
0.55,0.8,0.09
0.55,0.81,0.09
0.55,0.81,0.09
0.55,0.81,0.1
0.56,0.81,0.1
0.56,0.81,0.09
0.57,0.81,0.09
0.58,0.81,0.1
0.59,0.81,0.1
0.59,0.81,0.11
0.59,0.81,0.11
0.59,0.81,0.11
0.59,0.81,0.1
0.58,0.81,0.1
0.58,0.81,0.09
0.57,0.81,0.08
0.57,0.8,0.08
0.57,0.8,0.09
0.57,0.79,0.1
0.57,0.79,0.11
0.57,0.79,0.11
0.57,0.79,0.11
0.57,0.8,0.11
0.57,0.8,0.11
0.57,0.8,0.1
0.57,0.8,0.1
0.57,0.81,0.1
0.56,0.81,0.1
0.56,0.8,0.1
0.56,0.8,0.1
0.56,0.81,0.1
0.57,0.81,0.1
0.57,0.81,0.1
0.58,0.81,0.11
0.58,0.8,0.11
0.59,0.8,0.1
0.59,0.8,0.1
0.59,0.8,0.1
0.59,0.8,0.1
0.58,0.8,0.1
0.58,0.8,0.1
0.58,0.8,0.1
0.57,0.8,0.09
0.56,0.81,0.1
0.56,0.81,0.1
0.56,0.81,0.1
0.56,0.81,0.11
0.56,0.8,0.11
0.56,0.8,0.11
0.57,0.8,0.1
0.57,0.8,0.1
0.58,0.8,0.1
0.58,0.8,0.1
0.58,0.8,0.11
0.58,0.79,0.12
0.6,0.79,0.15
0.63,0.79,0.18
0.66,0.79,0.21
0.67,0.79,0.24
0.67,0.79,0.25
0.66,0.8,0.24
0.66,0.79,0.23
0.68,0.77,0.23
0.7,0.76,0.25
0.67,0.73,0.3
0.67,0.7,0.33
0.7,0.68,0.36
0.71,0.68,0.31
0.66,0.72,0.27
0.62,0.74,0.23
0.6,0.76,0.19
0.58,0.76,0.16
0.56,0.77,0.13
0.55,0.77,0.11
0.54,0.77,0.1
0.54,0.78,0.08
0.51,0.79,0.04
0.49,0.81,0.01
0.48,0.83,-0.04
0.47,0.85,-0.1
0.46,0.86,-0.14
0.44,0.87,-0.16
0.41,0.88,-0.19
0.4,0.89,-0.22
0.4,0.89,-0.25
0.36,0.9,-0.28
0.35,0.9,-0.29
0.36,0.91,-0.31
0.36,0.91,-0.32
0.34,0.92,-0.34
0.32,0.93,-0.35
0.31,0.95,-0.37
0.3,0.96,-0.37
0.29,0.96,-0.37
0.28,0.98,-0.36
0.29,0.98,-0.35
0.29,0.97,-0.34
0.3,0.96,-0.33
0.31,0.96,-0.33
0.31,0.95,-0.34
0.3,0.95,-0.35
0.31,0.94,-0.35
0.33,0.92,-0.36
0.34,0.91,-0.36
0.36,0.89,-0.35
0.36,0.89,-0.36
0.36,0.89,-0.38
0.38,0.88,-0.39
0.41,0.87,-0.38
0.44,0.85,-0.36
0.48,0.81,-0.32
0.52,0.78,-0.26
0.54,0.75,-0.19
0.55,0.73,-0.11
0.57,0.72,-0.04
0.78,0.67,-0.28
2.48,0.49,1.7
1.89,-0.35,2.48
-0.25,0.05,0.43
-0.19,1.36,-0.35
0.8,0.91,-0.3
0.62,0.89,-0.18
0.61,0.91,-0.09
0.79,0.88,0.04
0.74,0.85,0.14
0.52,0.88,0.17
0.38,0.89,0.17
0.39,0.84,0.17
0.44,0.81,0.16
0.45,0.8,0.16
0.51,0.79,0.16
0.59,0.8,0.14
0.63,0.8,0.13
0.62,0.79,0.12
0.59,0.79,0.11
0.56,0.79,0.09
0.53,0.79,0.09
0.52,0.79,0.09
0.52,0.79,0.1
0.53,0.79,0.12
0.54,0.79,0.14
0.55,0.79,0.16
0.55,0.8,0.18
0.56,0.81,0.17
0.57,0.82,0.16
0.58,0.82,0.16
0.56,0.82,0.14
0.56,0.82,0.13
0.56,0.82,0.12
0.56,0.82,0.12
0.56,0.81,0.11
0.56,0.81,0.11
0.55,0.81,0.12
0.55,0.8,0.12
0.55,0.8,0.12
0.55,0.8,0.13
0.55,0.8,0.13
0.56,0.81,0.13
0.56,0.81,0.13
0.56,0.81,0.13
0.56,0.81,0.12
0.56,0.8,0.13
0.56,0.8,0.13
0.56,0.8,0.13
0.56,0.8,0.12
0.56,0.8,0.12
0.56,0.81,0.12
0.56,0.81,0.12
0.56,0.81,0.12
0.56,0.81,0.12
0.56,0.82,0.12
0.56,0.83,0.11
0.56,0.82,0.1
0.55,0.82,0.11
0.56,0.82,0.11
0.56,0.82,0.11
0.55,0.82,0.11
0.55,0.82,0.11
0.55,0.81,0.12
0.55,0.81,0.12
0.55,0.81,0.12
0.55,0.81,0.12
0.55,0.81,0.11
0.54,0.81,0.1
0.55,0.81,0.11
0.55,0.8,0.11
0.55,0.8,0.12
0.55,0.8,0.13
0.56,0.8,0.13
0.56,0.8,0.13
0.57,0.8,0.12
0.57,0.8,0.11
0.56,0.81,0.11
0.56,0.81,0.11
0.56,0.81,0.11
0.57,0.81,0.11
0.58,0.81,0.11
0.57,0.81,0.11
0.57,0.81,0.12
0.58,0.81,0.11
0.59,0.81,0.11
0.59,0.81,0.11
0.58,0.81,0.1
0.58,0.81,0.11
0.58,0.81,0.11
0.57,0.81,0.1
0.57,0.81,0.1
0.57,0.81,0.1
0.57,0.81,0.1
0.57,0.8,0.1
0.57,0.8,0.11
0.57,0.8,0.11
0.56,0.8,0.11
0.56,0.8,0.11
0.56,0.81,0.11
0.56,0.81,0.1
0.56,0.82,0.1
0.57,0.82,0.1
0.57,0.82,0.1
0.57,0.82,0.11
0.57,0.82,0.11
0.57,0.81,0.11
0.57,0.81,0.11
0.57,0.81,0.1
0.57,0.81,0.1
0.56,0.81,0.1
0.56,0.81,0.1
0.56,0.81,0.1
0.56,0.81,0.1
0.56,0.8,0.1
0.56,0.8,0.11
0.56,0.8,0.11
0.56,0.8,0.11
0.56,0.8,0.11
0.56,0.8,0.11
0.56,0.8,0.11
0.56,0.81,0.11
0.56,0.8,0.11
0.57,0.8,0.11
0.57,0.81,0.11
0.57,0.81,0.11
0.56,0.81,0.11
0.57,0.81,0.11
0.57,0.81,0.1
0.57,0.81,0.1
0.57,0.81,0.11
0.57,0.8,0.11
0.57,0.81,0.11
0.57,0.81,0.11
0.57,0.81,0.12
0.56,0.81,0.11
0.56,0.8,0.1
0.56,0.81,0.1
0.56,0.81,0.1
0.56,0.81,0.1
0.56,0.8,0.11
0.56,0.81,0.11
0.56,0.81,0.12
0.56,0.8,0.12
0.56,0.8,0.11
0.56,0.8,0.11
0.56,0.81,0.1
0.56,0.81,0.1
0.56,0.81,0.1
0.56,0.81,0.11
0.57,0.81,0.12
0.58,0.81,0.12
0.58,0.81,0.14
0.59,0.8,0.16
0.61,0.79,0.19
0.63,0.79,0.23
0.65,0.78,0.25
0.65,0.78,0.28
0.65,0.78,0.28
0.67,0.77,0.27
0.68,0.76,0.28
0.68,0.74,0.33
0.75,0.7,0.36
0.74,0.7,0.37
0.72,0.7,0.35
0.71,0.71,0.31
0.67,0.72,0.26
0.64,0.74,0.22
0.6,0.74,0.18
0.57,0.75,0.14
0.56,0.76,0.1
0.53,0.76,0.06
0.49,0.77,0.02
0.47,0.79,-0.03
0.46,0.81,-0.1
0.44,0.83,-0.17
0.42,0.86,-0.23
0.41,0.88,-0.28
0.39,0.9,-0.3
0.38,0.91,-0.31
0.38,0.91,-0.32
0.38,0.91,-0.33
0.38,0.91,-0.33
0.36,0.91,-0.32
0.35,0.91,-0.31
0.35,0.92,-0.32
0.35,0.93,-0.32
0.34,0.93,-0.32
0.35,0.94,-0.32
0.34,0.93,-0.31
0.33,0.93,-0.3
0.33,0.93,-0.3
0.33,0.93,-0.29
0.34,0.92,-0.28
0.35,0.92,-0.28
0.36,0.92,-0.28
0.37,0.92,-0.28
0.37,0.92,-0.28
0.36,0.91,-0.3
0.35,0.92,-0.32
0.35,0.92,-0.34
0.35,0.92,-0.36
0.35,0.92,-0.37
0.36,0.91,-0.37
0.37,0.91,-0.36
0.37,0.92,-0.38
0.37,0.93,-0.42
0.36,0.93,-0.45
0.36,0.9,-0.45
0.39,0.86,-0.4
0.43,0.82,-0.33
0.48,0.78,-0.25
0.5,0.75,-0.19
0.52,0.75,-0.14
2.25,-0.59,2.91
1.06,0.59,0.75
-0.35,1.2,-0.28
-0.56,1.33,-0.03
0.1,0.85,0.03
0.67,0.72,-0.24
0.8,0.92,-0.39
0.92,1,-0.3
1,0.95,-0.11
0.68,0.9,0.07
0.35,0.9,0.13
0.28,0.87,0.12
0.32,0.82,0.13
0.37,0.81,0.16
0.43,0.81,0.18
0.51,0.8,0.15
0.56,0.81,0.13
0.57,0.81,0.12
0.55,0.8,0.12
0.53,0.79,0.13
0.52,0.8,0.13
0.52,0.81,0.11
0.51,0.82,0.09
0.5,0.82,0.08
0.5,0.83,0.08
0.51,0.84,0.09
0.53,0.83,0.09
0.56,0.83,0.09
0.56,0.84,0.08
0.56,0.83,0.08
0.57,0.83,0.08
0.56,0.84,0.08
0.56,0.84,0.08
0.56,0.84,0.08
0.56,0.84,0.08
0.56,0.84,0.07
0.56,0.84,0.06
0.56,0.84,0.06
0.55,0.84,0.07
0.55,0.83,0.07
0.55,0.83,0.07
0.54,0.83,0.08
0.53,0.83,0.08
0.52,0.83,0.08
0.51,0.83,0.09
0.52,0.83,0.09
0.52,0.83,0.09
0.53,0.83,0.08
0.53,0.83,0.09
0.53,0.83,0.09
0.52,0.82,0.09
0.52,0.82,0.09
0.52,0.82,0.09
0.52,0.83,0.09
0.53,0.83,0.08
0.53,0.83,0.08
0.52,0.82,0.08
0.52,0.82,0.08
0.53,0.82,0.08
0.53,0.82,0.09
0.53,0.82,0.09
0.53,0.82,0.09
0.53,0.83,0.08
0.54,0.83,0.07
0.55,0.84,0.06
0.54,0.84,0.06
0.54,0.84,0.06
0.54,0.83,0.06
0.54,0.83,0.06
0.55,0.82,0.07
0.55,0.83,0.08
0.54,0.83,0.08
0.54,0.83,0.08
0.54,0.83,0.08
0.54,0.83,0.08
0.54,0.83,0.08
0.54,0.83,0.08
0.54,0.83,0.08
0.54,0.82,0.08
0.53,0.83,0.09
0.53,0.83,0.08
0.54,0.83,0.08
0.54,0.82,0.08
0.53,0.82,0.09
0.53,0.83,0.09
0.54,0.83,0.08
0.54,0.83,0.08
0.54,0.83,0.08
0.53,0.83,0.08
0.53,0.83,0.08
0.53,0.83,0.09
0.53,0.83,0.09
0.55,0.83,0.08
0.55,0.83,0.07
0.54,0.83,0.07
0.54,0.83,0.08
0.54,0.83,0.08
0.54,0.82,0.08
0.54,0.82,0.08
0.54,0.82,0.08
0.54,0.82,0.08
0.55,0.82,0.08
0.54,0.82,0.09
0.54,0.82,0.08
0.54,0.83,0.07
0.54,0.83,0.07
0.54,0.83,0.07
0.55,0.83,0.08
0.55,0.83,0.08
0.55,0.83,0.08
0.55,0.82,0.08
0.55,0.82,0.08
0.55,0.82,0.08
0.55,0.82,0.08
0.54,0.83,0.07
0.54,0.83,0.07
0.54,0.83,0.06
0.54,0.83,0.06
0.54,0.83,0.07
0.54,0.83,0.08
0.55,0.83,0.08
0.54,0.82,0.09
0.54,0.82,0.09
0.54,0.82,0.08
0.54,0.82,0.08
0.54,0.82,0.07
0.54,0.83,0.07
0.54,0.82,0.07
0.54,0.82,0.07
0.54,0.82,0.07
0.54,0.82,0.08
0.54,0.82,0.08
0.54,0.82,0.08
0.54,0.82,0.08
0.54,0.82,0.07
0.54,0.82,0.07
0.55,0.83,0.07
0.55,0.82,0.07
0.55,0.82,0.09
0.57,0.81,0.13
0.6,0.8,0.17
0.62,0.8,0.2
0.65,0.8,0.23
0.64,0.79,0.27
0.59,0.8,0.27
0.59,0.78,0.24
0.67,0.76,0.24
0.73,0.74,0.27
0.74,0.73,0.35
0.75,0.72,0.4
0.78,0.73,0.38
0.78,0.74,0.35
0.74,0.74,0.33
0.68,0.75,0.28
0.63,0.75,0.22
0.6,0.76,0.17
0.56,0.76,0.12
0.54,0.77,0.02
0.5,0.78,-0.04
0.48,0.79,-0.1
0.47,0.8,-0.15
0.46,0.8,-0.2
0.45,0.81,-0.25
0.44,0.81,-0.29
0.41,0.83,-0.31
0.39,0.85,-0.35
0.37,0.88,-0.39
0.35,0.89,-0.42
0.32,0.9,-0.44
0.3,0.92,-0.45
0.3,0.93,-0.46
0.3,0.94,-0.46
0.29,0.94,-0.47
0.28,0.95,-0.48
0.28,0.96,-0.48
0.28,0.95,-0.47
0.27,0.95,-0.45
0.27,0.95,-0.42
0.27,0.95,-0.4
0.27,0.95,-0.39
0.28,0.95,-0.37
0.29,0.94,-0.35
0.3,0.93,-0.33
0.3,0.93,-0.31
0.31,0.91,-0.31
0.32,0.9,-0.31
0.33,0.89,-0.31
0.35,0.88,-0.31
0.37,0.86,-0.32
0.38,0.85,-0.31
0.41,0.84,-0.29
0.43,0.83,-0.27
0.45,0.83,-0.27
0.45,0.84,-0.26
0.46,0.83,-0.24
0.49,0.83,-0.24
0.49,0.84,-0.23
0.5,0.83,-0.21
0.53,0.81,-0.19
0.53,0.79,-0.15
0.54,0.77,-0.11
0.56,0.76,-0.06
0.58,0.74,0
0.59,0.73,0.06
2.22,-0.92,1.99
2.7,-1.17,2.7
1.06,0.67,0.84
0.1,1.29,0.15
-0.28,1.19,0.11
0.11,0.83,-0.14
0.62,0.83,-0.15
0.77,0.82,-0.02
0.76,0.78,0.14
0.68,0.8,0.16
0.57,0.87,0.13
0.45,0.86,0.14
0.38,0.83,0.17
0.37,0.79,0.19
0.44,0.78,0.18
0.51,0.79,0.17
0.57,0.79,0.16
0.6,0.79,0.13
0.6,0.79,0.11
0.58,0.8,0.11
0.55,0.81,0.1
0.53,0.81,0.11
0.52,0.82,0.12
0.52,0.83,0.13
0.52,0.83,0.14
0.54,0.83,0.15
0.55,0.83,0.16
0.55,0.83,0.16
0.56,0.83,0.16
0.56,0.82,0.15
0.56,0.82,0.14
0.57,0.81,0.12
0.55,0.8,0.13
0.55,0.8,0.13
0.55,0.8,0.13
0.55,0.81,0.13
0.54,0.81,0.13
0.54,0.82,0.13
0.54,0.82,0.12
0.55,0.82,0.12
0.54,0.81,0.12
0.55,0.81,0.12
0.54,0.81,0.13
0.54,0.82,0.13
0.55,0.82,0.13
0.56,0.82,0.13
0.56,0.82,0.13
0.55,0.83,0.13
0.55,0.83,0.13
0.55,0.82,0.13
0.55,0.82,0.13
0.55,0.82,0.13
0.54,0.82,0.13
0.54,0.82,0.13
0.54,0.82,0.12
0.55,0.82,0.12
0.55,0.81,0.12
0.55,0.81,0.13
0.54,0.81,0.13
0.54,0.81,0.13
0.54,0.81,0.13
0.54,0.81,0.13
0.54,0.81,0.13
0.55,0.81,0.13
0.55,0.81,0.12
0.55,0.81,0.13
0.55,0.81,0.13
0.55,0.81,0.13
0.55,0.81,0.13
0.55,0.82,0.13
0.55,0.82,0.13
0.55,0.82,0.13
0.55,0.82,0.13
0.56,0.82,0.13
0.55,0.82,0.13
0.55,0.81,0.13
0.54,0.81,0.13
0.54,0.81,0.13
0.55,0.81,0.13
0.55,0.81,0.13
0.55,0.81,0.13
0.55,0.82,0.13
0.55,0.81,0.12
0.55,0.81,0.12
0.54,0.82,0.13
0.56,0.82,0.12
0.55,0.81,0.12
0.55,0.81,0.13
0.55,0.81,0.13
0.55,0.81,0.13
0.55,0.81,0.13
0.55,0.81,0.13
0.55,0.82,0.13
0.55,0.82,0.12
0.56,0.82,0.11
0.55,0.82,0.12
0.55,0.82,0.12
0.55,0.81,0.12
0.56,0.81,0.13
0.56,0.81,0.13
0.56,0.81,0.13
0.55,0.82,0.13
0.56,0.82,0.12
0.56,0.81,0.12
0.55,0.81,0.12
0.55,0.81,0.13
0.55,0.81,0.12
0.55,0.81,0.12
0.55,0.81,0.12
0.55,0.81,0.12
0.55,0.81,0.12
0.55,0.81,0.13
0.55,0.81,0.13
0.56,0.81,0.13
0.56,0.82,0.13
0.56,0.82,0.13
0.56,0.82,0.12
0.56,0.82,0.12
0.56,0.82,0.12
0.56,0.82,0.12
0.55,0.81,0.12
0.55,0.81,0.12
0.55,0.81,0.12
0.55,0.81,0.12
0.55,0.81,0.12
0.55,0.81,0.12
0.55,0.81,0.13
0.55,0.81,0.13
0.56,0.81,0.13
0.56,0.81,0.14
0.56,0.8,0.16
0.57,0.8,0.18
0.59,0.79,0.22
0.62,0.78,0.26
0.64,0.77,0.29
0.63,0.77,0.3
0.63,0.77,0.25
0.62,0.76,0.24
0.63,0.75,0.24
0.67,0.76,0.24
0.67,0.78,0.24
0.66,0.77,0.23
0.65,0.77,0.22
0.62,0.78,0.21
0.58,0.78,0.18
0.56,0.78,0.15
0.54,0.78,0.14
0.53,0.78,0.12
0.53,0.79,0.11
0.52,0.79,0.1
0.51,0.8,0.08
0.51,0.81,0.05
0.5,0.81,0.04
0.5,0.81,0.02
0.49,0.83,0
0.48,0.84,-0.03
0.47,0.85,-0.06
0.47,0.87,-0.09
0.46,0.88,-0.12
0.45,0.88,-0.14
0.45,0.88,-0.15
0.45,0.88,-0.15
0.44,0.88,-0.2
0.42,0.9,-0.22
0.41,0.91,-0.24
0.4,0.91,-0.25
0.39,0.91,-0.26
0.38,0.92,-0.27
0.37,0.93,-0.27
0.37,0.93,-0.27
0.37,0.92,-0.26
0.38,0.92,-0.25
0.38,0.92,-0.25
0.38,0.92,-0.25
0.38,0.92,-0.26
0.38,0.91,-0.26
0.38,0.91,-0.25
0.38,0.91,-0.24
0.38,0.91,-0.24
0.39,0.9,-0.24
0.4,0.89,-0.23
0.41,0.9,-0.23
0.42,0.89,-0.23
0.43,0.88,-0.23
0.44,0.88,-0.24
0.44,0.89,-0.27
0.45,0.89,-0.29
0.47,0.86,-0.27
0.52,0.84,-0.17
0.55,0.78,-0.11
0.56,0.77,-0.06
0.58,0.73,-0.35
1.87,-0.49,0.74
2.48,-0.67,2.99
1.02,0.46,1.93
0.09,0.95,-0.05
-0.06,1.19,-0.08
0.34,1,-0.17
0.71,0.88,-0.28
0.79,0.89,-0.21
0.91,0.89,-0.09
0.78,0.84,0.11
0.52,0.85,0.27
0.46,0.84,0.3
0.47,0.8,0.28
0.42,0.78,0.27
0.41,0.74,0.24
0.48,0.74,0.2
0.56,0.75,0.16
0.6,0.77,0.15
0.61,0.77,0.14
0.61,0.77,0.12
0.59,0.77,0.11
0.57,0.77,0.12
0.56,0.78,0.12
0.57,0.8,0.14
0.57,0.81,0.15
0.57,0.82,0.16
0.57,0.82,0.17
0.58,0.81,0.17
0.59,0.81,0.17
0.59,0.81,0.16
0.59,0.81,0.15
0.59,0.81,0.13
0.59,0.81,0.12
0.58,0.81,0.12
0.57,0.81,0.12
0.57,0.8,0.12
0.57,0.8,0.13
0.57,0.8,0.13
0.57,0.8,0.13
0.57,0.8,0.14
0.57,0.8,0.14
0.57,0.8,0.14
0.57,0.8,0.14
0.56,0.8,0.14
0.56,0.81,0.15
0.56,0.8,0.15
0.56,0.8,0.15
0.56,0.8,0.15
0.56,0.8,0.15
0.57,0.8,0.14
0.56,0.8,0.14
0.56,0.8,0.14
0.57,0.8,0.14
0.57,0.8,0.13
0.56,0.8,0.13
0.56,0.8,0.14
0.56,0.79,0.14
0.56,0.79,0.14
0.56,0.79,0.14
0.57,0.79,0.13
0.57,0.79,0.14
0.57,0.8,0.14
0.57,0.8,0.13
0.58,0.8,0.14
0.58,0.8,0.14
0.57,0.8,0.15
0.57,0.8,0.15
0.58,0.81,0.14
0.58,0.81,0.13
0.57,0.81,0.13
0.57,0.81,0.13
0.57,0.8,0.13
0.57,0.8,0.13
0.57,0.8,0.13
0.57,0.8,0.14
0.57,0.8,0.13
0.58,0.79,0.14
0.57,0.79,0.14
0.57,0.79,0.14
0.57,0.79,0.15
0.57,0.79,0.15
0.56,0.79,0.15
0.56,0.79,0.14
0.56,0.79,0.14
0.57,0.8,0.13
0.57,0.8,0.14
0.56,0.8,0.14
0.57,0.8,0.14
0.57,0.8,0.14
0.58,0.8,0.14
0.58,0.8,0.14
0.58,0.8,0.14
0.58,0.8,0.14
0.58,0.8,0.14
0.59,0.8,0.13
0.59,0.8,0.14
0.58,0.8,0.14
0.58,0.8,0.14
0.57,0.8,0.13
0.57,0.8,0.13
0.57,0.8,0.14
0.56,0.81,0.13
0.57,0.8,0.13
0.57,0.8,0.14
0.57,0.8,0.14
0.57,0.8,0.14
0.57,0.8,0.14
0.57,0.8,0.14
0.57,0.81,0.15
0.57,0.81,0.14
0.57,0.81,0.14
0.57,0.81,0.14
0.56,0.82,0.14
0.57,0.82,0.13
0.57,0.82,0.12
0.56,0.83,0.12
0.57,0.82,0.12
0.57,0.82,0.12
0.57,0.82,0.13
0.58,0.82,0.13
0.58,0.82,0.13
0.58,0.82,0.12
0.58,0.81,0.12
0.59,0.81,0.12
0.59,0.8,0.12
0.59,0.8,0.12
0.59,0.8,0.12
0.59,0.8,0.12
0.59,0.8,0.12
0.59,0.81,0.12
0.59,0.81,0.13
0.6,0.82,0.13
0.6,0.82,0.14
0.6,0.82,0.15
0.6,0.82,0.14
0.6,0.82,0.13
0.59,0.81,0.12
0.58,0.8,0.11
0.57,0.8,0.11
0.56,0.79,0.1
0.55,0.78,0.1
0.54,0.78,0.11
0.54,0.78,0.12
0.54,0.78,0.12
0.54,0.78,0.13
0.54,0.79,0.13
0.53,0.8,0.13
0.53,0.8,0.14
0.52,0.8,0.14
0.52,0.81,0.14
0.51,0.81,0.14
0.51,0.82,0.14
0.5,0.83,0.15
0.5,0.83,0.15
0.5,0.84,0.14
0.5,0.85,0.14
0.5,0.85,0.13
0.5,0.85,0.12
0.5,0.84,0.11
0.5,0.83,0.11
0.5,0.83,0.11
0.5,0.83,0.11
0.51,0.82,0.11
0.51,0.83,0.11
0.5,0.82,0.11
0.5,0.83,0.11
0.5,0.83,0.11
0.5,0.83,0.11
0.5,0.83,0.11
0.5,0.83,0.12
0.5,0.83,0.11
0.5,0.83,0.11
0.51,0.82,0.11
0.5,0.82,0.11
0.5,0.82,0.11
0.5,0.81,0.1
0.5,0.81,0.1
0.5,0.81,0.1
0.5,0.8,0.1
0.5,0.8,0.11
0.5,0.8,0.11
0.48,0.8,0.11
0.48,0.8,0.11
0.47,0.81,0.11
0.48,0.82,0.12
0.49,0.82,0.12
0.5,0.83,0.13
0.51,0.84,0.14
0.51,0.86,0.14
0.52,0.87,0.15
0.53,0.87,0.16
0.53,0.88,0.16
0.54,0.89,0.15
0.55,0.9,0.15
0.56,0.9,0.15
0.57,0.89,0.15
0.58,0.89,0.14
0.59,0.88,0.14
0.58,0.88,0.13
0.57,0.87,0.12
0.57,0.86,0.11
0.57,0.85,0.1
0.56,0.83,0.1
0.54,0.83,0.1
0.52,0.83,0.1
0.49,0.82,0.1
0.47,0.82,0.11
0.43,0.82,0.11
0.43,0.83,0.12
0.43,0.84,0.12
0.43,0.85,0.12
0.43,0.86,0.12
0.42,0.87,0.12
0.41,0.87,0.12
0.4,0.87,0.12
0.4,0.86,0.13
0.4,0.86,0.15
0.41,0.85,0.17
0.43,0.85,0.2
0.44,0.85,0.22
0.44,0.85,0.22
0.44,0.85,0.21
0.44,0.85,0.19
0.43,0.85,0.19
0.43,0.84,0.2
0.44,0.83,0.21
0.45,0.83,0.21
0.47,0.81,0.22
0.49,0.81,0.25
0.51,0.81,0.25
0.51,0.82,0.23
0.52,0.83,0.21
0.53,0.84,0.16
0.48,0.85,0.15
0.49,0.84,0.14
0.49,0.83,0.13
0.49,0.82,0.14
0.48,0.8,0.15
0.47,0.79,0.14
0.46,0.78,0.12
0.45,0.79,0.1
0.43,0.8,0.06
0.43,0.83,0.03
0.42,0.86,0.01
0.42,0.88,-0.01
0.43,0.9,-0.02
0.45,0.9,0
0.48,0.91,0.02
0.52,0.91,0.02
0.51,0.93,0
0.48,0.95,-0.02
0.47,0.98,-0.05
0.48,0.99,-0.08
0.48,1,-0.1
0.48,1,-0.11
0.48,0.99,-0.1
0.49,0.97,-0.1
0.48,0.96,-0.11
0.47,0.95,-0.13
0.46,0.93,-0.15
0.45,0.92,-0.16
0.44,0.92,-0.16
0.43,0.92,-0.16
0.43,0.92,-0.16
0.43,0.92,-0.15
0.43,0.92,-0.14
0.43,0.91,-0.15
0.42,0.92,-0.15
0.41,0.92,-0.16
0.4,0.91,-0.16
0.39,0.91,-0.16
0.38,0.9,-0.16
0.37,0.9,-0.17
0.37,0.91,-0.19
0.37,0.92,-0.23
0.36,0.93,-0.27
0.35,0.93,-0.32
0.37,0.9,-0.33
0.41,0.87,-0.3
0.43,0.84,-0.24
0.44,0.82,-0.18
0.44,0.81,-0.11
0.44,0.78,-0.06
0.45,0.74,0.03
0.59,0.69,1.77
2.36,-1.4,2.92
0.3,0.37,1.08
-0.12,1.08,0.11
0.26,1.06,-0.18
0.45,0.95,-0.28
0.56,0.87,-0.23
0.75,0.82,-0.11
0.81,0.79,0.02
0.74,0.81,0.11
0.55,0.85,0.21
0.41,0.82,0.3
0.39,0.79,0.32
0.42,0.78,0.31
0.45,0.79,0.29
0.49,0.82,0.25
0.54,0.85,0.21
0.57,0.85,0.18
0.57,0.84,0.17
0.57,0.83,0.18
0.56,0.82,0.18
0.55,0.82,0.18
0.54,0.82,0.17
0.53,0.82,0.16
0.54,0.82,0.16
0.55,0.83,0.14
0.56,0.83,0.15
0.56,0.82,0.15
0.56,0.82,0.16
0.56,0.82,0.16
0.55,0.81,0.17
0.55,0.81,0.17
0.56,0.81,0.17
0.56,0.81,0.17
0.56,0.81,0.16
0.56,0.81,0.16
0.55,0.81,0.16
0.55,0.8,0.17
0.55,0.8,0.17
0.54,0.8,0.17
0.54,0.8,0.17
0.54,0.81,0.17
0.54,0.81,0.17
0.54,0.81,0.16
0.54,0.81,0.16
0.55,0.81,0.16
0.55,0.81,0.16
0.55,0.82,0.16
0.55,0.82,0.16
0.56,0.82,0.15
0.56,0.82,0.15
0.56,0.83,0.14
0.56,0.83,0.14
0.56,0.82,0.15
0.58,0.81,0.15
0.57,0.81,0.16
0.57,0.81,0.16
0.57,0.8,0.16
0.57,0.8,0.16
0.57,0.8,0.15
0.56,0.81,0.14
0.56,0.81,0.14
0.55,0.81,0.15
0.55,0.81,0.14
0.55,0.81,0.14
0.54,0.81,0.15
0.53,0.81,0.15
0.53,0.81,0.16
0.54,0.82,0.15
0.54,0.82,0.15
0.54,0.82,0.15
0.54,0.82,0.15
0.54,0.82,0.15
0.54,0.82,0.15
0.54,0.82,0.15
0.54,0.82,0.15
0.54,0.82,0.15
0.54,0.82,0.15
0.54,0.82,0.15
0.53,0.82,0.15
0.54,0.82,0.15
0.54,0.82,0.15
0.54,0.82,0.15
0.53,0.81,0.15
0.54,0.82,0.14
0.54,0.82,0.14
0.54,0.82,0.14
0.55,0.81,0.14
0.55,0.81,0.15
0.55,0.8,0.15
0.55,0.81,0.14
0.55,0.81,0.14
0.56,0.81,0.13
0.57,0.81,0.13
0.56,0.81,0.13
0.56,0.81,0.14
0.56,0.81,0.15
0.55,0.81,0.15
0.56,0.81,0.15
0.56,0.82,0.15
0.56,0.81,0.15
0.56,0.81,0.15
0.56,0.81,0.16
0.56,0.81,0.16
0.56,0.81,0.16
0.56,0.8,0.17
0.57,0.8,0.17
0.57,0.8,0.16
0.57,0.8,0.16
0.56,0.79,0.16
0.56,0.8,0.16
0.56,0.8,0.16
0.57,0.79,0.16
0.56,0.79,0.16
0.57,0.8,0.15
0.56,0.8,0.15
0.56,0.8,0.15
0.55,0.8,0.15
0.55,0.8,0.15
0.55,0.8,0.14
0.55,0.8,0.14
0.55,0.81,0.14
0.55,0.81,0.14
0.55,0.81,0.14
0.55,0.82,0.14
0.55,0.82,0.14
0.54,0.82,0.13
0.54,0.83,0.13
0.55,0.82,0.15
0.57,0.81,0.18
0.57,0.8,0.21
0.58,0.79,0.24
0.6,0.78,0.24
0.6,0.77,0.23
0.6,0.77,0.2
0.59,0.78,0.19
0.56,0.76,0.22
0.6,0.74,0.23
0.63,0.74,0.22
0.61,0.74,0.23
0.6,0.74,0.24
0.59,0.74,0.25
0.59,0.74,0.24
0.59,0.75,0.22
0.59,0.76,0.19
0.58,0.78,0.16
0.57,0.79,0.14
0.56,0.8,0.12
0.56,0.82,0.1
0.56,0.84,0.08
0.56,0.85,0.05
0.55,0.87,0.02
0.54,0.88,0
0.51,0.89,-0.02
0.48,0.89,-0.05
0.49,0.89,-0.08
0.47,0.9,-0.1
0.45,0.91,-0.13
0.43,0.92,-0.14
0.42,0.92,-0.15
0.42,0.93,-0.15
0.4,0.93,-0.16
0.39,0.92,-0.16
0.38,0.92,-0.17
0.38,0.92,-0.17
0.37,0.91,-0.17
0.36,0.92,-0.18
0.35,0.92,-0.19
0.35,0.92,-0.19
0.34,0.92,-0.18
0.34,0.91,-0.18
0.34,0.91,-0.17
0.35,0.91,-0.17
0.36,0.91,-0.17
0.36,0.91,-0.17
0.36,0.9,-0.17
0.37,0.9,-0.17
0.37,0.89,-0.16
0.37,0.88,-0.15
0.38,0.88,-0.15
0.4,0.88,-0.15
0.42,0.9,-0.16
0.44,0.92,-0.18
0.46,0.93,-0.17
0.48,0.91,-0.13
0.51,0.89,-0.11
0.51,0.87,-0.06
0.48,0.83,-0.02
0.46,0.8,0.01
0.46,0.78,0.05
0.6,0.71,0.16
2.06,-0.94,2.11
2,-1.23,3.08
0.52,0.42,0.93
0.52,1.19,-0.49
0.59,1.31,-0.66
0.48,0.95,-0.49
0.48,0.83,-0.18
0.71,0.77,0.08
0.86,0.77,0.23
0.74,0.83,0.26
0.56,0.86,0.24
0.51,0.83,0.2
0.48,0.82,0.16
0.45,0.82,0.15
0.46,0.81,0.17
0.51,0.8,0.18
0.57,0.8,0.17
0.61,0.79,0.16
0.61,0.78,0.17
0.6,0.77,0.16
0.56,0.77,0.16
0.56,0.78,0.15
0.55,0.78,0.15
0.56,0.79,0.15
0.56,0.79,0.15
0.57,0.79,0.15
0.58,0.8,0.15
0.59,0.8,0.15
0.59,0.81,0.15
0.58,0.81,0.14
0.59,0.81,0.14
0.59,0.81,0.13
0.59,0.81,0.12
0.59,0.81,0.12
0.59,0.81,0.13
0.58,0.8,0.14
0.58,0.8,0.13
0.59,0.79,0.13
0.58,0.79,0.14
0.58,0.79,0.14
0.57,0.79,0.14
0.57,0.79,0.14
0.57,0.79,0.14
0.58,0.79,0.14
0.57,0.79,0.14
0.57,0.79,0.14
0.58,0.79,0.14
0.59,0.79,0.14
0.59,0.79,0.14
0.58,0.79,0.14
0.57,0.79,0.14
0.58,0.79,0.14
0.59,0.79,0.13
0.58,0.8,0.14
0.56,0.8,0.14
0.57,0.79,0.14
0.58,0.8,0.14
0.59,0.8,0.13
0.58,0.8,0.14
0.57,0.8,0.14
0.57,0.79,0.14
0.58,0.79,0.14
0.58,0.79,0.14
0.58,0.79,0.14
0.58,0.79,0.14
0.58,0.79,0.15
0.58,0.79,0.14
0.58,0.79,0.14
0.58,0.79,0.14
0.58,0.79,0.14
0.58,0.79,0.13
0.59,0.79,0.14
0.58,0.8,0.14
0.57,0.8,0.14
0.58,0.79,0.15
0.59,0.79,0.15
0.59,0.79,0.15
0.58,0.79,0.15
0.57,0.79,0.14
0.58,0.79,0.14
0.59,0.79,0.14
0.58,0.79,0.14
0.57,0.79,0.14
0.57,0.79,0.13
0.58,0.8,0.12
0.57,0.8,0.13
0.57,0.79,0.14
0.57,0.79,0.15
0.57,0.79,0.15
0.57,0.79,0.16
0.58,0.79,0.15
0.58,0.78,0.15
0.59,0.79,0.14
0.59,0.79,0.13
0.59,0.79,0.13
0.58,0.79,0.13
0.57,0.79,0.13
0.57,0.79,0.13
0.57,0.79,0.14
0.57,0.78,0.14
0.57,0.79,0.14
0.58,0.8,0.14
0.58,0.79,0.13
0.58,0.79,0.13
0.57,0.79,0.14
0.57,0.79,0.14
0.58,0.78,0.14
0.57,0.78,0.14
0.57,0.79,0.14
0.58,0.79,0.14
0.58,0.79,0.14
0.58,0.79,0.14
0.58,0.8,0.14
0.58,0.8,0.14
0.58,0.8,0.14
0.58,0.8,0.14
0.58,0.8,0.14
0.57,0.79,0.14
0.57,0.79,0.14
0.58,0.79,0.14
0.59,0.79,0.13
0.59,0.79,0.13
0.59,0.79,0.13
0.58,0.79,0.14
0.58,0.79,0.15
0.59,0.78,0.16
0.59,0.78,0.17
0.6,0.77,0.19
0.6,0.76,0.2
0.62,0.76,0.22
0.64,0.76,0.24
0.65,0.76,0.23
0.65,0.75,0.23
0.64,0.75,0.23
0.67,0.75,0.24
0.71,0.75,0.25
0.71,0.75,0.25
0.68,0.75,0.26
0.67,0.75,0.24
0.65,0.75,0.22
0.64,0.76,0.2
0.62,0.76,0.19
0.6,0.77,0.16
0.59,0.79,0.14
0.57,0.8,0.11
0.56,0.81,0.09
0.54,0.81,0.07
0.52,0.82,0.04
0.5,0.83,0.02
0.48,0.84,0
0.47,0.86,-0.04
0.44,0.87,-0.06
0.43,0.87,-0.08
0.42,0.88,-0.11
0.42,0.88,-0.12
0.43,0.88,-0.13
0.43,0.88,-0.14
0.43,0.88,-0.14
0.43,0.88,-0.14
0.44,0.88,-0.15
0.44,0.88,-0.16
0.44,0.88,-0.16
0.44,0.88,-0.16
0.44,0.88,-0.16
0.44,0.88,-0.16
0.45,0.88,-0.16
0.45,0.88,-0.16
0.46,0.89,-0.16
0.46,0.89,-0.17
0.46,0.89,-0.16
0.47,0.89,-0.15
0.47,0.88,-0.14
0.47,0.88,-0.14
0.48,0.88,-0.14
0.47,0.89,-0.16
0.46,0.89,-0.18
0.46,0.88,-0.19
0.45,0.88,-0.2
0.45,0.88,-0.2
0.46,0.87,-0.2
0.46,0.88,-0.22
0.45,0.89,-0.23
0.45,0.89,-0.23
0.47,0.88,-0.21
0.5,0.87,-0.17
0.51,0.84,-0.11
0.52,0.81,-0.04
0.54,0.78,0.04
0.63,0.63,0.03
1.51,-0.52,1.97
1.72,-0.75,2.55
0.63,0.58,0.54
0.18,1.05,-0.07
0.33,0.94,-0.09
0.46,0.89,-0.09
0.66,0.88,-0.16
0.88,0.88,-0.2
0.83,0.86,-0.1
0.61,0.85,0.03
0.52,0.85,0.14
0.55,0.81,0.18
0.57,0.77,0.2
0.55,0.79,0.17
0.59,0.81,0.13
0.61,0.81,0.12
0.61,0.8,0.12
0.61,0.78,0.13
0.6,0.77,0.15
0.58,0.75,0.16
0.57,0.75,0.16
0.56,0.76,0.16
0.56,0.77,0.15
0.56,0.78,0.15
0.57,0.79,0.15
0.57,0.8,0.16
0.58,0.8,0.16
0.59,0.8,0.16
0.6,0.8,0.16
0.61,0.8,0.14
0.61,0.8,0.13
0.62,0.8,0.13
0.61,0.8,0.13
0.6,0.8,0.12
0.6,0.8,0.12
0.59,0.79,0.12
0.59,0.79,0.12
0.59,0.8,0.12
0.6,0.8,0.11
0.61,0.8,0.11
0.61,0.8,0.12
0.61,0.79,0.13
0.6,0.79,0.13
0.6,0.79,0.13
0.6,0.79,0.13
0.6,0.78,0.13
0.59,0.78,0.14
0.58,0.78,0.14
0.58,0.78,0.14
0.58,0.78,0.14
0.58,0.78,0.13
0.57,0.78,0.12
0.58,0.78,0.12
0.58,0.78,0.12
0.58,0.78,0.13
0.58,0.78,0.14
0.58,0.78,0.14
0.58,0.78,0.14
0.59,0.78,0.13
0.58,0.78,0.13
0.58,0.77,0.13
0.58,0.77,0.14
0.58,0.76,0.14
0.58,0.76,0.14
0.57,0.76,0.12
0.57,0.77,0.12
0.58,0.78,0.12
0.58,0.78,0.14
0.59,0.79,0.15
0.6,0.8,0.15
0.6,0.8,0.15
0.6,0.81,0.14
0.59,0.81,0.14
0.58,0.81,0.14
0.58,0.82,0.14
0.58,0.82,0.14
0.58,0.81,0.14
0.59,0.8,0.14
0.58,0.79,0.13
0.58,0.78,0.13
0.58,0.77,0.14
0.59,0.77,0.14
0.59,0.76,0.14
0.58,0.76,0.14
0.58,0.76,0.14
0.58,0.77,0.14
0.58,0.77,0.15
0.58,0.77,0.16
0.58,0.78,0.16
0.59,0.78,0.16
0.58,0.78,0.16
0.58,0.79,0.14
0.59,0.79,0.14
0.6,0.79,0.13
0.6,0.79,0.13
0.6,0.79,0.13
0.6,0.8,0.14
0.59,0.8,0.14
0.59,0.8,0.14
0.58,0.8,0.15
0.58,0.8,0.15
0.6,0.8,0.14
0.59,0.81,0.14
0.59,0.81,0.14
0.6,0.81,0.14
0.59,0.81,0.14
0.59,0.81,0.13
0.59,0.81,0.13
0.59,0.81,0.14
0.59,0.8,0.13
0.59,0.8,0.12
0.59,0.79,0.12
0.59,0.79,0.12
0.59,0.78,0.12
0.59,0.78,0.12
0.59,0.78,0.12
0.59,0.78,0.12
0.59,0.77,0.12
0.58,0.77,0.13
0.56,0.77,0.13
0.56,0.77,0.13
0.56,0.78,0.13
0.56,0.78,0.13
0.56,0.79,0.13
0.57,0.79,0.14
0.57,0.8,0.14
0.57,0.8,0.14
0.57,0.8,0.14
0.57,0.81,0.15
0.57,0.82,0.14
0.57,0.82,0.14
0.57,0.83,0.14
0.58,0.83,0.14
0.57,0.82,0.13
0.57,0.81,0.13
0.58,0.8,0.14
0.59,0.79,0.16
0.6,0.78,0.19
0.6,0.77,0.2
0.6,0.77,0.21
0.61,0.77,0.2
0.62,0.77,0.21
0.64,0.76,0.23
0.65,0.77,0.23
0.66,0.74,0.23
0.61,0.73,0.27
0.7,0.73,0.25
0.71,0.73,0.24
0.65,0.74,0.25
0.61,0.74,0.25
0.6,0.75,0.24
0.6,0.76,0.23
0.59,0.77,0.21
0.57,0.79,0.18
0.56,0.81,0.14
0.54,0.82,0.12
0.53,0.82,0.11
0.53,0.82,0.09
0.51,0.82,0.08
0.5,0.82,0.06
0.48,0.82,0.04
0.47,0.83,0.01
0.47,0.85,-0.01
0.45,0.85,-0.04
0.44,0.86,-0.05
0.44,0.86,-0.05
0.45,0.87,-0.06
0.45,0.87,-0.06
0.45,0.88,-0.07
0.44,0.88,-0.07
0.44,0.89,-0.09
0.44,0.9,-0.1
0.44,0.9,-0.11
0.44,0.9,-0.12
0.43,0.9,-0.12
0.42,0.91,-0.13
0.42,0.91,-0.14
0.42,0.92,-0.15
0.42,0.92,-0.15
0.42,0.92,-0.16
0.41,0.91,-0.18
0.4,0.91,-0.19
0.4,0.91,-0.19
0.4,0.91,-0.2
0.4,0.92,-0.21
0.4,0.92,-0.21
0.4,0.92,-0.22
0.4,0.92,-0.24
0.38,0.93,-0.25
0.38,0.93,-0.26
0.38,0.93,-0.28
0.36,0.93,-0.3
0.36,0.93,-0.32
0.36,0.92,-0.33
0.37,0.92,-0.34
0.36,0.9,-0.33
0.37,0.89,-0.33
0.38,0.87,-0.3
0.39,0.86,-0.27
0.41,0.84,-0.21
0.44,0.8,-0.14
0.48,0.76,-0.06
0.54,0.73,0.01
1.19,0.42,0.15
2.16,0.39,2.11
1.03,0.18,2.08
-0.08,0.52,-0.02
0.43,1.33,-0.37
0.58,1.18,-0.41
0.52,0.97,-0.23
0.59,0.84,-0.11
0.85,0.8,-0.04
0.79,0.83,0.09
0.48,0.86,0.27
0.42,0.82,0.34
0.5,0.78,0.29
0.49,0.79,0.24
0.5,0.78,0.2
0.57,0.8,0.15
0.62,0.81,0.13
0.62,0.81,0.13
0.61,0.78,0.16
0.59,0.77,0.18
0.55,0.77,0.17
0.54,0.78,0.15
0.54,0.79,0.14
0.55,0.8,0.14
0.56,0.8,0.16
0.56,0.8,0.17
0.57,0.8,0.18
0.57,0.8,0.19
0.57,0.8,0.19
0.57,0.8,0.18
0.57,0.81,0.17
0.58,0.81,0.16
0.59,0.81,0.15
0.59,0.81,0.15
0.58,0.8,0.15
0.57,0.8,0.15
0.57,0.79,0.15
0.57,0.79,0.16
0.57,0.78,0.16
0.57,0.78,0.16
0.58,0.78,0.16
0.59,0.78,0.16
0.58,0.79,0.16
0.57,0.8,0.16
0.57,0.8,0.17
0.57,0.8,0.16
0.57,0.8,0.16
0.56,0.8,0.16
0.56,0.8,0.16
0.56,0.79,0.16
0.56,0.79,0.16
0.56,0.79,0.16
0.56,0.79,0.16
0.57,0.79,0.17
0.58,0.79,0.17
0.58,0.79,0.16
0.57,0.8,0.16
0.58,0.8,0.16
0.58,0.81,0.15
0.59,0.8,0.15
0.59,0.8,0.16
0.58,0.8,0.16
0.58,0.79,0.16
0.57,0.79,0.16
0.57,0.79,0.16
0.57,0.79,0.16
0.57,0.79,0.16
0.57,0.79,0.16
0.57,0.79,0.17
0.56,0.78,0.17
0.56,0.78,0.17
0.57,0.78,0.17
0.57,0.79,0.16
0.56,0.79,0.17
0.56,0.79,0.17
0.57,0.79,0.17
0.57,0.79,0.17
0.57,0.79,0.17
0.58,0.78,0.17
0.58,0.78,0.17
0.58,0.78,0.16
0.58,0.78,0.16
0.58,0.78,0.16
0.58,0.79,0.16
0.58,0.79,0.16
0.58,0.79,0.17
0.58,0.8,0.17
0.58,0.8,0.18
0.59,0.8,0.18
0.59,0.8,0.17
0.59,0.8,0.16
0.59,0.8,0.16
0.58,0.8,0.15
0.57,0.8,0.15
0.57,0.79,0.15
0.57,0.79,0.15
0.56,0.79,0.15
0.56,0.79,0.16
0.57,0.79,0.17
0.57,0.79,0.17
0.57,0.79,0.17
0.57,0.79,0.17
0.58,0.78,0.19
0.58,0.77,0.2
0.59,0.77,0.22
0.61,0.78,0.23
0.62,0.77,0.25
0.62,0.78,0.26
0.62,0.78,0.27
0.66,0.77,0.27
0.67,0.76,0.28
0.66,0.74,0.3
0.67,0.73,0.3
0.69,0.73,0.27
0.69,0.74,0.25
0.67,0.74,0.26
0.65,0.74,0.28
0.65,0.73,0.29
0.64,0.73,0.29
0.63,0.73,0.28
0.61,0.74,0.25
0.6,0.76,0.22
0.59,0.78,0.19
0.58,0.79,0.16
0.57,0.8,0.13
0.55,0.81,0.11
0.54,0.82,0.08
0.52,0.83,0.05
0.52,0.84,0.02
0.51,0.85,-0.01
0.5,0.87,-0.03
0.48,0.87,-0.05
0.46,0.87,-0.07
0.44,0.86,-0.08
0.43,0.86,-0.1
0.43,0.87,-0.12
0.42,0.88,-0.12
0.4,0.88,-0.14
0.38,0.9,-0.16
0.37,0.91,-0.18
0.36,0.92,-0.2
0.34,0.94,-0.21
0.33,0.94,-0.22
0.33,0.94,-0.23
0.3,0.94,-0.22
0.29,0.93,-0.22
0.31,0.93,-0.23
0.31,0.93,-0.23
0.3,0.93,-0.23
0.3,0.92,-0.23
0.3,0.92,-0.21
0.31,0.92,-0.2
0.31,0.92,-0.19
0.32,0.92,-0.18
0.32,0.93,-0.17
0.33,0.93,-0.16
0.35,0.93,-0.14
0.35,0.93,-0.14
0.35,0.93,-0.14
0.36,0.93,-0.15
0.37,0.91,-0.15
0.38,0.9,-0.16
0.4,0.89,-0.17
0.41,0.88,-0.18
0.42,0.88,-0.2
0.42,0.88,-0.2
0.42,0.87,-0.21
0.42,0.88,-0.22
0.43,0.87,-0.21
0.45,0.86,-0.19
0.46,0.85,-0.17
0.47,0.84,-0.15
0.48,0.82,-0.1
0.5,0.81,-0.05
0.53,0.79,0.01
0.61,0.77,-0.04
0.75,0.82,1.9
2.33,-1.6,3.22
0.48,0.31,1.28
0.17,1.03,0.03
0.25,1.19,-0.14
0.55,1.07,-0.26
0.64,0.94,-0.26
0.72,0.91,-0.24
0.75,0.86,-0.1
0.51,0.84,0.13
0.38,0.81,0.28
0.43,0.77,0.31
0.45,0.77,0.31
0.45,0.77,0.27
0.5,0.78,0.2
0.56,0.81,0.16
0.58,0.81,0.16
0.59,0.8,0.19
0.56,0.78,0.21
0.53,0.77,0.23
0.52,0.76,0.23
0.53,0.76,0.22
0.54,0.77,0.19
0.54,0.78,0.17
0.54,0.79,0.16
0.55,0.79,0.16
0.56,0.8,0.18
0.58,0.8,0.2
0.59,0.81,0.2
0.59,0.81,0.19
0.59,0.81,0.18
0.59,0.8,0.18
0.58,0.81,0.17
0.58,0.82,0.16
0.58,0.82,0.15
0.58,0.83,0.15
0.57,0.82,0.16
0.56,0.82,0.17
0.56,0.81,0.18
0.56,0.8,0.18
0.55,0.8,0.18
0.55,0.8,0.18
0.55,0.79,0.18
0.55,0.8,0.17
0.56,0.8,0.16
0.55,0.79,0.16
0.54,0.79,0.17
0.54,0.79,0.18
0.55,0.79,0.18
0.55,0.79,0.19
0.56,0.79,0.19
0.56,0.79,0.18
0.56,0.8,0.18
0.56,0.79,0.17
0.57,0.8,0.16
0.56,0.8,0.16
0.56,0.8,0.16
0.56,0.8,0.16
0.56,0.8,0.16
0.56,0.81,0.16
0.57,0.81,0.16
0.57,0.81,0.17
0.57,0.8,0.17
0.56,0.81,0.17
0.56,0.81,0.16
0.56,0.81,0.16
0.56,0.81,0.16
0.56,0.81,0.16
0.56,0.81,0.17
0.56,0.81,0.17
0.56,0.8,0.18
0.56,0.8,0.18
0.56,0.8,0.18
0.56,0.8,0.18
0.56,0.8,0.17
0.56,0.8,0.17
0.56,0.8,0.17
0.56,0.8,0.17
0.56,0.8,0.17
0.56,0.79,0.17
0.57,0.8,0.17
0.57,0.8,0.17
0.56,0.81,0.17
0.55,0.8,0.18
0.56,0.8,0.17
0.57,0.81,0.17
0.56,0.81,0.17
0.57,0.8,0.16
0.57,0.8,0.16
0.56,0.8,0.16
0.56,0.8,0.16
0.55,0.8,0.17
0.55,0.8,0.17
0.55,0.79,0.17
0.56,0.79,0.17
0.56,0.8,0.17
0.56,0.8,0.17
0.56,0.8,0.17
0.56,0.8,0.17
0.57,0.8,0.17
0.57,0.8,0.17
0.57,0.8,0.17
0.57,0.81,0.17
0.57,0.81,0.16
0.57,0.8,0.17
0.56,0.8,0.17
0.56,0.8,0.17
0.56,0.8,0.17
0.56,0.8,0.17
0.56,0.8,0.17
0.56,0.8,0.17
0.56,0.8,0.17
0.56,0.8,0.17
0.56,0.8,0.17
0.56,0.8,0.17
0.56,0.8,0.17
0.56,0.8,0.17
0.56,0.8,0.17
0.56,0.79,0.17
0.57,0.8,0.16
0.57,0.8,0.16
0.56,0.8,0.16
0.57,0.81,0.16
0.57,0.81,0.15
0.57,0.8,0.16
0.57,0.8,0.16
0.56,0.8,0.17
0.55,0.8,0.17
0.55,0.8,0.17
0.55,0.8,0.17
0.55,0.8,0.18
0.56,0.8,0.17
0.56,0.8,0.17
0.57,0.79,0.17
0.56,0.8,0.17
0.55,0.8,0.16
0.57,0.8,0.16
0.57,0.8,0.16
0.56,0.8,0.17
0.55,0.8,0.16
0.56,0.8,0.16
0.56,0.8,0.16
0.56,0.8,0.17
0.56,0.8,0.17
0.56,0.8,0.17
0.56,0.8,0.17
0.57,0.8,0.17
0.56,0.8,0.16
0.56,0.8,0.17
0.56,0.8,0.17
0.56,0.8,0.17
0.56,0.8,0.17
0.56,0.8,0.17
0.57,0.8,0.17
0.57,0.8,0.17
0.57,0.8,0.17
0.57,0.8,0.17
0.57,0.8,0.17
0.56,0.8,0.16
0.55,0.8,0.15
0.55,0.8,0.16
0.55,0.8,0.16
0.55,0.8,0.17
0.56,0.8,0.17
0.57,0.8,0.17
0.57,0.8,0.17
0.57,0.8,0.17
0.57,0.8,0.17
0.57,0.8,0.17
0.57,0.8,0.17
0.57,0.8,0.16
0.56,0.8,0.16
0.56,0.8,0.16
0.55,0.8,0.16
0.55,0.8,0.16
0.55,0.79,0.17
0.55,0.8,0.17
0.55,0.8,0.17
0.55,0.8,0.17
0.55,0.8,0.17
0.55,0.8,0.17
0.55,0.8,0.16
0.55,0.8,0.16
0.56,0.8,0.16
0.56,0.8,0.16
0.56,0.8,0.17
0.56,0.8,0.17
0.57,0.8,0.17
0.57,0.8,0.16
0.56,0.81,0.16
0.56,0.81,0.16
0.56,0.8,0.17
0.56,0.8,0.17
0.56,0.8,0.18
0.56,0.8,0.18
0.56,0.8,0.17
0.56,0.8,0.16
0.56,0.8,0.16
0.55,0.8,0.16
0.56,0.8,0.16
0.56,0.8,0.16
0.56,0.8,0.17
0.56,0.79,0.18
0.56,0.8,0.19
0.58,0.8,0.21
0.61,0.78,0.24
0.65,0.77,0.28
0.65,0.76,0.3
0.63,0.76,0.31
0.62,0.76,0.28
0.63,0.76,0.27
0.66,0.75,0.28
0.67,0.73,0.28
0.65,0.72,0.3
0.65,0.73,0.31
0.65,0.73,0.3
0.64,0.73,0.3
0.62,0.73,0.28
0.61,0.74,0.26
0.59,0.76,0.24
0.57,0.77,0.2
0.55,0.79,0.17
0.54,0.81,0.13
0.53,0.82,0.1
0.51,0.84,0.07
0.48,0.85,0.03
0.47,0.86,-0.02
0.46,0.88,-0.05
0.45,0.89,-0.08
0.43,0.91,-0.11
0.41,0.92,-0.15
0.39,0.93,-0.18
0.38,0.94,-0.22
0.37,0.95,-0.24
0.37,0.95,-0.25
0.36,0.95,-0.26
0.35,0.94,-0.26
0.34,0.94,-0.26
0.33,0.94,-0.26
0.32,0.94,-0.26
0.33,0.93,-0.25
0.33,0.92,-0.24
0.33,0.92,-0.23
0.33,0.92,-0.23
0.33,0.92,-0.24
0.33,0.91,-0.23
0.35,0.9,-0.21
0.35,0.89,-0.19
0.36,0.88,-0.18
0.37,0.88,-0.16
0.39,0.87,-0.14
0.41,0.86,-0.13
0.42,0.86,-0.11
0.43,0.86,-0.09
0.44,0.85,-0.06
0.45,0.83,-0.01
0.49,0.8,0.04
0.54,0.78,0.12
0.58,0.69,-0.32
2.08,-0.8,1.58
2.28,-1.21,3.05
0.59,0.43,1.08
0.29,1.13,-0.08
0.35,0.87,-0.08
0.69,0.83,-0.23
0.85,0.85,-0.27
0.74,0.89,-0.14
0.58,0.87,0.01
0.48,0.88,0.12
0.46,0.86,0.16
0.49,0.83,0.19
0.51,0.81,0.22
0.54,0.82,0.21
0.59,0.84,0.18
0.61,0.84,0.17
0.6,0.82,0.16
0.59,0.8,0.16
0.57,0.79,0.17
0.54,0.78,0.18
0.53,0.78,0.18
0.52,0.78,0.18
0.52,0.78,0.17
0.53,0.79,0.17
0.54,0.79,0.17
0.55,0.8,0.17
0.56,0.8,0.18
0.56,0.79,0.19
0.56,0.79,0.19
0.57,0.79,0.19
0.58,0.79,0.19
0.58,0.8,0.18
0.58,0.8,0.16
0.58,0.8,0.15
0.58,0.8,0.15
0.57,0.8,0.16
0.58,0.8,0.16
0.57,0.8,0.16
0.57,0.8,0.16
0.57,0.79,0.17
0.58,0.79,0.17
0.58,0.79,0.18
0.58,0.8,0.18
0.58,0.8,0.18
0.57,0.8,0.18
0.57,0.8,0.18
0.57,0.79,0.18
0.56,0.79,0.18
0.55,0.8,0.18
0.55,0.8,0.17
0.55,0.8,0.16
0.55,0.8,0.17
0.55,0.79,0.17
0.56,0.79,0.18
0.56,0.79,0.18
0.56,0.79,0.17
0.56,0.79,0.17
0.56,0.79,0.17
0.57,0.8,0.16
0.58,0.8,0.16
0.57,0.8,0.16
0.57,0.8,0.16
0.57,0.8,0.16
0.57,0.8,0.16
0.57,0.8,0.17
0.57,0.8,0.17
0.56,0.79,0.18
0.56,0.8,0.17
0.57,0.81,0.17
0.57,0.81,0.16
0.57,0.8,0.17
0.56,0.8,0.18
0.56,0.79,0.18
0.56,0.79,0.18
0.56,0.79,0.17
0.57,0.79,0.17
0.57,0.79,0.17
0.57,0.79,0.17
0.56,0.8,0.17
0.56,0.8,0.17
0.56,0.8,0.17
0.56,0.79,0.17
0.56,0.8,0.17
0.57,0.8,0.17
0.57,0.8,0.16
0.57,0.8,0.16
0.57,0.8,0.16
0.57,0.8,0.17
0.56,0.8,0.16
0.57,0.8,0.17
0.57,0.8,0.17
0.56,0.8,0.17
0.56,0.8,0.17
0.56,0.8,0.16
0.57,0.8,0.16
0.57,0.8,0.17
0.57,0.8,0.17
0.57,0.79,0.16
0.56,0.79,0.16
0.56,0.79,0.17
0.57,0.79,0.17
0.57,0.79,0.17
0.56,0.79,0.17
0.56,0.8,0.17
0.57,0.8,0.16
0.58,0.79,0.18
0.58,0.79,0.21
0.59,0.78,0.23
0.61,0.78,0.24
0.6,0.77,0.24
0.6,0.78,0.24
0.6,0.78,0.25
0.6,0.77,0.26
0.6,0.77,0.25
0.61,0.77,0.23
0.6,0.76,0.22
0.6,0.75,0.23
0.61,0.75,0.24
0.61,0.75,0.25
0.61,0.76,0.26
0.61,0.77,0.26
0.61,0.78,0.26
0.59,0.79,0.24
0.58,0.79,0.23
0.57,0.8,0.21
0.57,0.81,0.19
0.56,0.81,0.18
0.54,0.81,0.16
0.53,0.81,0.16
0.52,0.82,0.14
0.52,0.83,0.1
0.51,0.85,0.07
0.5,0.86,0.04
0.5,0.86,0.02
0.5,0.86,-0.01
0.48,0.86,-0.02
0.47,0.86,-0.05
0.46,0.87,-0.06
0.46,0.88,-0.07
0.46,0.88,-0.08
0.46,0.88,-0.08
0.45,0.88,-0.07
0.45,0.88,-0.07
0.45,0.89,-0.07
0.44,0.89,-0.07
0.44,0.89,-0.06
0.44,0.89,-0.06
0.44,0.89,-0.06
0.44,0.89,-0.06
0.43,0.88,-0.06
0.43,0.89,-0.07
0.43,0.89,-0.08
0.42,0.9,-0.1
0.42,0.9,-0.11
0.42,0.9,-0.11
0.42,0.9,-0.12
0.42,0.91,-0.12
0.41,0.91,-0.13
0.4,0.91,-0.15
0.4,0.91,-0.15
0.39,0.91,-0.18
0.37,0.91,-0.2
0.38,0.91,-0.22
0.37,0.92,-0.25
0.36,0.92,-0.26
0.36,0.91,-0.26
0.37,0.91,-0.28
0.38,0.91,-0.3
0.39,0.88,-0.29
0.4,0.85,-0.26
0.42,0.83,-0.22
0.45,0.81,-0.18
0.48,0.79,-0.1
0.52,0.76,-0.01
0.53,0.71,-0.62
2.03,-0.8,1.34
2.29,-1.42,3.13
0.56,0.2,1.32
0.13,1.04,0.28
0.25,1.02,0.09
0.46,0.89,-0.07
0.7,0.88,-0.14
0.83,0.9,-0.19
0.78,0.9,-0.14
0.58,0.92,0.01
0.47,0.88,0.17
0.47,0.81,0.31
0.51,0.76,0.31
0.56,0.77,0.26
0.59,0.8,0.2
0.6,0.81,0.17
0.6,0.8,0.16
0.59,0.78,0.17
0.57,0.76,0.19
0.55,0.75,0.2
0.53,0.75,0.2
0.53,0.74,0.2
0.52,0.75,0.2
0.53,0.76,0.2
0.55,0.77,0.2
0.56,0.77,0.22
0.57,0.78,0.23
0.58,0.79,0.23
0.59,0.79,0.22
0.59,0.79,0.22
0.59,0.79,0.21
0.59,0.79,0.2
0.6,0.79,0.19
0.59,0.79,0.19
0.58,0.79,0.19
0.58,0.8,0.19
0.58,0.8,0.19
0.58,0.8,0.19
0.59,0.79,0.19
0.6,0.79,0.19
0.6,0.78,0.19
0.59,0.79,0.18
0.59,0.78,0.18
0.58,0.78,0.18
0.58,0.78,0.19
0.57,0.79,0.19
0.56,0.79,0.19
0.56,0.79,0.19
0.55,0.79,0.19
0.55,0.79,0.19
0.56,0.78,0.2
0.56,0.78,0.2
0.57,0.79,0.21
0.57,0.79,0.21
0.57,0.79,0.2
0.57,0.79,0.19
0.56,0.79,0.19
0.56,0.79,0.19
0.57,0.78,0.19
0.57,0.77,0.2
0.57,0.78,0.19
0.58,0.78,0.19
0.58,0.79,0.18
0.58,0.79,0.18
0.58,0.79,0.19
0.58,0.79,0.2
0.58,0.79,0.2
0.57,0.8,0.2
0.57,0.79,0.2
0.57,0.79,0.2
0.57,0.79,0.2
0.57,0.78,0.2
0.57,0.78,0.19
0.57,0.78,0.19
0.57,0.78,0.2
0.56,0.77,0.2
0.57,0.77,0.21
0.57,0.78,0.2
0.57,0.78,0.19
0.56,0.79,0.19
0.57,0.79,0.2
0.58,0.79,0.2
0.58,0.79,0.2
0.59,0.79,0.2
0.59,0.78,0.19
0.59,0.78,0.19
0.59,0.78,0.19
0.58,0.78,0.19
0.58,0.79,0.18
0.57,0.8,0.18
0.56,0.8,0.18
0.56,0.8,0.18
0.57,0.79,0.19
0.57,0.79,0.2
0.58,0.79,0.19
0.58,0.79,0.19
0.58,0.79,0.19
0.58,0.78,0.19
0.58,0.78,0.19
0.57,0.78,0.18
0.57,0.78,0.18
0.58,0.78,0.18
0.58,0.79,0.18
0.58,0.79,0.19
0.58,0.79,0.19
0.59,0.79,0.19
0.59,0.79,0.19
0.57,0.79,0.19
0.57,0.79,0.19
0.57,0.79,0.2
0.57,0.78,0.2
0.57,0.78,0.19
0.56,0.78,0.19
0.56,0.77,0.18
0.55,0.77,0.18
0.55,0.77,0.19
0.56,0.77,0.19
0.58,0.78,0.19
0.59,0.78,0.19
0.59,0.79,0.19
0.59,0.79,0.19
0.59,0.79,0.19
0.59,0.79,0.19
0.58,0.79,0.19
0.58,0.78,0.18
0.58,0.78,0.18
0.58,0.78,0.18
0.58,0.79,0.18
0.58,0.78,0.18
0.57,0.78,0.18
0.57,0.78,0.19
0.57,0.77,0.19
0.57,0.78,0.19
0.57,0.78,0.19
0.58,0.78,0.18
0.58,0.79,0.18
0.58,0.79,0.18
0.58,0.8,0.19
0.58,0.8,0.19
0.58,0.8,0.19
0.58,0.8,0.19
0.58,0.79,0.18
0.58,0.79,0.18
0.57,0.78,0.18
0.58,0.78,0.18
0.59,0.78,0.17
0.59,0.78,0.18
0.58,0.78,0.18
0.57,0.78,0.18
0.58,0.77,0.19
0.58,0.77,0.19
0.58,0.77,0.19
0.58,0.77,0.19
0.58,0.78,0.18
0.58,0.78,0.18
0.57,0.78,0.17
0.57,0.78,0.17
0.58,0.78,0.17
0.58,0.77,0.18
0.58,0.77,0.19
0.59,0.77,0.2
0.59,0.76,0.21
0.61,0.76,0.22
0.62,0.76,0.23
0.62,0.75,0.26
0.64,0.75,0.27
0.66,0.74,0.26
0.66,0.75,0.26
0.65,0.77,0.22
0.67,0.75,0.18
0.69,0.75,0.16
0.72,0.74,0.17
0.7,0.74,0.2
0.68,0.74,0.22
0.69,0.74,0.22
0.69,0.75,0.21
0.68,0.76,0.2
0.66,0.77,0.19
0.65,0.77,0.19
0.64,0.78,0.19
0.64,0.79,0.17
0.61,0.79,0.16
0.56,0.8,0.15
0.54,0.81,0.11
0.55,0.82,0.09
0.53,0.82,0.07
0.52,0.83,0.04
0.52,0.83,0.01
0.51,0.84,-0.02
0.51,0.85,-0.05
0.48,0.85,-0.08
0.46,0.85,-0.12
0.44,0.85,-0.15
0.44,0.86,-0.17
0.42,0.87,-0.18
0.41,0.89,-0.23
0.39,0.89,-0.23
0.37,0.9,-0.23
0.36,0.9,-0.25
0.36,0.91,-0.26
0.34,0.91,-0.26
0.33,0.92,-0.26
0.32,0.93,-0.26
0.32,0.93,-0.27
0.31,0.93,-0.27
0.3,0.92,-0.26
0.31,0.92,-0.26
0.32,0.92,-0.26
0.32,0.92,-0.26
0.32,0.92,-0.26
0.32,0.93,-0.26
0.32,0.92,-0.27
0.33,0.92,-0.28
0.33,0.91,-0.29
0.34,0.9,-0.29
0.35,0.89,-0.3
0.37,0.88,-0.3
0.38,0.87,-0.3
0.39,0.87,-0.31
0.4,0.87,-0.32
0.42,0.86,-0.31
0.44,0.84,-0.27
0.51,0.82,-0.22
0.55,0.8,-0.16
0.57,0.79,-0.1
0.62,0.77,-0.03
0.66,0.74,0.05
1.28,0.6,0.28
2.48,0.37,2.22
1.7,-0.03,2.13
0.22,0.48,0.17
-0.03,1.31,0.05
0.18,1.13,-0.1
0.6,0.92,-0.26
0.77,0.9,-0.33
0.94,0.92,-0.32
0.84,0.88,-0.09
0.51,0.85,0.17
0.42,0.83,0.29
0.48,0.78,0.31
0.48,0.78,0.3
0.48,0.78,0.26
0.53,0.79,0.19
0.59,0.81,0.16
0.61,0.8,0.16
0.61,0.78,0.18
0.59,0.76,0.19
0.56,0.75,0.2
0.53,0.74,0.2
0.54,0.74,0.19
0.56,0.75,0.18
0.56,0.76,0.18
0.57,0.76,0.19
0.57,0.77,0.2
0.58,0.77,0.21
0.58,0.78,0.2
0.59,0.79,0.19
0.59,0.79,0.18
0.6,0.8,0.17
0.6,0.8,0.16
0.61,0.8,0.16
0.6,0.8,0.17
0.6,0.8,0.17
0.59,0.8,0.18
0.58,0.8,0.18
0.58,0.8,0.18
0.58,0.79,0.17
0.58,0.79,0.17
0.58,0.79,0.17
0.57,0.79,0.17
0.57,0.79,0.17
0.57,0.78,0.18
0.57,0.78,0.19
0.57,0.78,0.19
0.58,0.78,0.19
0.58,0.78,0.19
0.57,0.79,0.18
0.57,0.79,0.18
0.58,0.78,0.18
0.58,0.78,0.17
0.58,0.78,0.17
0.58,0.78,0.17
0.58,0.78,0.16
0.58,0.78,0.17
0.58,0.78,0.17
0.58,0.78,0.17
0.58,0.78,0.17
0.58,0.79,0.17
0.58,0.79,0.17
0.57,0.79,0.17
0.57,0.8,0.17
0.57,0.8,0.17
0.57,0.8,0.17
0.56,0.8,0.17
0.56,0.79,0.17
0.56,0.79,0.18
0.56,0.78,0.19
0.56,0.78,0.2
0.55,0.78,0.2
0.54,0.78,0.2
0.53,0.79,0.2
0.53,0.79,0.21
0.53,0.8,0.22
0.52,0.8,0.22
0.52,0.8,0.23
0.52,0.8,0.24
0.51,0.8,0.25
0.51,0.8,0.25
0.53,0.8,0.25
0.55,0.79,0.25
0.58,0.78,0.24
0.6,0.77,0.24
0.62,0.76,0.24
0.63,0.75,0.24
0.63,0.73,0.23
0.62,0.71,0.23
0.6,0.68,0.22
0.6,0.67,0.2
0.59,0.65,0.18
0.59,0.63,0.15
0.61,0.61,0.12
0.62,0.62,0.1
0.63,0.63,0.1
0.63,0.62,0.1
0.65,0.62,0.11
0.67,0.62,0.12
0.69,0.61,0.13
0.7,0.62,0.13
0.7,0.65,0.1
0.69,0.67,0.08
0.69,0.67,0.07
0.69,0.67,0.06
0.7,0.67,0.05
0.72,0.67,0.05
0.74,0.67,0.05
0.74,0.66,0.05
0.75,0.65,0.04
0.75,0.64,0.03
0.75,0.64,0.02
0.76,0.65,0
0.77,0.65,-0.02
0.78,0.65,-0.03
0.8,0.63,-0.04
0.82,0.62,-0.05
0.83,0.6,-0.06
0.84,0.6,-0.06
0.84,0.59,-0.06
0.84,0.59,-0.06
0.84,0.57,-0.05
0.84,0.56,-0.05
0.84,0.55,-0.04
0.84,0.54,-0.04
0.85,0.52,-0.03
0.87,0.5,-0.01
0.87,0.48,0.01
0.86,0.46,0.02
0.86,0.43,0.02
0.84,0.4,0.02
0.83,0.38,0.02
0.83,0.35,0.01
0.84,0.34,0
0.86,0.34,0
0.84,0.32,0.01
0.81,0.26,0.02
0.81,0.23,0.02
0.85,0.21,0.01
0.88,0.19,0.01
0.88,0.17,0.02
0.88,0.16,0.02
0.88,0.14,0.02
0.91,0.11,0.02
0.97,0.08,0.02
1.01,0.06,0.03
1.05,0.05,0.03
1.08,0.05,0.03
1.09,0.04,0.05
1.06,0.02,0.06
1.08,0,0.07
1.19,-0.06,0.03
1.37,-0.07,0.05
1.28,-0.07,0.11
1.2,-0.04,0.13
1.21,-0.03,0.11
1.12,-0.05,0.11
1.03,-0.05,0.11
1.09,-0.04,0.09
1.11,-0.04,0.07
1.09,-0.04,0.06
1.03,-0.06,0.08
1,-0.06,0.08
1.01,-0.06,0.05
1.03,-0.06,0.03
1.07,-0.07,0.01
1.12,-0.09,0
1.14,-0.11,0.01
1.14,-0.13,0.01
1.11,-0.14,-0.02
1.06,-0.16,-0.02
1.05,-0.15,-0.01
1.01,-0.16,-0.02
0.98,-0.18,-0.02
0.96,-0.18,0
0.96,-0.18,0.01
0.98,-0.18,0.02
0.97,-0.19,0.06
0.93,-0.21,0.07
0.95,-0.22,0.08
0.99,-0.21,0.08
1.01,-0.22,0.08
1.04,-0.22,0.09
1.06,-0.21,0.1
1.07,-0.2,0.11
1.07,-0.19,0.11
1.06,-0.19,0.11
1.05,-0.18,0.11
1.05,-0.17,0.11
1.06,-0.16,0.1
1.07,-0.15,0.1
1.08,-0.15,0.11
1.07,-0.14,0.12
1.07,-0.14,0.12
1.06,-0.14,0.13
1.04,-0.13,0.12
1.03,-0.13,0.12
1.01,-0.13,0.12
0.98,-0.13,0.11
0.97,-0.13,0.1
0.97,-0.13,0.08
0.97,-0.14,0.07
0.98,-0.14,0.07
0.99,-0.15,0.06
1.01,-0.17,0.06
1.01,-0.18,0.06
1.01,-0.18,0.05
1,-0.19,0.05
