Acc_x,Acc_y,Acc_z
0.66,0.75,0.02
0.66,0.75,0.02
0.65,0.75,0.02
0.66,0.75,0.01
0.67,0.75,0.02
0.66,0.75,0.02
0.67,0.75,0.02
0.67,0.75,0.02
0.66,0.75,0.02
0.65,0.75,0.02
0.65,0.75,0.02
0.64,0.75,0.02
0.65,0.76,0.01
0.65,0.76,0.01
0.65,0.76,0.01
0.65,0.76,0.02
0.65,0.76,0.02
0.64,0.76,0.03
0.64,0.76,0.03
0.64,0.76,0.03
0.64,0.76,0.02
0.64,0.76,0.02
0.64,0.76,0.03
0.63,0.76,0.03
0.63,0.76,0.03
0.64,0.75,0.03
0.64,0.75,0.03
0.64,0.76,0.03
0.64,0.76,0.02
0.64,0.75,0.02
0.64,0.75,0.03
0.64,0.75,0.03
0.64,0.75,0.03
0.64,0.75,0.03
0.65,0.75,0.04
0.64,0.75,0.04
0.64,0.75,0.03
0.65,0.75,0.02
0.66,0.76,0.02
0.65,0.75,0.02
0.66,0.75,0.02
0.66,0.75,0.02
0.66,0.75,0.02
0.65,0.75,0.02
0.65,0.75,0.02
0.65,0.75,0.03
0.65,0.75,0.03
0.65,0.74,0.03
0.65,0.75,0.03
0.65,0.75,0.03
0.65,0.75,0.03
0.64,0.75,0.03
0.64,0.75,0.03
0.64,0.75,0.03
0.64,0.75,0.02
0.64,0.75,0.02
0.65,0.75,0.02
0.65,0.76,0.03
0.66,0.76,0.03
0.66,0.76,0.02
0.66,0.75,0.02
0.66,0.75,0.02
0.66,0.75,0.03
0.65,0.75,0.03
0.65,0.75,0.02
0.64,0.75,0.03
0.65,0.75,0.03
0.65,0.75,0.03
0.65,0.75,0.03
0.65,0.75,0.03
0.65,0.75,0.02
0.65,0.75,0.03
0.65,0.75,0.03
0.65,0.75,0.03
0.66,0.75,0.03
0.66,0.75,0.03
0.66,0.75,0.03
0.67,0.75,0.02
0.67,0.75,0.02
0.66,0.75,0.02
0.66,0.75,0.02
0.66,0.74,0.02
0.66,0.74,0.02
0.65,0.75,0.03
0.66,0.75,0.02
0.66,0.75,0.02
0.65,0.75,0.03
0.65,0.74,0.02
0.65,0.75,0.02
0.65,0.75,0.03
0.65,0.75,0.03
0.65,0.75,0.03
0.65,0.75,0.03
0.65,0.74,0.03
0.65,0.74,0.03
0.66,0.75,0.02
0.66,0.75,0.02
0.66,0.75,0.02
0.66,0.75,0.02
0.66,0.75,0.02
0.66,0.75,0.02
0.66,0.75,0.03
0.66,0.75,0.03
0.66,0.75,0.03
0.66,0.75,0.03
0.66,0.75,0.03
0.66,0.75,0.02
0.66,0.75,0.02
0.66,0.75,0.02
0.66,0.75,0.02
0.66,0.75,0.02
0.66,0.74,0.02
0.66,0.74,0.01
0.66,0.73,0.01
0.66,0.72,0.01
0.65,0.71,0.01
0.64,0.71,0
0.64,0.72,0
0.64,0.74,0.01
0.65,0.75,0.02
0.66,0.76,0.03
0.67,0.76,0.03
0.67,0.76,0.03
0.67,0.75,0.02
0.66,0.74,0.01
0.66,0.73,0.02
0.66,0.72,0.03
0.66,0.72,0.06
0.68,0.72,0.09
0.69,0.73,0.13
0.7,0.75,0.16
0.71,0.76,0.16
0.72,0.77,0.15
0.73,0.77,0.15
0.72,0.76,0.17
0.74,0.74,0.17
0.8,0.7,0.17
0.82,0.66,0.15
0.82,0.64,0.14
0.81,0.64,0.17
0.8,0.66,0.17
0.8,0.67,0.15
0.77,0.68,0.12
0.74,0.69,0.09
0.71,0.73,0.03
0.65,0.74,0.02
0.64,0.75,0
0.62,0.76,-0.02
0.6,0.76,-0.05
0.59,0.77,-0.08
0.58,0.77,-0.09
0.58,0.77,-0.1
0.58,0.78,-0.12
0.57,0.79,-0.13
0.55,0.8,-0.15
0.53,0.8,-0.16
0.52,0.8,-0.17
0.52,0.8,-0.18
0.51,0.8,-0.18
0.51,0.81,-0.18
0.5,0.82,-0.2
0.5,0.83,-0.21
0.49,0.84,-0.22
0.48,0.84,-0.21
0.47,0.84,-0.21
0.47,0.84,-0.2
0.46,0.86,-0.2
0.45,0.87,-0.21
0.44,0.88,-0.22
0.44,0.88,-0.23
0.44,0.89,-0.24
0.43,0.88,-0.26
0.43,0.88,-0.27
0.42,0.87,-0.28
0.42,0.87,-0.28
0.42,0.86,-0.29
0.42,0.86,-0.31
0.43,0.86,-0.33
0.43,0.86,-0.35
0.43,0.87,-0.37
0.42,0.88,-0.4
0.41,0.89,-0.45
0.4,0.89,-0.49
0.4,0.89,-0.52
0.4,0.89,-0.57
0.39,0.89,-0.62
0.4,0.88,-0.66
0.42,0.86,-0.69
0.44,0.84,-0.68
0.46,0.8,-0.66
0.47,0.77,-0.63
0.48,0.75,-0.58
0.49,0.7,-0.51
0.5,0.64,-0.42
0.6,0.58,-0.56
2.33,-1.71,1.61
1.62,-2.65,0.54
-0.7,1.47,-0.19
-0.13,1.29,-0.08
0.68,0.86,0
0.56,0.8,0.02
0.66,0.86,0
1,0.94,0.02
0.91,0.96,0
0.68,1,-0.07
0.58,0.98,-0.12
0.57,0.92,-0.09
0.54,0.85,0.02
0.5,0.79,0.12
0.52,0.77,0.17
0.56,0.76,0.18
0.59,0.73,0.17
0.62,0.71,0.13
0.66,0.71,0.08
0.66,0.71,0.04
0.65,0.71,0
0.64,0.72,-0.01
0.63,0.72,0
0.61,0.72,0.01
0.61,0.73,0.01
0.62,0.74,0.02
0.64,0.74,0.03
0.65,0.74,0.05
0.66,0.74,0.05
0.67,0.74,0.06
0.67,0.74,0.06
0.66,0.74,0.06
0.65,0.75,0.06
0.64,0.76,0.06
0.64,0.76,0.06
0.64,0.77,0.06
0.65,0.77,0.05
0.66,0.77,0.05
0.67,0.78,0.05
0.67,0.77,0.05
0.67,0.77,0.05
0.66,0.77,0.05
0.67,0.77,0.05
0.67,0.76,0.04
0.67,0.76,0.04
0.66,0.76,0.04
0.66,0.75,0.04
0.66,0.75,0.04
0.66,0.75,0.04
0.66,0.74,0.05
0.65,0.74,0.04
0.64,0.75,0.04
0.63,0.75,0.04
0.63,0.75,0.04
0.63,0.76,0.05
0.63,0.76,0.06
0.62,0.76,0.05
0.63,0.77,0.05
0.63,0.77,0.05
0.62,0.77,0.05
0.62,0.77,0.05
0.63,0.77,0.05
0.64,0.77,0.04
0.64,0.77,0.04
0.64,0.77,0.03
0.65,0.77,0.03
0.65,0.77,0.02
0.65,0.76,0.02
0.64,0.76,0.03
0.65,0.76,0.03
0.66,0.75,0.04
0.66,0.75,0.04
0.65,0.75,0.04
0.65,0.75,0.04
0.65,0.74,0.03
0.64,0.74,0.03
0.64,0.75,0.03
0.63,0.75,0.03
0.64,0.75,0.05
0.64,0.76,0.05
0.64,0.76,0.05
0.63,0.76,0.06
0.64,0.76,0.05
0.65,0.77,0.05
0.65,0.77,0.04
0.65,0.77,0.04
0.64,0.77,0.03
0.64,0.76,0.03
0.64,0.76,0.03
0.64,0.76,0.03
0.64,0.76,0.03
0.65,0.76,0.03
0.65,0.75,0.03
0.64,0.76,0.03
0.64,0.76,0.03
0.64,0.76,0.03
0.64,0.76,0.03
0.64,0.76,0.03
0.64,0.76,0.03
0.64,0.76,0.03
0.64,0.76,0.03
0.63,0.76,0.04
0.63,0.76,0.04
0.64,0.77,0.03
0.64,0.77,0.03
0.63,0.77,0.03
0.64,0.76,0.03
0.64,0.76,0.03
0.65,0.75,0.03
0.65,0.75,0.03
0.64,0.75,0.03
0.64,0.75,0.03
0.64,0.75,0.03
0.64,0.75,0.04
0.64,0.76,0.04
0.64,0.76,0.04
0.64,0.77,0.03
0.63,0.77,0.03
0.64,0.77,0.03
0.64,0.77,0.03
0.65,0.77,0.04
0.66,0.77,0.04
0.66,0.77,0.04
0.66,0.76,0.04
0.66,0.76,0.04
0.66,0.76,0.04
0.65,0.76,0.03
0.64,0.76,0.03
0.63,0.76,0.03
0.63,0.76,0.02
0.63,0.77,0.03
0.64,0.77,0.03
0.64,0.77,0.05
0.63,0.76,0.05
0.63,0.75,0.05
0.63,0.75,0.05
0.63,0.74,0.05
0.63,0.75,0.05
0.62,0.75,0.04
0.62,0.76,0.04
0.63,0.76,0.04
0.64,0.76,0.05
0.65,0.76,0.05
0.65,0.76,0.05
0.65,0.75,0.04
0.64,0.75,0.04
0.64,0.75,0.03
0.64,0.75,0.03
0.65,0.75,0.03
0.65,0.75,0.04
0.65,0.75,0.04
0.65,0.76,0.04
0.65,0.76,0.03
0.64,0.77,0.04
0.64,0.77,0.04
0.64,0.77,0.05
0.64,0.77,0.06
0.64,0.76,0.06
0.64,0.76,0.05
0.63,0.76,0.04
0.63,0.76,0.04
0.63,0.75,0.03
0.63,0.75,0.03
0.63,0.75,0.04
0.63,0.75,0.04
0.63,0.75,0.05
0.64,0.76,0.05
0.64,0.75,0.05
0.64,0.75,0.05
0.65,0.75,0.04
0.65,0.76,0.04
0.65,0.76,0.04
0.64,0.76,0.04
0.65,0.76,0.03
0.65,0.76,0.03
0.64,0.76,0.04
0.64,0.75,0.04
0.64,0.75,0.05
0.65,0.75,0.06
0.65,0.75,0.07
0.65,0.76,0.07
0.65,0.76,0.07
0.66,0.77,0.08
0.66,0.76,0.09
0.67,0.76,0.14
0.69,0.74,0.18
0.71,0.73,0.2
0.72,0.72,0.19
0.74,0.7,0.15
0.75,0.66,0.16
0.76,0.66,0.17
0.75,0.66,0.15
0.73,0.65,0.16
0.72,0.67,0.21
0.71,0.66,0.26
0.71,0.67,0.27
0.73,0.69,0.23
0.73,0.72,0.18
0.71,0.74,0.13
0.69,0.75,0.11
0.67,0.74,0.11
0.66,0.73,0.11
0.65,0.73,0.09
0.65,0.75,0.06
0.65,0.76,0.03
0.63,0.78,-0.01
0.62,0.79,-0.04
0.62,0.79,-0.06
0.61,0.78,-0.09
0.6,0.78,-0.12
0.59,0.78,-0.16
0.56,0.81,-0.23
0.54,0.82,-0.26
0.54,0.82,-0.28
0.53,0.82,-0.3
0.52,0.83,-0.31
0.51,0.83,-0.33
0.5,0.84,-0.33
0.49,0.84,-0.34
0.47,0.85,-0.35
0.46,0.87,-0.36
0.45,0.87,-0.37
0.44,0.87,-0.38
0.42,0.87,-0.38
0.41,0.88,-0.39
0.41,0.88,-0.39
0.41,0.88,-0.39
0.41,0.87,-0.38
0.41,0.87,-0.38
0.41,0.86,-0.38
0.4,0.86,-0.38
0.4,0.86,-0.38
0.4,0.85,-0.39
0.4,0.84,-0.39
0.41,0.83,-0.39
0.43,0.81,-0.38
0.45,0.79,-0.38
0.47,0.77,-0.39
0.48,0.78,-0.43
0.47,0.79,-0.47
0.48,0.77,-0.48
0.53,0.74,-0.47
0.56,0.7,-0.44
0.58,0.67,-0.4
0.63,0.64,-0.36
0.66,0.61,-0.32
2.15,0.06,0.11
2.92,0.13,2.24
1.06,0.52,1.83
-0.14,1.03,-0.45
0.4,1.57,-0.67
1.03,1.12,-0.55
0.86,0.89,-0.29
0.68,0.84,-0.11
0.81,0.8,0.1
0.83,0.85,0.15
0.61,0.9,0.04
0.47,0.94,-0.04
0.48,0.9,-0.04
0.52,0.81,0.01
0.55,0.75,0.09
0.57,0.73,0.15
0.61,0.74,0.16
0.65,0.72,0.13
0.67,0.72,0.09
0.67,0.72,0.05
0.65,0.71,0.02
0.64,0.71,0.01
0.63,0.71,0
0.63,0.71,0.01
0.64,0.72,0.02
0.65,0.73,0.03
0.67,0.74,0.05
0.67,0.74,0.07
0.68,0.74,0.07
0.68,0.74,0.07
0.68,0.74,0.06
0.68,0.75,0.05
0.68,0.75,0.04
0.68,0.76,0.04
0.68,0.76,0.04
0.67,0.76,0.04
0.67,0.75,0.04
0.67,0.75,0.05
0.67,0.75,0.06
0.67,0.75,0.06
0.66,0.74,0.05
0.65,0.75,0.05
0.64,0.75,0.05
0.64,0.75,0.05
0.64,0.74,0.05
0.63,0.74,0.06
0.62,0.74,0.06
0.62,0.74,0.06
0.63,0.74,0.06
0.63,0.74,0.07
0.63,0.74,0.07
0.63,0.75,0.06
0.63,0.76,0.05
0.63,0.76,0.04
0.63,0.76,0.05
0.63,0.76,0.05
0.63,0.76,0.05
0.63,0.76,0.06
0.65,0.75,0.06
0.65,0.75,0.06
0.65,0.75,0.05
0.64,0.76,0.05
0.64,0.75,0.05
0.65,0.75,0.05
0.66,0.75,0.05
0.66,0.74,0.05
0.65,0.74,0.04
0.65,0.74,0.04
0.66,0.74,0.04
0.66,0.75,0.04
0.66,0.74,0.05
0.66,0.74,0.05
0.67,0.74,0.05
0.67,0.74,0.05
0.66,0.74,0.05
0.66,0.75,0.05
0.66,0.75,0.04
0.66,0.75,0.04
0.65,0.75,0.04
0.65,0.75,0.04
0.65,0.75,0.03
0.66,0.75,0.03
0.66,0.75,0.03
0.65,0.75,0.03
0.66,0.75,0.03
0.66,0.75,0.03
0.65,0.75,0.04
0.66,0.75,0.04
0.66,0.75,0.04
0.66,0.75,0.04
0.66,0.75,0.03
0.66,0.75,0.03
0.65,0.75,0.03
0.65,0.75,0.03
0.66,0.75,0.03
0.66,0.75,0.04
0.66,0.75,0.04
0.66,0.75,0.04
0.67,0.75,0.04
0.67,0.75,0.04
0.66,0.74,0.04
0.66,0.74,0.04
0.65,0.75,0.04
0.66,0.75,0.04
0.66,0.75,0.04
0.67,0.75,0.04
0.67,0.75,0.04
0.67,0.75,0.04
0.66,0.74,0.04
0.66,0.74,0.04
0.65,0.74,0.04
0.65,0.74,0.04
0.66,0.74,0.04
0.66,0.74,0.04
0.66,0.74,0.04
0.66,0.74,0.03
0.66,0.75,0.02
0.65,0.75,0.02
0.65,0.75,0.03
0.65,0.75,0.04
0.66,0.75,0.04
0.66,0.75,0.05
0.66,0.75,0.05
0.66,0.75,0.04
0.66,0.75,0.04
0.66,0.75,0.04
0.65,0.75,0.04
0.66,0.75,0.04
0.66,0.75,0.04
0.65,0.75,0.04
0.65,0.75,0.04
0.65,0.75,0.04
0.65,0.74,0.04
0.66,0.74,0.05
0.66,0.74,0.05
0.66,0.74,0.05
0.66,0.74,0.05
0.66,0.74,0.04
0.66,0.74,0.04
0.65,0.74,0.04
0.65,0.74,0.04
0.65,0.74,0.05
0.66,0.74,0.05
0.65,0.74,0.05
0.65,0.74,0.06
0.66,0.75,0.05
0.66,0.75,0.04
0.66,0.75,0.04
0.65,0.75,0.05
0.66,0.75,0.05
0.67,0.74,0.05
0.66,0.74,0.05
0.66,0.75,0.04
0.67,0.74,0.04
0.66,0.74,0.04
0.66,0.74,0.04
0.66,0.74,0.04
0.65,0.75,0.04
0.65,0.75,0.04
0.66,0.75,0.04
0.66,0.75,0.04
0.66,0.75,0.04
0.66,0.75,0.04
0.66,0.75,0.05
0.66,0.75,0.05
0.66,0.74,0.05
0.66,0.74,0.04
0.66,0.74,0.04
0.66,0.74,0.04
0.66,0.74,0.04
0.65,0.74,0.05
0.65,0.73,0.05
0.65,0.73,0.05
0.65,0.74,0.05
0.65,0.74,0.05
0.66,0.74,0.05
0.66,0.74,0.05
0.66,0.74,0.05
0.67,0.74,0.05
0.67,0.74,0.04
0.67,0.74,0.04
0.67,0.74,0.03
0.67,0.74,0.03
0.67,0.74,0.03
0.67,0.75,0.03
0.67,0.75,0.04
0.67,0.75,0.04
0.67,0.75,0.04
0.66,0.75,0.04
0.66,0.74,0.04
0.66,0.74,0.04
0.66,0.75,0.04
0.66,0.74,0.04
0.66,0.74,0.04
0.66,0.74,0.05
0.67,0.74,0.05
0.66,0.74,0.04
0.66,0.74,0.05
0.66,0.74,0.05
0.66,0.74,0.05
0.66,0.74,0.04
0.66,0.74,0.04
0.66,0.74,0.05
0.66,0.73,0.05
0.66,0.74,0.04
0.66,0.74,0.04
0.66,0.74,0.05
0.66,0.74,0.04
0.66,0.74,0.04
0.67,0.74,0.04
0.67,0.74,0.04
0.67,0.74,0.04
0.67,0.74,0.04
0.67,0.74,0.04
0.67,0.74,0.04
0.66,0.74,0.04
0.66,0.74,0.04
0.66,0.74,0.04
0.66,0.74,0.04
0.67,0.74,0.04
0.67,0.74,0.04
0.66,0.74,0.04
0.66,0.74,0.05
0.67,0.74,0.04
0.67,0.74,0.03
0.66,0.74,0.03
0.66,0.74,0.03
0.66,0.74,0.04
0.66,0.74,0.04
0.66,0.74,0.05
0.66,0.74,0.05
0.66,0.74,0.05
0.67,0.74,0.04
0.67,0.74,0.03
0.66,0.74,0.04
0.66,0.74,0.04
0.66,0.74,0.04
0.66,0.74,0.04
0.66,0.74,0.04
0.65,0.74,0.04
0.65,0.74,0.04
0.66,0.73,0.05
0.66,0.73,0.04
0.67,0.74,0.04
0.67,0.74,0.04
0.67,0.73,0.05
0.67,0.73,0.05
0.68,0.73,0.07
0.7,0.73,0.1
0.73,0.73,0.13
0.73,0.73,0.15
0.71,0.73,0.16
0.71,0.72,0.16
0.73,0.71,0.18
0.76,0.68,0.17
0.85,0.66,0.22
0.86,0.63,0.36
0.84,0.6,0.41
0.86,0.61,0.38
0.83,0.64,0.35
0.77,0.66,0.34
0.76,0.66,0.31
0.75,0.67,0.27
0.73,0.68,0.23
0.68,0.68,0.21
0.65,0.68,0.18
0.64,0.69,0.13
0.63,0.71,0.05
0.62,0.73,-0.03
0.59,0.76,-0.1
0.58,0.77,-0.17
0.57,0.78,-0.23
0.54,0.78,-0.26
0.54,0.78,-0.29
0.53,0.78,-0.33
0.49,0.8,-0.35
0.46,0.81,-0.39
0.45,0.83,-0.42
0.44,0.85,-0.44
0.43,0.87,-0.46
0.41,0.87,-0.45
0.39,0.88,-0.46
0.38,0.89,-0.45
0.39,0.9,-0.45
0.38,0.9,-0.45
0.37,0.9,-0.45
0.38,0.9,-0.44
0.38,0.9,-0.43
0.39,0.89,-0.42
0.39,0.88,-0.42
0.4,0.87,-0.43
0.4,0.86,-0.43
0.41,0.86,-0.45
0.43,0.86,-0.47
0.44,0.84,-0.48
0.47,0.82,-0.48
0.5,0.81,-0.47
0.52,0.79,-0.46
0.54,0.77,-0.43
0.54,0.75,-0.41
0.54,0.73,-0.39
0.54,0.72,-0.37
0.54,0.71,-0.34
0.56,0.69,-0.28
0.58,0.66,-0.19
0.61,-1.55,1.79
1.91,-2.43,2.1
0.07,-0.01,0.01
-0.02,1.4,-0.06
-0.09,1.15,0.06
0.5,0.78,-0.01
0.68,0.74,-0.11
0.69,0.8,-0.2
0.92,0.86,-0.19
0.85,0.82,-0.06
0.67,0.81,0.01
0.58,0.8,-0.02
0.57,0.77,-0.05
0.57,0.75,-0.02
0.57,0.74,0.03
0.6,0.75,0.06
0.66,0.76,0.07
0.7,0.76,0.07
0.72,0.74,0.07
0.71,0.73,0.05
0.68,0.73,0.02
0.65,0.73,0
0.64,0.73,-0.01
0.63,0.74,-0.01
0.63,0.74,0
0.64,0.75,0.03
0.64,0.75,0.07
0.66,0.75,0.09
0.67,0.75,0.08
0.68,0.75,0.06
0.69,0.75,0.05
0.68,0.75,0.04
0.67,0.75,0.03
0.66,0.75,0.02
0.66,0.74,0.02
0.66,0.75,0.02
0.66,0.75,0.02
0.66,0.75,0.02
0.66,0.75,0.03
0.67,0.75,0.03
0.67,0.75,0.03
0.66,0.76,0.03
0.65,0.76,0.03
0.65,0.76,0.03
0.65,0.75,0.03
0.65,0.75,0.03
0.65,0.75,0.03
0.65,0.75,0.03
0.64,0.75,0.03
0.64,0.75,0.04
0.64,0.75,0.04
0.64,0.75,0.03
0.64,0.76,0.03
0.64,0.75,0.03
0.64,0.76,0.03
0.64,0.76,0.03
0.65,0.75,0.04
0.64,0.75,0.04
0.64,0.75,0.04
0.65,0.75,0.05
0.65,0.75,0.05
0.66,0.75,0.04
0.65,0.75,0.04
0.64,0.75,0.04
0.64,0.75,0.04
0.64,0.75,0.04
0.65,0.74,0.04
0.65,0.75,0.05
0.65,0.75,0.05
0.66,0.75,0.04
0.66,0.75,0.04
0.66,0.75,0.04
0.66,0.75,0.04
0.65,0.75,0.04
0.65,0.75,0.05
0.65,0.75,0.05
0.65,0.75,0.04
0.65,0.76,0.04
0.65,0.76,0.04
0.64,0.75,0.04
0.65,0.75,0.04
0.65,0.75,0.04
0.65,0.75,0.04
0.65,0.75,0.04
0.65,0.75,0.04
0.65,0.75,0.04
0.65,0.75,0.05
0.65,0.75,0.04
0.65,0.75,0.04
0.65,0.75,0.03
0.64,0.75,0.03
0.64,0.76,0.04
0.65,0.75,0.04
0.65,0.75,0.04
0.65,0.75,0.04
0.65,0.75,0.05
0.65,0.75,0.05
0.65,0.75,0.04
0.65,0.75,0.04
0.64,0.75,0.04
0.64,0.75,0.04
0.65,0.75,0.04
0.65,0.75,0.04
0.65,0.75,0.04
0.65,0.75,0.04
0.65,0.75,0.04
0.65,0.75,0.04
0.65,0.75,0.04
0.65,0.75,0.04
0.65,0.75,0.04
0.65,0.75,0.04
0.66,0.75,0.04
0.66,0.75,0.04
0.66,0.75,0.04
0.66,0.75,0.03
0.66,0.75,0.03
0.66,0.75,0.03
0.65,0.75,0.03
0.66,0.75,0.03
0.66,0.75,0.03
0.66,0.75,0.04
0.66,0.75,0.04
0.66,0.75,0.04
0.66,0.75,0.04
0.66,0.75,0.04
0.65,0.75,0.04
0.66,0.74,0.04
0.65,0.75,0.04
0.65,0.75,0.04
0.65,0.75,0.04
0.65,0.75,0.05
0.65,0.74,0.04
0.65,0.75,0.04
0.66,0.75,0.03
0.66,0.75,0.03
0.66,0.74,0.03
0.66,0.74,0.04
0.66,0.75,0.04
0.65,0.75,0.04
0.65,0.75,0.04
0.66,0.75,0.03
0.66,0.75,0.03
0.66,0.75,0.03
0.66,0.75,0.03
0.66,0.75,0.04
0.66,0.75,0.04
0.66,0.75,0.04
0.65,0.75,0.04
0.65,0.75,0.03
0.65,0.75,0.03
0.65,0.75,0.03
0.65,0.74,0.03
0.65,0.74,0.04
0.66,0.75,0.04
0.66,0.74,0.04
0.66,0.75,0.04
0.66,0.75,0.04
0.66,0.75,0.04
0.66,0.75,0.04
0.66,0.75,0.04
0.66,0.74,0.04
0.65,0.74,0.03
0.65,0.74,0.04
0.65,0.74,0.03
0.65,0.75,0.03
0.66,0.75,0.03
0.66,0.75,0.03
0.66,0.75,0.03
0.66,0.75,0.04
0.65,0.75,0.04
0.65,0.74,0.04
0.65,0.74,0.05
0.65,0.74,0.05
0.65,0.74,0.04
0.66,0.75,0.04
0.65,0.75,0.03
0.65,0.75,0.03
0.65,0.75,0.04
0.64,0.74,0.04
0.65,0.74,0.04
0.66,0.74,0.05
0.66,0.74,0.04
0.65,0.75,0.04
0.65,0.75,0.03
0.66,0.74,0.03
0.65,0.74,0.04
0.65,0.74,0.04
0.65,0.74,0.04
0.66,0.74,0.04
0.66,0.74,0.04
0.66,0.74,0.04
0.66,0.74,0.04
0.66,0.75,0.04
0.66,0.74,0.04
0.65,0.74,0.04
0.65,0.74,0.04
0.65,0.74,0.04
0.66,0.74,0.04
0.66,0.75,0.04
0.66,0.75,0.04
0.65,0.75,0.04
0.66,0.75,0.04
0.66,0.75,0.04
0.66,0.75,0.04
0.65,0.75,0.04
0.65,0.74,0.04
0.65,0.74,0.04
0.65,0.74,0.04
0.65,0.74,0.04
0.66,0.75,0.04
0.66,0.75,0.04
0.66,0.75,0.04
0.65,0.75,0.03
0.65,0.75,0.04
0.65,0.75,0.04
0.65,0.75,0.04
0.66,0.74,0.05
0.66,0.74,0.05
0.66,0.74,0.04
0.65,0.75,0.04
0.65,0.75,0.03
0.65,0.75,0.03
0.66,0.75,0.03
0.66,0.74,0.04
0.66,0.74,0.04
0.66,0.75,0.04
0.65,0.75,0.04
0.65,0.75,0.03
0.66,0.75,0.03
0.67,0.75,0.04
0.67,0.75,0.04
0.66,0.75,0.04
0.66,0.75,0.04
0.66,0.75,0.04
0.66,0.75,0.03
0.66,0.75,0.03
0.65,0.75,0.04
0.65,0.75,0.04
0.65,0.75,0.04
0.65,0.75,0.04
0.65,0.75,0.03
0.65,0.75,0.03
0.65,0.75,0.03
0.65,0.75,0.04
0.65,0.75,0.04
0.66,0.74,0.04
0.66,0.74,0.04
0.65,0.75,0.04
0.65,0.75,0.04
0.65,0.75,0.04
0.65,0.75,0.04
0.65,0.75,0.04
0.66,0.75,0.04
0.66,0.75,0.04
0.65,0.74,0.04
0.65,0.75,0.04
0.66,0.75,0.05
0.66,0.75,0.06
0.66,0.75,0.09
0.67,0.74,0.13
0.69,0.73,0.17
0.7,0.72,0.19
0.7,0.71,0.2
0.68,0.72,0.19
0.67,0.73,0.17
0.71,0.74,0.15
0.77,0.71,0.18
0.77,0.66,0.28
0.82,0.65,0.3
0.9,0.66,0.26
0.87,0.69,0.25
0.8,0.7,0.26
0.77,0.69,0.23
0.75,0.71,0.19
0.72,0.71,0.14
0.67,0.72,0.09
0.64,0.73,0.04
0.61,0.74,-0.01
0.59,0.75,-0.07
0.57,0.76,-0.12
0.56,0.77,-0.18
0.53,0.77,-0.22
0.51,0.78,-0.26
0.49,0.77,-0.28
0.47,0.78,-0.28
0.47,0.79,-0.29
0.45,0.8,-0.31
0.44,0.82,-0.32
0.45,0.84,-0.31
0.45,0.85,-0.3
0.45,0.86,-0.29
0.46,0.88,-0.29
0.46,0.88,-0.29
0.46,0.89,-0.29
0.46,0.89,-0.28
0.47,0.89,-0.28
0.48,0.89,-0.29
0.49,0.89,-0.3
0.5,0.88,-0.3
0.5,0.88,-0.33
0.5,0.88,-0.38
0.51,0.87,-0.41
0.5,0.86,-0.45
0.5,0.86,-0.5
0.51,0.85,-0.54
0.52,0.84,-0.56
0.53,0.83,-0.59
0.54,0.81,-0.6
0.54,0.77,-0.57
0.53,0.74,-0.52
0.53,0.7,-0.45
0.92,0.66,-0.79
2.64,0.62,1.39
2.02,0.47,2.06
-0.21,1.39,-0.45
0.36,1.06,-0.25
0.69,0.78,-0.16
0.77,0.73,-0.23
0.92,0.75,-0.2
1.01,0.84,0.04
0.83,0.85,0.12
0.61,0.85,0.05
0.56,0.82,-0.03
0.57,0.77,-0.03
0.59,0.74,0.03
0.62,0.74,0.07
0.67,0.74,0.08
0.71,0.74,0.08
0.73,0.73,0.07
0.73,0.72,0.05
0.7,0.72,0.03
0.68,0.72,0.02
0.66,0.72,0.02
0.65,0.72,0.02
0.65,0.72,0.03
0.65,0.72,0.04
0.65,0.72,0.05
0.66,0.73,0.06
0.66,0.73,0.07
0.67,0.73,0.07
0.68,0.73,0.05
0.69,0.72,0.05
0.69,0.72,0.04
0.68,0.72,0.03
0.69,0.73,0.03
0.69,0.73,0.02
0.69,0.73,0.02
0.69,0.73,0.02
0.69,0.72,0.03
0.69,0.72,0.03
0.69,0.72,0.03
0.68,0.72,0.03
0.67,0.73,0.03
0.67,0.73,0.03
0.68,0.73,0.03
0.67,0.73,0.04
0.66,0.73,0.03
0.66,0.73,0.03
0.66,0.73,0.04
0.66,0.73,0.04
0.66,0.73,0.04
0.66,0.73,0.04
0.66,0.73,0.04
0.66,0.73,0.04
0.66,0.74,0.03
0.66,0.74,0.03
0.66,0.74,0.04
0.67,0.74,0.04
0.67,0.74,0.05
0.66,0.74,0.05
0.67,0.74,0.05
0.68,0.74,0.04
0.68,0.73,0.04
0.68,0.73,0.04
0.68,0.73,0.05
0.68,0.74,0.05
0.69,0.74,0.04
0.69,0.74,0.04
0.69,0.74,0.04
0.68,0.74,0.04
0.68,0.73,0.04
0.67,0.73,0.04
0.66,0.73,0.04
0.66,0.73,0.03
0.66,0.73,0.04
0.66,0.73,0.04
0.67,0.73,0.04
0.67,0.73,0.05
0.67,0.73,0.05
0.67,0.72,0.05
0.67,0.73,0.05
0.67,0.73,0.05
0.67,0.74,0.04
0.67,0.75,0.03
0.67,0.75,0.03
0.67,0.74,0.03
0.67,0.74,0.03
0.68,0.74,0.03
0.68,0.74,0.03
0.68,0.74,0.03
0.68,0.73,0.03
0.68,0.73,0.03
0.68,0.73,0.03
0.68,0.73,0.04
0.68,0.73,0.04
0.68,0.73,0.04
0.68,0.74,0.05
0.68,0.74,0.05
0.68,0.74,0.06
0.68,0.74,0.06
0.67,0.74,0.05
0.67,0.74,0.05
0.66,0.74,0.05
0.66,0.73,0.05
0.65,0.73,0.05
0.65,0.73,0.05
0.65,0.73,0.05
0.64,0.73,0.05
0.64,0.74,0.05
0.64,0.74,0.05
0.64,0.74,0.06
0.64,0.74,0.07
0.64,0.74,0.07
0.64,0.74,0.07
0.65,0.75,0.06
0.65,0.76,0.06
0.66,0.76,0.06
0.66,0.76,0.05
0.65,0.76,0.04
0.65,0.76,0.03
0.65,0.76,0.03
0.65,0.75,0.03
0.65,0.75,0.03
0.65,0.75,0.03
0.65,0.74,0.03
0.65,0.74,0.02
0.64,0.73,0.01
0.64,0.73,0.01
0.62,0.72,0.01
0.61,0.72,0.02
0.62,0.72,0.02
0.62,0.72,0.04
0.63,0.72,0.05
0.65,0.72,0.06
0.66,0.72,0.06
0.66,0.72,0.05
0.65,0.72,0.05
0.65,0.72,0.04
0.66,0.73,0.03
0.67,0.74,0.03
0.67,0.74,0.03
0.67,0.75,0.03
0.67,0.75,0.03
0.67,0.75,0.03
0.67,0.75,0.03
0.67,0.76,0.02
0.68,0.76,0.01
0.68,0.76,0
0.68,0.76,-0.01
0.67,0.76,-0.01
0.67,0.76,-0.01
0.67,0.75,-0.01
0.67,0.75,-0.02
0.67,0.75,-0.02
0.67,0.76,-0.02
0.67,0.76,-0.02
0.67,0.75,-0.02
0.67,0.76,-0.03
0.67,0.76,-0.03
0.67,0.76,-0.03
0.67,0.75,-0.02
0.68,0.75,-0.02
0.68,0.74,-0.01
0.68,0.73,-0.02
0.68,0.73,-0.02
0.68,0.73,-0.03
0.69,0.74,-0.04
0.7,0.74,-0.05
0.69,0.73,-0.05
0.69,0.73,-0.05
0.69,0.71,-0.04
0.7,0.7,-0.04
0.7,0.69,-0.04
0.71,0.69,-0.04
0.71,0.69,-0.04
0.71,0.69,-0.04
0.71,0.7,-0.04
0.71,0.7,-0.05
0.71,0.71,-0.05
0.71,0.72,-0.05
0.71,0.72,-0.05
0.71,0.73,-0.05
0.71,0.74,-0.04
0.71,0.76,-0.04
0.72,0.78,-0.04
0.71,0.79,-0.05
0.7,0.81,-0.05
0.69,0.82,-0.03
0.68,0.87,-0.01
0.71,0.89,0.01
0.74,0.88,0.02
0.78,0.86,0.02
0.8,0.83,0.01
0.8,0.8,0
0.78,0.76,0.01
0.74,0.74,0.01
0.71,0.73,-0.01
0.7,0.72,-0.04
0.68,0.7,-0.08
0.66,0.68,-0.1
0.63,0.64,-0.11
0.6,0.61,-0.11
0.58,0.61,-0.11
0.58,0.62,-0.11
0.6,0.62,-0.12
0.63,0.63,-0.13
0.66,0.65,-0.12
0.68,0.66,-0.11
0.7,0.67,-0.1
0.71,0.7,-0.07
0.73,0.73,-0.04
0.74,0.76,-0.02
0.74,0.79,0.01
0.74,0.82,0.06
0.75,0.86,0.08
0.75,0.87,0.09
0.74,0.87,0.09
0.71,0.86,0.08
0.68,0.84,0.06
0.65,0.83,0.05
0.61,0.81,0.05
0.58,0.8,0.05
0.56,0.79,0.04
0.55,0.78,0.03
0.56,0.77,0.01
0.57,0.76,0.01
0.59,0.76,0.01
0.61,0.76,0.04
0.62,0.76,0.08
0.64,0.75,0.1
0.66,0.74,0.1
0.66,0.73,0.1
0.64,0.72,0.1
0.6,0.71,0.11
0.58,0.71,0.13
0.57,0.71,0.15
0.57,0.73,0.17
0.57,0.74,0.17
0.56,0.76,0.17
0.55,0.77,0.17
0.54,0.8,0.17
0.54,0.82,0.18
0.55,0.83,0.18
0.56,0.83,0.18
0.57,0.83,0.18
0.57,0.82,0.17
0.57,0.81,0.16
0.59,0.78,0.15
0.6,0.77,0.14
0.61,0.75,0.13
0.61,0.73,0.12
0.61,0.71,0.11
0.6,0.68,0.1
0.57,0.65,0.11
0.54,0.63,0.13
0.52,0.61,0.15
0.5,0.61,0.17
0.48,0.62,0.2
0.47,0.64,0.22
0.47,0.66,0.24
0.49,0.68,0.26
0.5,0.7,0.26
0.51,0.73,0.27
0.52,0.75,0.28
0.53,0.77,0.29
0.53,0.78,0.29
0.53,0.8,0.28
0.54,0.81,0.27
0.56,0.81,0.25
0.57,0.81,0.22
0.58,0.8,0.19
0.58,0.79,0.16
0.58,0.78,0.14
0.58,0.76,0.12
0.58,0.75,0.12
0.57,0.74,0.13
0.57,0.73,0.15
0.57,0.74,0.17
0.58,0.74,0.19
0.6,0.75,0.2
0.61,0.76,0.22
0.63,0.77,0.25
0.65,0.77,0.28
0.65,0.76,0.3
0.66,0.75,0.33
0.67,0.74,0.36
0.66,0.72,0.38
0.68,0.71,0.39
0.72,0.69,0.4
0.74,0.66,0.4
0.78,0.63,0.38
0.82,0.63,0.36
0.82,0.66,0.42
0.77,0.66,0.43
0.76,0.66,0.4
0.76,0.68,0.35
0.75,0.7,0.29
0.72,0.73,0.23
0.67,0.76,0.16
0.62,0.78,0.11
0.57,0.8,0.07
0.52,0.83,0.02
0.48,0.86,-0.03
0.43,0.9,-0.1
0.41,0.93,-0.18
0.39,0.97,-0.26
0.37,1,-0.33
0.35,1.03,-0.38
0.33,1.04,-0.42
0.32,1.04,-0.45
0.29,1.03,-0.47
0.26,1.03,-0.47
0.24,1.02,-0.46
0.23,1.01,-0.44
0.23,0.99,-0.43
0.23,0.98,-0.42
0.23,0.96,-0.42
0.23,0.95,-0.42
0.22,0.95,-0.45
0.19,0.93,-0.46
0.18,0.91,-0.47
0.17,0.9,-0.49
0.16,0.89,-0.53
0.18,0.87,-0.54
0.24,0.82,-0.51
0.31,0.77,-0.45
0.37,0.71,-0.36
0.41,0.66,-0.27
0.45,0.62,-0.17
0.52,0.58,-0.07
0.62,0.55,0.06
2.32,-1.71,2.05
2.95,-2.3,3.98
0.72,0.37,2.09
-0.68,1.25,0.36
-0.69,0.99,0.44
-0.03,0.9,0.2
0.38,0.88,0.02
0.52,0.89,-0.11
0.84,0.97,-0.18
0.83,0.98,-0.08
0.62,0.94,0.07
0.54,0.92,0.17
0.56,0.91,0.22
0.5,0.87,0.4
0.37,0.87,0.4
0.41,0.91,0.39
0.44,0.93,0.37
0.5,0.92,0.34
0.55,0.91,0.3
0.55,0.9,0.27
0.53,0.88,0.26
0.5,0.86,0.25
0.47,0.83,0.24
0.46,0.81,0.24
0.47,0.8,0.25
0.48,0.79,0.26
0.5,0.78,0.28
0.51,0.77,0.29
0.52,0.76,0.3
0.51,0.76,0.32
0.5,0.76,0.32
0.48,0.76,0.32
0.47,0.76,0.31
0.45,0.77,0.31
0.45,0.77,0.31
0.44,0.78,0.32
0.44,0.78,0.32
0.44,0.78,0.32
0.43,0.79,0.32
0.43,0.8,0.3
0.46,0.8,0.29
0.45,0.8,0.29
0.44,0.81,0.3
0.45,0.8,0.3
0.45,0.8,0.29
0.44,0.79,0.29
0.44,0.79,0.28
0.44,0.77,0.27
0.44,0.76,0.28
0.43,0.74,0.29
0.43,0.73,0.3
0.42,0.73,0.31
0.41,0.73,0.32
0.41,0.74,0.33
0.42,0.76,0.33
0.43,0.78,0.34
0.46,0.81,0.36
0.48,0.84,0.37
0.52,0.87,0.38
0.52,0.91,0.38
0.54,0.92,0.38
0.57,0.93,0.36
0.58,0.93,0.35
0.59,0.92,0.33
0.61,0.91,0.31
0.61,0.89,0.3
0.58,0.84,0.26
0.58,0.83,0.24
0.57,0.81,0.22
0.57,0.8,0.2
0.57,0.79,0.2
0.57,0.77,0.2
0.56,0.77,0.21
0.55,0.76,0.23
0.54,0.77,0.24
0.53,0.78,0.25
0.51,0.79,0.27
0.5,0.81,0.28
0.49,0.82,0.29
0.47,0.83,0.29
0.46,0.83,0.29
0.46,0.84,0.29
0.46,0.84,0.29
0.45,0.84,0.29
0.44,0.84,0.29
0.43,0.84,0.29
0.44,0.84,0.29
0.44,0.83,0.29
0.44,0.84,0.28
0.45,0.83,0.27
0.46,0.83,0.28
0.46,0.83,0.29
0.46,0.82,0.31
0.46,0.82,0.32
0.47,0.82,0.33
0.47,0.83,0.33
0.48,0.84,0.32
0.49,0.84,0.32
0.49,0.85,0.31
0.5,0.85,0.29
0.5,0.84,0.28
0.49,0.83,0.26
0.49,0.81,0.25
0.5,0.79,0.25
0.5,0.78,0.26
0.51,0.77,0.27
0.51,0.77,0.29
0.52,0.76,0.3
0.52,0.77,0.31
0.52,0.77,0.32
0.52,0.77,0.33
0.52,0.77,0.33
0.51,0.77,0.33
0.5,0.77,0.32
0.5,0.76,0.31
0.5,0.76,0.31
0.49,0.75,0.31
0.49,0.75,0.32
0.49,0.75,0.33
0.5,0.75,0.33
0.5,0.76,0.34
0.5,0.77,0.34
0.5,0.77,0.35
0.5,0.78,0.35
0.51,0.79,0.35
0.5,0.8,0.35
0.5,0.81,0.34
0.5,0.83,0.33
0.5,0.83,0.32
0.5,0.84,0.32
0.5,0.84,0.31
0.5,0.84,0.3
0.5,0.84,0.29
0.5,0.84,0.28
0.5,0.83,0.27
0.5,0.82,0.27
0.5,0.82,0.27
0.5,0.81,0.27
0.49,0.81,0.28
0.5,0.8,0.29
0.5,0.79,0.32
0.52,0.79,0.35
0.52,0.79,0.37
0.5,0.78,0.39
0.5,0.78,0.43
0.53,0.78,0.43
0.52,0.76,0.44
0.53,0.73,0.48
0.58,0.73,0.47
0.6,0.74,0.43
0.61,0.74,0.4
0.62,0.73,0.41
0.6,0.72,0.44
0.59,0.72,0.45
0.58,0.73,0.42
0.56,0.75,0.38
0.54,0.77,0.34
0.52,0.79,0.31
0.5,0.8,0.3
0.49,0.81,0.28
0.48,0.81,0.27
0.46,0.81,0.25
0.45,0.82,0.22
0.44,0.84,0.18
0.42,0.87,0.13
0.39,0.9,0.08
0.38,0.91,0.05
0.38,0.92,0.01
0.36,0.93,-0.03
0.34,0.94,-0.06
0.33,0.93,-0.08
0.32,0.93,-0.08
0.32,0.93,-0.1
0.3,0.94,-0.12
0.28,0.95,-0.15
0.27,0.95,-0.16
0.27,0.96,-0.16
0.26,0.96,-0.16
0.24,0.96,-0.17
0.23,0.96,-0.17
0.22,0.96,-0.18
0.21,0.97,-0.18
0.21,0.97,-0.18
0.2,0.98,-0.19
0.2,0.99,-0.2
0.19,0.99,-0.21
0.18,0.99,-0.22
0.16,0.99,-0.23
0.16,1,-0.26
0.16,1,-0.28
0.15,1.01,-0.31
0.15,1.01,-0.33
0.15,1.01,-0.35
0.15,1,-0.37
0.16,0.99,-0.38
0.17,0.97,-0.38
0.2,0.96,-0.39
0.25,0.94,-0.4
0.27,0.93,-0.41
0.29,0.92,-0.42
0.32,0.89,-0.39
0.35,0.84,-0.33
0.38,0.8,-0.26
0.41,0.76,-0.17
0.44,0.72,-0.05
0.44,0.69,0.05
0.46,0.64,0
2.04,-1.4,0.59
3.2,-1.37,2.63
1.15,0.97,2.34
-0.49,1.16,0.75
-0.59,0.9,0.61
-0.3,0.75,0.32
0.35,0.8,0.11
0.71,0.85,-0.08
0.8,0.9,-0.11
0.71,0.91,0.05
0.74,0.87,0.22
0.72,0.85,0.28
0.53,0.82,0.31
0.37,0.77,0.36
0.31,0.74,0.4
0.32,0.75,0.43
0.38,0.77,0.4
0.42,0.78,0.37
0.46,0.79,0.34
0.48,0.79,0.32
0.5,0.78,0.31
0.5,0.78,0.3
0.49,0.79,0.31
0.48,0.79,0.33
0.47,0.79,0.36
0.46,0.79,0.37
0.46,0.79,0.36
0.47,0.8,0.35
0.47,0.8,0.34
0.48,0.81,0.34
0.49,0.82,0.33
0.49,0.83,0.32
0.5,0.83,0.3
0.51,0.83,0.29
0.51,0.83,0.28
0.51,0.82,0.27
0.51,0.81,0.27
0.51,0.79,0.29
0.5,0.78,0.29
0.51,0.78,0.29
0.52,0.77,0.3
0.51,0.78,0.31
0.52,0.8,0.3
0.53,0.81,0.31
0.52,0.8,0.32
0.52,0.8,0.33
0.52,0.8,0.34
0.52,0.79,0.35
0.52,0.79,0.35
0.53,0.79,0.35
0.52,0.79,0.34
0.52,0.79,0.33
0.52,0.79,0.33
0.52,0.79,0.33
0.52,0.79,0.33
0.52,0.78,0.33
0.53,0.77,0.33
0.52,0.78,0.32
0.51,0.78,0.32
0.5,0.78,0.31
0.49,0.78,0.31
0.5,0.78,0.31
0.49,0.8,0.3
0.49,0.81,0.31
0.49,0.81,0.3
0.49,0.81,0.31
0.49,0.8,0.31
0.48,0.8,0.3
0.48,0.8,0.31
0.48,0.81,0.31
0.48,0.81,0.3
0.48,0.81,0.3
0.48,0.81,0.3
0.48,0.81,0.31
0.49,0.8,0.31
0.49,0.8,0.31
0.5,0.79,0.32
0.5,0.79,0.32
0.5,0.78,0.33
0.5,0.78,0.33
0.51,0.78,0.33
0.51,0.78,0.32
0.53,0.78,0.31
0.53,0.78,0.31
0.53,0.78,0.33
0.53,0.78,0.34
0.52,0.79,0.34
0.51,0.79,0.34
0.51,0.79,0.34
0.51,0.79,0.34
0.52,0.79,0.33
0.52,0.79,0.33
0.52,0.8,0.32
0.52,0.8,0.32
0.51,0.8,0.31
0.5,0.8,0.31
0.5,0.8,0.31
0.5,0.8,0.31
0.49,0.79,0.31
0.49,0.79,0.32
0.49,0.79,0.32
0.5,0.79,0.32
0.51,0.79,0.32
0.51,0.8,0.31
0.5,0.8,0.31
0.5,0.8,0.31
0.5,0.79,0.31
0.49,0.79,0.32
0.49,0.79,0.32
0.49,0.79,0.32
0.49,0.79,0.32
0.5,0.79,0.32
0.51,0.79,0.32
0.51,0.79,0.32
0.5,0.79,0.32
0.49,0.78,0.33
0.49,0.78,0.33
0.49,0.78,0.33
0.49,0.78,0.33
0.49,0.78,0.33
0.49,0.78,0.32
0.49,0.78,0.32
0.49,0.78,0.32
0.5,0.78,0.32
0.5,0.78,0.32
0.49,0.78,0.32
0.49,0.78,0.32
0.49,0.79,0.32
0.5,0.79,0.32
0.5,0.79,0.32
0.5,0.79,0.32
0.5,0.79,0.32
0.5,0.79,0.33
0.5,0.79,0.33
0.5,0.79,0.33
0.49,0.79,0.33
0.49,0.79,0.32
0.49,0.8,0.32
0.49,0.8,0.31
0.5,0.79,0.31
0.5,0.79,0.32
0.49,0.79,0.32
0.49,0.8,0.32
0.5,0.79,0.33
0.5,0.8,0.33
0.51,0.8,0.34
0.52,0.8,0.36
0.53,0.8,0.38
0.55,0.78,0.41
0.56,0.78,0.45
0.57,0.77,0.48
0.58,0.76,0.51
0.57,0.76,0.52
0.54,0.77,0.5
0.5,0.75,0.46
0.5,0.71,0.38
0.6,0.69,0.38
0.68,0.68,0.44
0.72,0.69,0.49
0.75,0.72,0.54
0.73,0.73,0.56
0.66,0.75,0.54
0.59,0.77,0.48
0.53,0.79,0.41
0.49,0.81,0.33
0.47,0.83,0.24
0.46,0.85,0.17
0.42,0.86,0.11
0.36,0.88,0.06
0.32,0.89,0.02
0.3,0.9,-0.01
0.28,0.91,-0.03
0.24,0.92,-0.05
0.22,0.93,-0.07
0.18,0.94,-0.08
0.18,0.94,-0.08
0.19,0.94,-0.06
0.19,0.93,-0.04
0.19,0.93,-0.01
0.19,0.94,0.02
0.2,0.94,0.04
0.21,0.94,0.06
0.22,0.94,0.08
0.22,0.94,0.09
0.23,0.95,0.09
0.25,0.94,0.07
0.27,0.95,0.04
0.29,0.98,-0.06
0.31,0.99,-0.16
0.32,1,-0.21
0.35,0.98,-0.26
0.37,0.94,-0.28
0.38,0.93,-0.28
0.39,0.94,-0.3
0.39,0.95,-0.32
0.36,0.95,-0.29
0.36,0.91,-0.22
0.39,0.86,-0.1
0.33,0.72,0.11
2.11,-0.93,2.99
-0.17,0.45,1.01
-0.13,1.52,-0.14
0.14,1.09,-0.21
0.4,0.85,-0.02
0.5,0.88,0.23
0.56,0.86,0.41
0.51,0.81,0.51
0.4,0.79,0.52
0.35,0.84,0.45
0.26,0.82,0.42
0.21,0.77,0.42
0.24,0.76,0.42
0.27,0.78,0.4
0.3,0.79,0.38
0.33,0.8,0.37
0.35,0.79,0.38
0.36,0.78,0.4
0.37,0.78,0.41
0.38,0.78,0.4
0.4,0.79,0.38
0.42,0.8,0.36
0.43,0.8,0.36
0.44,0.8,0.36
0.44,0.81,0.36
0.45,0.81,0.37
0.44,0.82,0.38
0.44,0.83,0.38
0.45,0.84,0.37
0.46,0.84,0.37
0.46,0.84,0.37
0.47,0.84,0.36
0.47,0.84,0.36
0.46,0.83,0.36
0.45,0.83,0.36
0.45,0.83,0.36
0.45,0.82,0.37
0.45,0.82,0.37
0.45,0.81,0.38
0.44,0.8,0.38
0.44,0.8,0.38
0.43,0.8,0.38
0.42,0.8,0.38
0.41,0.8,0.38
0.41,0.8,0.38
0.42,0.81,0.38
0.42,0.81,0.37
0.42,0.81,0.37
0.42,0.81,0.37
0.42,0.82,0.38
0.42,0.82,0.37
0.43,0.82,0.37
0.43,0.81,0.37
0.42,0.81,0.37
0.43,0.81,0.36
0.43,0.81,0.36
0.42,0.81,0.36
0.42,0.81,0.36
0.43,0.81,0.36
0.44,0.81,0.36
0.43,0.81,0.36
0.43,0.81,0.37
0.43,0.81,0.37
0.43,0.81,0.37
0.43,0.81,0.37
0.43,0.81,0.37
0.43,0.81,0.38
0.43,0.81,0.38
0.43,0.81,0.38
0.43,0.81,0.38
0.43,0.81,0.37
0.43,0.81,0.37
0.43,0.81,0.38
0.43,0.8,0.39
0.43,0.8,0.39
0.42,0.8,0.39
0.42,0.8,0.37
0.42,0.8,0.37
0.43,0.8,0.37
0.44,0.81,0.37
0.43,0.81,0.37
0.43,0.81,0.37
0.43,0.81,0.37
0.43,0.81,0.37
0.44,0.81,0.37
0.44,0.82,0.37
0.44,0.81,0.37
0.44,0.81,0.36
0.43,0.82,0.36
0.43,0.82,0.36
0.43,0.82,0.36
0.43,0.82,0.37
0.43,0.81,0.37
0.42,0.81,0.38
0.42,0.81,0.37
0.43,0.81,0.37
0.43,0.82,0.37
0.42,0.82,0.36
0.43,0.83,0.36
0.43,0.83,0.37
0.43,0.84,0.36
0.44,0.84,0.36
0.43,0.84,0.36
0.43,0.84,0.36
0.44,0.84,0.36
0.44,0.82,0.37
0.45,0.81,0.37
0.45,0.81,0.38
0.45,0.8,0.38
0.45,0.8,0.38
0.45,0.79,0.38
0.44,0.79,0.39
0.44,0.78,0.38
0.44,0.78,0.38
0.43,0.77,0.39
0.43,0.77,0.39
0.42,0.76,0.4
0.42,0.76,0.4
0.42,0.76,0.4
0.42,0.76,0.4
0.41,0.76,0.41
0.41,0.77,0.41
0.42,0.77,0.41
0.42,0.78,0.42
0.42,0.78,0.42
0.42,0.79,0.41
0.42,0.79,0.41
0.43,0.79,0.4
0.43,0.79,0.4
0.43,0.79,0.4
0.43,0.79,0.4
0.43,0.8,0.38
0.42,0.8,0.38
0.42,0.8,0.37
0.43,0.81,0.37
0.43,0.81,0.37
0.43,0.82,0.38
0.43,0.82,0.38
0.43,0.82,0.37
0.42,0.82,0.36
0.42,0.82,0.36
0.42,0.83,0.36
0.41,0.83,0.36
0.41,0.83,0.36
0.41,0.84,0.36
0.4,0.83,0.37
0.41,0.83,0.39
0.41,0.82,0.41
0.41,0.82,0.44
0.41,0.82,0.46
0.42,0.81,0.47
0.42,0.8,0.47
0.42,0.79,0.48
0.45,0.78,0.49
0.48,0.78,0.46
0.46,0.76,0.44
0.44,0.73,0.56
0.48,0.75,0.49
0.48,0.78,0.49
0.42,0.8,0.48
0.42,0.81,0.44
0.42,0.82,0.39
0.39,0.84,0.36
0.38,0.87,0.33
0.36,0.9,0.28
0.34,0.93,0.22
0.33,0.95,0.15
0.31,0.97,0.09
0.3,0.98,0.03
0.3,0.98,-0.03
0.3,0.98,-0.05
0.31,0.97,-0.06
0.29,0.95,-0.05
0.27,0.95,-0.04
0.27,0.94,-0.04
0.29,0.93,-0.03
0.29,0.92,-0.01
0.28,0.92,0.01
0.29,0.92,0.04
0.3,0.92,0.06
0.32,0.91,0.08
0.34,0.91,0.1
0.37,0.9,0.12
0.38,0.89,0.17
0.39,0.89,0.18
0.39,0.9,0.18
0.39,0.9,0.16
0.39,0.92,0.14
0.38,0.92,0.12
0.37,0.93,0.08
0.38,0.95,0.03
0.38,0.95,0
0.38,0.96,-0.04
0.38,0.98,-0.09
0.38,0.98,-0.12
0.36,0.96,-0.11
0.3,0.95,-0.12
0.26,0.96,-0.13
0.23,0.95,-0.11
0.21,0.91,-0.22
1.65,-0.72,1.39
2.19,-0.89,2.96
0.57,0.72,1.8
-0.39,0.92,0.71
-0.41,0.79,0.62
-0.06,0.73,0.46
0.25,0.85,0.22
0.55,0.89,0.12
0.67,0.89,0.15
0.66,0.86,0.29
0.65,0.84,0.29
0.47,0.81,0.3
0.34,0.77,0.32
0.3,0.75,0.35
0.31,0.75,0.38
0.35,0.76,0.4
0.39,0.78,0.4
0.44,0.79,0.39
0.46,0.79,0.37
0.47,0.8,0.35
0.47,0.8,0.33
0.46,0.8,0.31
0.46,0.8,0.31
0.46,0.8,0.32
0.48,0.8,0.32
0.49,0.81,0.33
0.49,0.82,0.33
0.5,0.82,0.33
0.5,0.82,0.33
0.5,0.83,0.33
0.5,0.83,0.32
0.49,0.84,0.32
0.48,0.84,0.32
0.48,0.84,0.32
0.49,0.84,0.32
0.49,0.83,0.33
0.48,0.81,0.33
0.47,0.8,0.33
0.47,0.8,0.33
0.47,0.79,0.33
0.47,0.79,0.33
0.46,0.79,0.33
0.45,0.79,0.33
0.45,0.79,0.33
0.46,0.8,0.32
0.46,0.81,0.32
0.46,0.81,0.33
0.46,0.81,0.33
0.46,0.81,0.33
0.46,0.81,0.33
0.46,0.81,0.33
0.46,0.82,0.33
0.47,0.83,0.32
0.48,0.82,0.31
0.48,0.82,0.31
0.47,0.82,0.32
0.46,0.81,0.32
0.47,0.81,0.33
0.47,0.81,0.33
0.47,0.81,0.33
0.47,0.81,0.32
0.47,0.81,0.32
0.47,0.81,0.32
0.47,0.81,0.33
0.47,0.81,0.33
0.47,0.81,0.33
0.46,0.81,0.33
0.46,0.8,0.33
0.46,0.81,0.33
0.46,0.81,0.33
0.46,0.81,0.33
0.47,0.81,0.33
0.47,0.81,0.33
0.47,0.81,0.34
0.46,0.81,0.34
0.46,0.81,0.34
0.47,0.81,0.33
0.47,0.81,0.32
0.47,0.81,0.32
0.47,0.81,0.31
0.47,0.82,0.31
0.47,0.82,0.32
0.47,0.82,0.31
0.46,0.82,0.31
0.46,0.81,0.32
0.46,0.81,0.32
0.46,0.81,0.33
0.47,0.8,0.33
0.47,0.8,0.33
0.46,0.8,0.34
0.46,0.81,0.33
0.46,0.81,0.32
0.47,0.81,0.32
0.47,0.81,0.32
0.47,0.82,0.32
0.47,0.82,0.32
0.47,0.81,0.32
0.47,0.81,0.32
0.48,0.81,0.32
0.48,0.81,0.32
0.47,0.81,0.33
0.47,0.8,0.33
0.47,0.8,0.33
0.47,0.81,0.33
0.47,0.81,0.32
0.47,0.81,0.32
0.47,0.81,0.32
0.48,0.81,0.32
0.47,0.81,0.32
0.47,0.81,0.33
0.47,0.81,0.33
0.47,0.81,0.34
0.47,0.81,0.33
0.47,0.81,0.33
0.47,0.81,0.33
0.47,0.81,0.32
0.46,0.81,0.32
0.46,0.81,0.32
0.46,0.8,0.32
0.47,0.8,0.32
0.46,0.81,0.32
0.46,0.81,0.33
0.47,0.82,0.33
0.47,0.81,0.33
0.48,0.81,0.33
0.48,0.81,0.33
0.47,0.81,0.33
0.47,0.81,0.32
0.47,0.81,0.32
0.47,0.81,0.32
0.47,0.81,0.32
0.47,0.8,0.32
0.48,0.8,0.32
0.47,0.81,0.32
0.47,0.81,0.32
0.47,0.81,0.33
0.47,0.8,0.33
0.47,0.8,0.35
0.48,0.81,0.36
0.48,0.8,0.36
0.48,0.79,0.39
0.49,0.79,0.41
0.5,0.79,0.43
0.51,0.78,0.46
0.52,0.76,0.49
0.51,0.76,0.49
0.48,0.76,0.47
0.48,0.75,0.42
0.52,0.74,0.38
0.54,0.74,0.37
0.52,0.76,0.39
0.5,0.76,0.42
0.51,0.76,0.44
0.53,0.77,0.45
0.53,0.79,0.43
0.51,0.8,0.4
0.5,0.81,0.37
0.48,0.82,0.33
0.46,0.84,0.3
0.45,0.85,0.26
0.44,0.86,0.22
0.43,0.87,0.19
0.43,0.87,0.17
0.42,0.87,0.16
0.41,0.87,0.16
0.4,0.88,0.14
0.39,0.89,0.09
0.38,0.9,0.08
0.37,0.9,0.08
0.36,0.9,0.07
0.35,0.91,0.07
0.35,0.91,0.08
0.35,0.91,0.08
0.35,0.91,0.09
0.35,0.9,0.11
0.35,0.9,0.12
0.35,0.9,0.12
0.36,0.91,0.12
0.36,0.92,0.11
0.36,0.92,0.11
0.35,0.92,0.11
0.34,0.92,0.11
0.35,0.92,0.1
0.35,0.92,0.09
0.35,0.92,0.08
0.35,0.92,0.06
0.35,0.92,0.05
0.35,0.92,0.04
0.35,0.92,0.03
0.35,0.92,0.02
0.35,0.92,0
0.34,0.92,-0.01
0.33,0.92,-0.03
0.32,0.93,-0.05
0.32,0.93,-0.06
0.31,0.94,-0.08
0.3,0.94,-0.09
0.3,0.94,-0.1
0.3,0.93,-0.1
0.3,0.93,-0.1
0.31,0.92,-0.1
0.31,0.91,-0.09
0.32,0.91,-0.07
0.32,0.9,-0.06
0.33,0.9,-0.05
0.32,0.9,-0.02
0.32,0.89,0.01
0.33,0.89,0.02
0.36,0.89,0.04
0.4,0.87,0.08
0.43,0.85,0.13
0.44,0.84,0.17
0.42,0.82,0.21
0.42,0.81,0.23
0.44,0.8,0.24
0.64,0.72,0.24
2.4,-0.49,2.1
2.16,-0.75,2.65
0.06,0.71,0.82
-0.23,0.86,0.18
0.53,0.96,-0.02
0.67,0.95,-0.09
0.63,0.86,0.02
0.64,0.87,0.17
0.55,0.88,0.29
0.47,0.85,0.37
0.44,0.81,0.41
0.4,0.78,0.42
0.39,0.74,0.41
0.42,0.76,0.35
0.48,0.79,0.31
0.51,0.8,0.29
0.54,0.8,0.3
0.54,0.79,0.31
0.52,0.78,0.32
0.5,0.77,0.33
0.48,0.77,0.33
0.48,0.77,0.33
0.48,0.77,0.33
0.48,0.78,0.34
0.49,0.79,0.34
0.51,0.79,0.34
0.51,0.79,0.35
0.51,0.79,0.35
0.51,0.79,0.35
0.51,0.78,0.34
0.51,0.78,0.34
0.51,0.79,0.33
0.52,0.79,0.32
0.51,0.8,0.32
0.51,0.8,0.32
0.51,0.79,0.33
0.5,0.78,0.33
0.5,0.78,0.34
0.5,0.78,0.34
0.5,0.78,0.35
0.5,0.78,0.34
0.5,0.78,0.33
0.5,0.78,0.33
0.5,0.78,0.34
0.5,0.78,0.34
0.5,0.78,0.34
0.5,0.78,0.33
0.49,0.78,0.33
0.49,0.78,0.33
0.49,0.78,0.33
0.49,0.78,0.33
0.49,0.78,0.34
0.5,0.78,0.34
0.49,0.78,0.34
0.48,0.78,0.34
0.49,0.78,0.33
0.5,0.79,0.33
0.5,0.79,0.33
0.5,0.79,0.34
0.5,0.79,0.34
0.5,0.79,0.35
0.5,0.79,0.35
0.5,0.79,0.34
0.5,0.79,0.34
0.5,0.79,0.33
0.5,0.78,0.34
0.5,0.78,0.34
0.51,0.78,0.34
0.51,0.78,0.34
0.5,0.79,0.33
0.49,0.78,0.34
0.49,0.78,0.34
0.5,0.78,0.34
0.5,0.78,0.34
0.51,0.78,0.34
0.5,0.78,0.33
0.5,0.78,0.32
0.5,0.78,0.32
0.5,0.78,0.33
0.51,0.78,0.33
0.51,0.78,0.33
0.51,0.79,0.34
0.5,0.78,0.34
0.5,0.78,0.34
0.51,0.79,0.34
0.51,0.79,0.34
0.51,0.79,0.33
0.51,0.79,0.33
0.5,0.79,0.33
0.5,0.79,0.33
0.5,0.79,0.33
0.5,0.79,0.34
0.49,0.78,0.34
0.49,0.78,0.34
0.5,0.79,0.33
0.5,0.79,0.33
0.5,0.79,0.34
0.5,0.79,0.34
0.5,0.79,0.33
0.5,0.79,0.33
0.5,0.79,0.33
0.5,0.78,0.33
0.5,0.78,0.33
0.51,0.78,0.33
0.51,0.79,0.33
0.51,0.79,0.33
0.51,0.79,0.33
0.51,0.79,0.33
0.51,0.79,0.33
0.51,0.79,0.33
0.52,0.79,0.32
0.52,0.78,0.33
0.52,0.78,0.33
0.51,0.78,0.34
0.51,0.77,0.34
0.51,0.77,0.34
0.51,0.78,0.33
0.51,0.78,0.33
0.51,0.78,0.33
0.51,0.78,0.34
0.51,0.78,0.34
0.51,0.78,0.34
0.51,0.78,0.34
0.51,0.79,0.34
0.51,0.79,0.34
0.51,0.78,0.34
0.51,0.78,0.34
0.51,0.78,0.34
0.52,0.78,0.33
0.51,0.79,0.33
0.51,0.79,0.33
0.51,0.79,0.33
0.52,0.79,0.33
0.52,0.79,0.32
0.52,0.78,0.32
0.52,0.78,0.32
0.52,0.78,0.32
0.52,0.78,0.32
0.51,0.78,0.32
0.51,0.78,0.33
0.5,0.78,0.33
0.5,0.78,0.33
0.51,0.78,0.33
0.51,0.78,0.33
0.51,0.78,0.33
0.5,0.78,0.33
0.51,0.78,0.33
0.51,0.78,0.33
0.51,0.78,0.33
0.52,0.78,0.34
0.52,0.77,0.35
0.52,0.77,0.35
0.52,0.77,0.36
0.53,0.76,0.38
0.54,0.76,0.4
0.53,0.76,0.42
0.53,0.75,0.44
0.55,0.74,0.47
0.57,0.73,0.5
0.58,0.73,0.52
0.59,0.74,0.45
0.61,0.74,0.43
0.62,0.72,0.45
0.61,0.72,0.49
0.59,0.71,0.5
0.58,0.71,0.5
0.58,0.73,0.46
0.57,0.75,0.41
0.55,0.77,0.36
0.52,0.79,0.31
0.49,0.81,0.27
0.48,0.82,0.23
0.46,0.83,0.22
0.45,0.83,0.2
0.44,0.85,0.16
0.43,0.86,0.13
0.42,0.87,0.09
0.41,0.88,0.06
0.39,0.9,0.02
0.37,0.91,-0.01
0.36,0.91,-0.02
0.36,0.91,-0.03
0.35,0.91,-0.04
0.33,0.91,-0.03
0.33,0.91,-0.04
0.33,0.92,-0.04
0.32,0.93,-0.03
0.31,0.93,-0.03
0.31,0.94,-0.03
0.3,0.94,-0.03
0.29,0.95,-0.03
0.29,0.95,-0.03
0.29,0.95,-0.03
0.29,0.94,-0.03
0.3,0.93,-0.02
0.31,0.93,-0.02
0.31,0.93,-0.02
0.31,0.92,-0.03
0.31,0.92,-0.04
0.31,0.92,-0.05
0.32,0.91,-0.06
0.32,0.91,-0.06
0.33,0.9,-0.07
0.33,0.9,-0.07
0.34,0.9,-0.07
0.35,0.89,-0.06
0.35,0.88,-0.05
0.36,0.89,-0.03
0.39,0.88,-0.03
0.41,0.87,-0.02
0.43,0.87,0.01
0.45,0.85,0.04
0.48,0.83,0.15
0.53,0.78,0.22
0.63,0.72,-0.12
2.29,-0.79,1.73
2.23,-1.13,3
0.36,0.54,1.29
0.07,1.05,0.47
0.14,0.95,0.26
0.41,0.96,0
0.57,0.96,-0.12
0.58,0.9,-0.05
0.61,0.88,0.07
0.58,0.85,0.19
0.49,0.81,0.3
0.45,0.76,0.38
0.43,0.73,0.43
0.42,0.72,0.42
0.44,0.73,0.38
0.48,0.77,0.33
0.52,0.79,0.3
0.56,0.79,0.28
0.57,0.78,0.28
0.55,0.78,0.3
0.53,0.77,0.31
0.51,0.76,0.33
0.49,0.76,0.34
0.49,0.77,0.33
0.51,0.79,0.33
0.52,0.79,0.32
0.53,0.79,0.33
0.53,0.79,0.34
0.54,0.79,0.33
0.53,0.78,0.33
0.53,0.78,0.32
0.53,0.78,0.31
0.53,0.78,0.31
0.53,0.79,0.31
0.52,0.79,0.31
0.52,0.78,0.32
0.52,0.78,0.32
0.52,0.78,0.33
0.52,0.77,0.34
0.52,0.77,0.33
0.52,0.78,0.33
0.52,0.78,0.32
0.52,0.78,0.32
0.52,0.77,0.32
0.51,0.78,0.33
0.52,0.78,0.33
0.52,0.79,0.33
0.52,0.78,0.33
0.52,0.78,0.33
0.51,0.78,0.32
0.51,0.78,0.32
0.51,0.78,0.32
0.51,0.78,0.32
0.51,0.78,0.32
0.52,0.78,0.32
0.52,0.78,0.32
0.52,0.79,0.31
0.52,0.79,0.31
0.52,0.79,0.31
0.52,0.79,0.31
0.52,0.79,0.32
0.52,0.78,0.32
0.52,0.78,0.32
0.52,0.77,0.32
0.52,0.78,0.33
0.52,0.78,0.33
0.52,0.78,0.32
0.52,0.78,0.32
0.52,0.78,0.32
0.51,0.78,0.32
0.51,0.78,0.32
0.52,0.78,0.32
0.52,0.78,0.32
0.52,0.78,0.32
0.52,0.78,0.32
0.52,0.78,0.32
0.51,0.78,0.32
0.52,0.78,0.32
0.52,0.78,0.32
0.52,0.78,0.32
0.52,0.78,0.32
0.52,0.78,0.32
0.52,0.78,0.32
0.52,0.78,0.32
0.52,0.78,0.31
0.51,0.78,0.31
0.51,0.78,0.31
0.51,0.78,0.32
0.51,0.78,0.32
0.51,0.78,0.31
0.52,0.78,0.32
0.52,0.78,0.32
0.52,0.78,0.32
0.52,0.78,0.32
0.52,0.78,0.32
0.52,0.78,0.32
0.51,0.78,0.32
0.51,0.79,0.32
0.52,0.79,0.32
0.52,0.79,0.32
0.52,0.79,0.32
0.52,0.79,0.32
0.52,0.78,0.32
0.51,0.78,0.32
0.52,0.78,0.32
0.51,0.78,0.32
0.51,0.78,0.32
0.51,0.78,0.32
0.52,0.77,0.32
0.52,0.78,0.32
0.52,0.78,0.32
0.52,0.78,0.32
0.52,0.78,0.32
0.52,0.78,0.32
0.51,0.78,0.32
0.51,0.78,0.32
0.51,0.78,0.33
0.52,0.79,0.33
0.52,0.78,0.33
0.52,0.78,0.32
0.52,0.78,0.32
0.52,0.78,0.32
0.53,0.78,0.32
0.52,0.78,0.32
0.52,0.78,0.32
0.52,0.78,0.32
0.52,0.78,0.32
0.52,0.78,0.32
0.52,0.78,0.33
0.53,0.78,0.32
0.53,0.78,0.32
0.52,0.78,0.32
0.52,0.78,0.31
0.52,0.78,0.31
0.52,0.78,0.32
0.52,0.78,0.32
0.52,0.78,0.32
0.52,0.78,0.32
0.53,0.78,0.33
0.53,0.78,0.33
0.52,0.78,0.33
0.52,0.77,0.34
0.53,0.76,0.37
0.54,0.75,0.41
0.55,0.75,0.44
0.56,0.75,0.46
0.57,0.74,0.46
0.58,0.74,0.45
0.57,0.74,0.45
0.59,0.73,0.46
0.64,0.72,0.49
0.63,0.71,0.47
0.6,0.7,0.47
0.59,0.71,0.48
0.58,0.72,0.45
0.59,0.76,0.42
0.58,0.78,0.39
0.56,0.79,0.37
0.54,0.79,0.35
0.52,0.8,0.32
0.5,0.8,0.28
0.48,0.81,0.25
0.47,0.82,0.2
0.46,0.84,0.16
0.45,0.86,0.12
0.45,0.88,0.09
0.44,0.89,0.07
0.43,0.9,0.05
0.41,0.9,0.02
0.39,0.9,-0.01
0.38,0.9,-0.03
0.36,0.9,-0.05
0.35,0.91,-0.07
0.35,0.91,-0.08
0.34,0.91,-0.08
0.33,0.91,-0.08
0.32,0.91,-0.08
0.31,0.91,-0.08
0.3,0.93,-0.09
0.3,0.94,-0.09
0.29,0.95,-0.09
0.27,0.95,-0.08
0.28,0.94,-0.07
0.28,0.94,-0.06
0.29,0.93,-0.05
0.29,0.93,-0.04
0.29,0.93,-0.04
0.29,0.93,-0.04
0.29,0.94,-0.05
0.3,0.94,-0.06
0.31,0.94,-0.06
0.32,0.93,-0.05
0.32,0.92,-0.04
0.32,0.91,-0.03
0.32,0.9,-0.02
0.3,0.9,0
0.28,0.91,0
0.24,0.92,0
0.23,0.92,-0.02
0.27,0.9,-0.04
0.36,0.84,-0.03
0.46,0.78,0.01
0.51,0.74,0.05
0.51,0.71,0.08
0.53,0.68,-0.04
1.83,-1.05,1.37
2.14,-1.29,1.78
0.09,0.93,0.44
0.34,1.21,0
0.79,1.07,-0.26
0.77,0.98,-0.25
0.69,0.88,-0.12
0.78,0.81,0.03
0.66,0.76,0.24
0.54,0.75,0.38
0.54,0.76,0.41
0.53,0.75,0.38
0.5,0.75,0.33
0.5,0.75,0.29
0.53,0.76,0.27
0.56,0.76,0.27
0.59,0.76,0.28
0.6,0.76,0.29
0.58,0.74,0.31
0.55,0.72,0.31
0.52,0.71,0.31
0.5,0.72,0.3
0.5,0.73,0.29
0.51,0.74,0.29
0.53,0.76,0.3
0.54,0.76,0.3
0.55,0.76,0.3
0.55,0.76,0.31
0.57,0.76,0.31
0.57,0.77,0.3
0.57,0.77,0.29
0.57,0.78,0.27
0.57,0.78,0.27
0.58,0.78,0.26
0.58,0.78,0.27
0.58,0.78,0.27
0.57,0.77,0.28
0.57,0.77,0.28
0.57,0.77,0.28
0.56,0.77,0.28
0.55,0.77,0.28
0.55,0.77,0.28
0.56,0.77,0.27
0.56,0.78,0.27
0.56,0.78,0.27
0.55,0.78,0.27
0.55,0.78,0.28
0.55,0.77,0.28
0.56,0.77,0.28
0.55,0.77,0.28
0.56,0.77,0.27
0.57,0.77,0.27
0.58,0.77,0.27
0.58,0.77,0.26
0.58,0.77,0.26
0.57,0.77,0.26
0.57,0.76,0.27
0.57,0.76,0.28
0.57,0.77,0.28
0.57,0.77,0.28
0.58,0.77,0.28
0.58,0.77,0.27
0.58,0.77,0.27
0.58,0.77,0.27
0.57,0.77,0.28
0.57,0.76,0.28
0.57,0.77,0.28
0.57,0.77,0.28
0.57,0.77,0.28
0.57,0.77,0.27
0.57,0.77,0.27
0.56,0.76,0.28
0.56,0.76,0.28
0.56,0.76,0.28
0.56,0.77,0.28
0.57,0.77,0.28
0.57,0.77,0.27
0.56,0.77,0.27
0.56,0.77,0.27
0.57,0.77,0.27
0.57,0.77,0.27
0.57,0.77,0.27
0.57,0.77,0.28
0.57,0.77,0.28
0.58,0.77,0.27
0.57,0.77,0.27
0.56,0.77,0.27
0.56,0.77,0.27
0.56,0.77,0.27
0.56,0.77,0.27
0.56,0.77,0.27
0.56,0.77,0.28
0.56,0.76,0.28
0.56,0.76,0.28
0.56,0.76,0.27
0.57,0.76,0.27
0.58,0.77,0.27
0.58,0.76,0.27
0.57,0.76,0.27
0.56,0.76,0.27
0.56,0.76,0.28
0.57,0.76,0.28
0.57,0.76,0.29
0.57,0.75,0.3
0.58,0.75,0.31
0.59,0.75,0.32
0.58,0.74,0.35
0.61,0.74,0.38
0.6,0.75,0.38
0.6,0.75,0.39
0.6,0.75,0.41
0.61,0.74,0.39
0.64,0.71,0.37
0.65,0.7,0.37
0.64,0.71,0.37
0.63,0.71,0.37
0.62,0.72,0.38
0.6,0.73,0.39
0.59,0.73,0.39
0.61,0.75,0.37
0.61,0.77,0.34
0.61,0.78,0.31
0.59,0.79,0.28
0.57,0.79,0.26
0.55,0.81,0.23
0.54,0.82,0.18
0.52,0.84,0.14
0.5,0.85,0.11
0.49,0.86,0.08
0.48,0.87,0.05
0.47,0.87,0.02
0.45,0.88,0.01
0.43,0.88,-0.02
0.42,0.88,-0.03
0.41,0.89,-0.04
0.4,0.89,-0.04
0.39,0.89,-0.04
0.38,0.89,-0.04
0.37,0.89,-0.03
0.37,0.9,-0.03
0.36,0.9,-0.03
0.36,0.91,-0.02
0.35,0.91,-0.02
0.35,0.91,-0.02
0.35,0.91,-0.01
0.36,0.9,0
0.36,0.89,0.01
0.37,0.89,0.01
0.38,0.89,0.01
0.38,0.9,0
0.38,0.9,-0.02
0.38,0.91,-0.05
0.38,0.92,-0.08
0.38,0.94,-0.14
0.36,0.98,-0.22
0.34,1,-0.28
0.33,0.99,-0.32
0.35,0.97,-0.34
0.38,0.93,-0.3
0.42,0.86,-0.25
0.42,0.82,-0.18
0.44,0.78,-0.11
1.29,0.26,0.14
2.21,0.23,2.16
0.65,0.43,2.36
-0.56,0.68,0.49
0.02,1.15,0.15
0.47,1.02,0.02
0.66,0.93,0
0.63,0.87,0.02
0.79,0.81,0.04
0.72,0.8,0.15
0.5,0.79,0.28
0.45,0.78,0.35
0.46,0.74,0.37
0.43,0.72,0.36
0.43,0.72,0.33
0.48,0.75,0.3
0.54,0.78,0.27
0.58,0.79,0.26
0.59,0.79,0.26
0.59,0.78,0.27
0.57,0.77,0.29
0.55,0.76,0.29
0.55,0.76,0.28
0.54,0.78,0.28
0.53,0.79,0.28
0.54,0.8,0.29
0.54,0.8,0.3
0.55,0.8,0.31
0.55,0.8,0.32
0.54,0.81,0.32
0.53,0.81,0.31
0.51,0.82,0.3
0.51,0.82,0.3
0.51,0.82,0.3
0.51,0.82,0.3
0.52,0.82,0.3
0.52,0.82,0.3
0.54,0.81,0.29
0.56,0.8,0.28
0.57,0.79,0.28
0.58,0.79,0.28
0.59,0.78,0.27
0.6,0.77,0.27
0.59,0.76,0.26
0.58,0.76,0.26
0.59,0.76,0.26
0.59,0.76,0.27
0.59,0.76,0.28
0.59,0.76,0.29
0.59,0.77,0.31
0.58,0.77,0.31
0.58,0.76,0.31
0.57,0.77,0.3
0.57,0.79,0.29
0.56,0.79,0.29
0.55,0.78,0.29
0.55,0.78,0.29
0.54,0.78,0.29
0.54,0.79,0.28
0.55,0.79,0.28
0.55,0.79,0.27
0.55,0.8,0.27
0.55,0.8,0.26
0.55,0.8,0.26
0.55,0.8,0.25
0.55,0.79,0.25
0.55,0.79,0.25
0.55,0.79,0.24
0.55,0.79,0.24
0.55,0.8,0.23
0.55,0.8,0.23
0.55,0.8,0.23
0.55,0.8,0.23
0.55,0.8,0.23
0.55,0.8,0.23
0.55,0.79,0.22
0.56,0.77,0.22
0.56,0.76,0.22
0.57,0.76,0.22
0.57,0.76,0.22
0.57,0.76,0.23
0.57,0.76,0.24
0.57,0.76,0.24
0.57,0.76,0.24
0.58,0.76,0.23
0.59,0.75,0.23
0.59,0.74,0.24
0.59,0.74,0.24
0.59,0.74,0.24
0.59,0.74,0.24
0.58,0.74,0.24
0.58,0.74,0.23
0.57,0.74,0.23
0.57,0.74,0.22
0.58,0.74,0.21
0.59,0.74,0.22
0.6,0.74,0.23
0.61,0.73,0.24
0.61,0.73,0.24
0.61,0.72,0.25
0.6,0.72,0.24
0.6,0.72,0.23
0.6,0.73,0.22
0.61,0.74,0.21
0.63,0.75,0.21
0.65,0.75,0.22
0.67,0.75,0.22
0.69,0.75,0.25
0.69,0.75,0.27
0.71,0.74,0.27
0.74,0.71,0.26
0.74,0.7,0.26
0.73,0.7,0.26
0.75,0.66,0.24
0.76,0.64,0.23
0.78,0.64,0.19
0.78,0.62,0.16
0.74,0.6,0.17
0.71,0.6,0.17
0.68,0.59,0.17
0.67,0.6,0.17
0.67,0.62,0.16
0.68,0.64,0.14
0.69,0.65,0.14
0.7,0.66,0.14
0.7,0.68,0.15
0.7,0.7,0.15
0.7,0.71,0.14
0.71,0.72,0.14
0.72,0.72,0.15
0.73,0.72,0.15
0.74,0.72,0.16
0.75,0.72,0.16
0.76,0.73,0.15
0.78,0.73,0.14
0.8,0.73,0.13
0.81,0.72,0.13
0.82,0.71,0.13
0.81,0.7,0.15
0.81,0.7,0.16
0.8,0.7,0.16
0.79,0.71,0.17
0.81,0.71,0.17
0.83,0.71,0.18
0.84,0.7,0.2
0.85,0.69,0.21
0.85,0.69,0.23
0.85,0.68,0.25
0.84,0.67,0.27
0.82,0.67,0.29
0.82,0.67,0.3
0.81,0.67,0.3
0.8,0.68,0.31
0.79,0.68,0.31
0.77,0.68,0.31
0.76,0.68,0.3
0.75,0.67,0.3
0.74,0.67,0.3
0.73,0.67,0.3
0.71,0.66,0.3
0.7,0.66,0.31
0.69,0.66,0.31
0.68,0.67,0.31
0.67,0.67,0.31
0.66,0.67,0.3
0.65,0.67,0.3
0.64,0.67,0.3
0.63,0.66,0.31
0.61,0.66,0.31
0.61,0.65,0.3
0.6,0.65,0.3
0.59,0.65,0.3
0.59,0.66,0.3
0.6,0.66,0.31
0.6,0.65,0.33
0.59,0.64,0.35
0.57,0.64,0.35
0.56,0.65,0.35
0.55,0.65,0.34
0.55,0.65,0.34
0.55,0.65,0.36
0.54,0.65,0.37
0.52,0.65,0.38
0.5,0.66,0.39
0.49,0.66,0.4
0.49,0.66,0.41
0.47,0.67,0.42
0.46,0.68,0.43
0.46,0.68,0.43
0.46,0.68,0.44
0.45,0.69,0.44
0.44,0.69,0.45
0.43,0.69,0.45
0.42,0.69,0.46
0.4,0.69,0.46
0.39,0.69,0.45
0.39,0.67,0.43
0.41,0.66,0.43
0.42,0.66,0.44
0.42,0.67,0.46
0.42,0.72,0.49
0.42,0.81,0.53
0.43,0.91,0.59
0.4,0.89,0.67
0.36,0.79,0.7
0.37,0.75,0.67
0.41,0.69,0.52
0.39,0.74,0.48
0.33,0.78,0.44
