Acc_x,Acc_y,Acc_z
0.09,0.95,0.12
0.09,0.94,0.13
0.09,0.94,0.14
0.09,0.94,0.15
0.09,0.94,0.14
0.1,0.93,0.13
0.11,0.93,0.13
0.13,0.93,0.13
0.14,0.92,0.12
0.16,0.92,0.12
0.18,0.91,0.13
0.18,0.9,0.15
0.15,0.89,0.16
0.14,0.87,0.14
0.13,0.86,0.13
0.13,0.86,0.12
0.14,0.84,0.13
0.17,0.82,0.15
0.36,0.7,-0.5
1.94,0.32,1.4
1.27,0.62,2.88
0.32,1.13,1.08
0.76,1.26,0.61
-0.18,0.94,0.72
-0.35,0.35,0.45
-0.11,0.54,0.17
0.17,0.91,-0.06
0.24,1.04,-0.02
0.22,0.96,0.2
0.22,0.86,0.42
0.19,0.92,0.62
0.27,0.87,0.6
0.26,0.8,0.55
0.2,0.8,0.5
0.18,0.82,0.46
0.18,0.83,0.43
0.19,0.82,0.42
0.23,0.83,0.43
0.26,0.86,0.45
0.28,0.87,0.45
0.28,0.88,0.44
0.28,0.88,0.43
0.25,0.88,0.41
0.23,0.86,0.4
0.22,0.84,0.41
0.23,0.83,0.44
0.25,0.84,0.46
0.26,0.85,0.49
0.26,0.85,0.51
0.25,0.85,0.51
0.24,0.85,0.52
0.23,0.85,0.52
0.23,0.84,0.54
0.23,0.84,0.55
0.23,0.85,0.55
0.23,0.85,0.53
0.24,0.84,0.5
0.27,0.83,0.51
0.29,0.84,0.53
0.31,0.85,0.54
0.31,0.85,0.54
0.3,0.85,0.53
0.28,0.85,0.5
0.27,0.86,0.46
0.26,0.86,0.43
0.25,0.87,0.41
0.25,0.87,0.39
0.24,0.87,0.37
0.22,0.88,0.36
0.21,0.89,0.34
0.19,0.9,0.31
0.18,0.91,0.27
0.16,0.9,0.23
0.15,0.91,0.21
0.15,0.91,0.2
0.15,0.92,0.2
0.15,0.93,0.19
0.14,0.93,0.2
0.14,0.93,0.2
0.13,0.94,0.19
0.12,0.94,0.18
0.11,0.94,0.17
0.1,0.94,0.15
0.1,0.94,0.15
0.1,0.95,0.15
0.1,0.95,0.16
0.1,0.95,0.16
0.09,0.96,0.15
0.09,0.96,0.14
0.09,0.96,0.12
0.08,0.96,0.11
0.08,0.96,0.1
0.08,0.95,0.1
0.09,0.96,0.09
0.08,0.96,0.08
0.08,0.95,0.08
0.09,0.95,0.09
0.09,0.96,0.09
0.09,0.95,0.09
0.09,0.94,0.09
0.09,0.94,0.09
0.08,0.94,0.08
0.08,0.93,0.08
0.09,0.92,0.08
0.1,0.92,0.09
0.11,0.9,0.11
0.12,0.88,0.15
0.13,0.87,0.18
0.13,0.86,0.25
0.15,0.85,0.28
0.15,0.83,0.29
0.16,0.81,0.29
0.19,0.8,0.29
0.44,0.6,-0.04
1.52,0.4,1.73
1.23,0.75,2.59
0.33,1.12,1.06
0.17,0.99,0.9
-0.25,0.6,0.8
-0.21,0.49,0.44
-0.03,0.76,0.16
0.15,0.94,0.04
0.2,0.95,0.12
0.21,0.9,0.23
0.23,0.88,0.31
0.21,0.92,0.4
0.25,0.91,0.47
0.35,0.85,0.48
0.37,0.82,0.5
0.32,0.82,0.54
0.26,0.82,0.55
0.23,0.81,0.55
0.2,0.81,0.52
0.2,0.83,0.49
0.2,0.84,0.45
0.23,0.86,0.43
0.24,0.87,0.42
0.24,0.86,0.43
0.24,0.85,0.47
0.23,0.83,0.52
0.23,0.83,0.56
0.24,0.83,0.58
0.24,0.84,0.59
0.22,0.83,0.58
0.21,0.83,0.56
0.22,0.83,0.55
0.22,0.83,0.54
0.23,0.83,0.54
0.26,0.84,0.55
0.27,0.84,0.56
0.27,0.84,0.56
0.28,0.84,0.55
0.28,0.84,0.52
0.29,0.84,0.5
0.3,0.83,0.49
0.29,0.84,0.47
0.27,0.86,0.44
0.26,0.87,0.41
0.25,0.87,0.39
0.23,0.88,0.36
0.21,0.89,0.29
0.21,0.9,0.27
0.2,0.9,0.25
0.18,0.9,0.24
0.18,0.91,0.23
0.17,0.92,0.22
0.16,0.92,0.2
0.16,0.93,0.17
0.15,0.93,0.15
0.14,0.93,0.14
0.13,0.93,0.14
0.13,0.95,0.13
0.13,0.96,0.13
0.13,0.95,0.13
0.13,0.95,0.14
0.12,0.95,0.14
0.11,0.95,0.14
0.11,0.95,0.13
0.1,0.96,0.12
0.09,0.96,0.11
0.09,0.95,0.1
0.09,0.95,0.1
0.09,0.95,0.1
0.08,0.95,0.11
0.08,0.95,0.12
0.08,0.95,0.13
0.09,0.95,0.14
0.1,0.95,0.14
0.1,0.94,0.13
0.12,0.94,0.13
0.14,0.93,0.14
0.16,0.92,0.15
0.16,0.91,0.17
0.17,0.91,0.18
0.17,0.91,0.19
0.17,0.9,0.21
0.19,0.89,0.23
0.21,0.89,0.25
0.2,0.88,0.26
0.17,0.86,0.27
0.17,0.85,0.26
0.18,0.84,0.26
0.19,0.82,0.28
0.2,0.81,0.3
0.38,0.64,0.37
0.87,0.51,1.94
0.69,0.68,2.66
0.69,0.87,1.25
0.68,1.07,0.75
-0.09,0.89,0.73
-0.26,0.51,0.52
-0.05,0.64,0.32
0.13,0.9,0.14
0.19,0.9,0.22
0.2,0.88,0.32
0.24,0.91,0.4
0.27,0.92,0.46
0.26,0.87,0.49
0.24,0.84,0.5
0.23,0.85,0.5
0.22,0.84,0.5
0.21,0.83,0.48
0.2,0.83,0.46
0.22,0.84,0.44
0.25,0.85,0.44
0.27,0.85,0.44
0.27,0.86,0.45
0.26,0.87,0.46
0.26,0.86,0.47
0.24,0.85,0.47
0.22,0.85,0.47
0.21,0.84,0.47
0.22,0.83,0.48
0.22,0.84,0.49
0.22,0.84,0.51
0.22,0.85,0.52
0.22,0.85,0.52
0.23,0.86,0.51
0.24,0.86,0.5
0.26,0.86,0.49
0.27,0.85,0.5
0.3,0.84,0.5
0.28,0.84,0.5
0.27,0.84,0.5
0.25,0.85,0.5
0.23,0.85,0.49
0.22,0.85,0.48
0.21,0.86,0.46
0.2,0.86,0.47
0.19,0.87,0.48
0.18,0.88,0.45
0.19,0.89,0.41
0.18,0.89,0.4
0.17,0.88,0.39
0.15,0.88,0.38
0.15,0.89,0.36
0.15,0.89,0.34
0.14,0.9,0.32
0.14,0.89,0.32
0.15,0.9,0.33
0.13,0.93,0.3
0.12,0.93,0.25
0.13,0.92,0.21
0.14,0.92,0.2
0.13,0.92,0.21
0.13,0.94,0.22
0.13,0.94,0.22
0.13,0.93,0.23
0.13,0.93,0.22
0.12,0.93,0.22
0.12,0.94,0.2
0.11,0.94,0.17
0.11,0.94,0.15
0.1,0.95,0.14
0.09,0.95,0.12
0.09,0.95,0.11
0.1,0.95,0.1
0.11,0.96,0.11
0.1,0.96,0.12
0.1,0.96,0.1
0.1,0.96,0.08
0.09,0.96,0.06
0.07,0.95,0.04
0.09,0.94,0.05
0.09,0.94,0.06
0.08,0.95,0.07
0.1,0.94,0.07
0.13,0.93,0.08
0.13,0.93,0.1
0.11,0.92,0.11
0.11,0.89,0.12
0.11,0.89,0.13
0.1,0.87,0.15
0.1,0.85,0.17
0.1,0.84,0.18
0.15,0.82,0.19
0.23,0.78,0.21
0.96,0.44,0.69
1.29,0.66,2.27
0.8,0.97,1.91
0.31,1.09,0.62
-0.32,1.05,0.74
-0.4,0.44,0.54
-0.05,0.45,0.29
0.2,0.87,0.09
0.27,1.07,0.09
0.2,0.97,0.28
0.19,0.85,0.42
0.22,0.87,0.49
0.19,0.94,0.53
0.19,0.9,0.5
0.21,0.83,0.47
0.2,0.79,0.47
0.2,0.81,0.48
0.21,0.84,0.48
0.21,0.83,0.49
0.21,0.83,0.49
0.21,0.85,0.46
0.22,0.87,0.44
0.23,0.87,0.43
0.24,0.87,0.44
0.24,0.87,0.46
0.23,0.86,0.47
0.21,0.84,0.47
0.2,0.84,0.47
0.2,0.84,0.49
0.2,0.84,0.51
0.22,0.84,0.53
0.21,0.85,0.54
0.21,0.85,0.54
0.23,0.85,0.51
0.23,0.86,0.48
0.24,0.85,0.47
0.24,0.85,0.47
0.24,0.85,0.49
0.24,0.85,0.51
0.24,0.86,0.52
0.23,0.86,0.52
0.22,0.86,0.51
0.23,0.86,0.5
0.23,0.86,0.48
0.22,0.87,0.45
0.2,0.87,0.42
0.19,0.88,0.38
0.16,0.9,0.35
0.16,0.9,0.33
0.15,0.9,0.31
0.15,0.9,0.3
0.15,0.9,0.29
0.15,0.91,0.31
0.14,0.91,0.31
0.15,0.91,0.3
0.16,0.92,0.29
0.16,0.92,0.28
0.16,0.92,0.29
0.15,0.92,0.28
0.14,0.92,0.26
0.14,0.93,0.25
0.14,0.93,0.23
0.14,0.93,0.22
0.13,0.93,0.21
0.13,0.94,0.21
0.12,0.95,0.19
0.11,0.95,0.16
0.11,0.94,0.15
0.1,0.95,0.14
0.09,0.95,0.13
0.08,0.96,0.11
0.08,0.96,0.1
0.08,0.96,0.09
0.07,0.96,0.09
0.07,0.96,0.09
0.06,0.95,0.09
0.06,0.95,0.1
0.06,0.95,0.11
0.08,0.95,0.11
0.08,0.95,0.12
0.07,0.95,0.12
0.08,0.94,0.11
0.1,0.94,0.11
0.11,0.94,0.13
0.09,0.93,0.16
0.09,0.91,0.16
0.11,0.91,0.18
0.1,0.93,0.19
0.08,0.92,0.19
0.09,0.89,0.18
0.1,0.87,0.2
0.11,0.87,0.22
0.13,0.86,0.25
0.15,0.85,0.3
0.14,0.84,0.34
0.14,0.84,0.38
0.18,0.83,0.39
0.21,0.83,0.4
0.33,0.72,0.11
1.09,0.69,2.26
0.24,0.87,1.69
0.53,1.1,0.86
0.14,1,0.76
-0.26,0.56,0.67
-0.23,0.48,0.46
0.01,0.75,0.36
0.15,0.98,0.31
0.15,0.98,0.33
0.15,0.91,0.33
0.16,0.91,0.28
0.17,0.92,0.25
0.2,0.91,0.22
0.25,0.89,0.21
0.27,0.88,0.24
0.28,0.89,0.29
0.27,0.88,0.36
0.25,0.86,0.44
0.23,0.85,0.5
0.21,0.85,0.54
0.21,0.85,0.57
0.2,0.85,0.57
0.19,0.85,0.59
0.19,0.85,0.6
0.19,0.86,0.57
0.2,0.86,0.53
0.19,0.84,0.5
0.17,0.86,0.51
0.14,0.89,0.48
0.15,0.88,0.45
0.17,0.86,0.44
0.18,0.85,0.47
0.17,0.86,0.48
0.2,0.86,0.47
0.24,0.86,0.49
0.24,0.86,0.52
0.25,0.85,0.53
0.24,0.84,0.52
0.23,0.85,0.51
0.22,0.85,0.51
0.22,0.85,0.49
0.2,0.86,0.46
0.2,0.88,0.42
0.19,0.88,0.39
0.19,0.88,0.36
0.19,0.88,0.33
0.19,0.9,0.32
0.17,0.91,0.3
0.16,0.92,0.29
0.16,0.92,0.29
0.16,0.92,0.28
0.15,0.92,0.27
0.15,0.93,0.25
0.14,0.93,0.25
0.13,0.93,0.23
0.14,0.93,0.22
0.15,0.93,0.22
0.15,0.94,0.21
0.14,0.93,0.2
0.14,0.94,0.18
0.13,0.94,0.17
0.13,0.94,0.18
0.12,0.94,0.17
0.12,0.94,0.16
0.12,0.95,0.15
0.11,0.95,0.13
0.11,0.95,0.11
0.1,0.96,0.09
0.09,0.95,0.08
0.08,0.95,0.08
0.08,0.95,0.08
0.1,0.95,0.08
0.11,0.95,0.1
0.1,0.95,0.12
0.1,0.94,0.12
0.11,0.93,0.13
0.1,0.94,0.13
0.08,0.93,0.12
0.08,0.91,0.13
0.12,0.89,0.17
0.17,0.88,0.21
0.2,0.88,0.26
0.18,0.88,0.29
0.15,0.87,0.28
0.14,0.85,0.25
0.15,0.83,0.23
0.16,0.82,0.23
0.29,0.78,0.03
1.22,0.54,0.84
1.35,0.73,2.41
0.5,0.97,1.92
0.1,1.1,0.86
-0.27,1.01,0.8
-0.38,0.5,0.64
-0.23,0.55,0.36
0.02,0.85,0.18
0.11,0.99,0.18
0.1,0.95,0.28
0.17,0.89,0.37
0.17,0.91,0.41
0.18,0.93,0.44
0.23,0.89,0.45
0.25,0.84,0.44
0.25,0.82,0.44
0.24,0.82,0.51
0.19,0.81,0.54
0.17,0.83,0.55
0.15,0.85,0.56
0.15,0.85,0.53
0.16,0.85,0.49
0.17,0.86,0.46
0.18,0.86,0.44
0.19,0.86,0.44
0.19,0.85,0.46
0.18,0.85,0.48
0.18,0.85,0.5
0.17,0.85,0.51
0.16,0.85,0.54
0.14,0.85,0.56
0.13,0.85,0.56
0.15,0.84,0.54
0.17,0.85,0.52
0.17,0.85,0.51
0.17,0.84,0.52
0.2,0.83,0.55
0.22,0.83,0.57
0.22,0.85,0.58
0.21,0.85,0.58
0.21,0.84,0.57
0.22,0.83,0.56
0.23,0.85,0.49
0.22,0.86,0.46
0.22,0.86,0.44
0.21,0.87,0.42
0.2,0.88,0.4
0.18,0.89,0.37
0.19,0.89,0.35
0.19,0.9,0.32
0.17,0.89,0.3
0.16,0.89,0.31
0.16,0.9,0.3
0.16,0.92,0.26
0.16,0.92,0.23
0.15,0.91,0.23
0.15,0.9,0.24
0.14,0.91,0.24
0.15,0.93,0.24
0.15,0.94,0.22
0.15,0.94,0.21
0.14,0.93,0.19
0.14,0.93,0.18
0.14,0.94,0.18
0.14,0.95,0.16
0.12,0.96,0.15
0.12,0.96,0.13
0.12,0.95,0.12
0.11,0.95,0.12
0.09,0.96,0.12
0.09,0.96,0.12
0.09,0.96,0.11
0.1,0.96,0.11
0.1,0.96,0.11
0.09,0.96,0.11
0.08,0.96,0.11
0.08,0.96,0.11
0.08,0.96,0.11
0.08,0.96,0.11
0.08,0.95,0.12
0.09,0.95,0.14
0.09,0.95,0.15
0.1,0.94,0.16
0.11,0.94,0.17
0.12,0.94,0.17
0.13,0.94,0.18
0.13,0.94,0.17
0.13,0.93,0.15
0.12,0.93,0.13
0.11,0.92,0.12
0.12,0.91,0.12
0.14,0.9,0.13
0.16,0.9,0.16
0.16,0.9,0.19
0.15,0.89,0.21
0.15,0.87,0.2
0.14,0.86,0.18
0.16,0.83,0.17
0.42,0.73,-0.29
1.75,0.34,1.55
1.1,0.69,3.01
0.05,1.1,1.36
0.37,1.12,0.64
-0.23,0.93,0.61
-0.42,0.42,0.44
-0.13,0.57,0.26
0.23,0.94,0.1
0.33,1.08,0.11
0.28,0.96,0.24
0.27,0.85,0.33
0.2,0.9,0.4
0.09,0.94,0.47
0.1,0.89,0.48
0.14,0.83,0.5
0.15,0.81,0.54
0.17,0.82,0.55
0.19,0.84,0.54
0.19,0.83,0.51
0.2,0.84,0.49
0.2,0.86,0.46
0.21,0.87,0.4
0.23,0.88,0.4
0.24,0.89,0.4
0.22,0.88,0.42
0.2,0.87,0.43
0.18,0.86,0.43
0.18,0.85,0.43
0.19,0.84,0.48
0.2,0.85,0.53
0.2,0.87,0.56
0.2,0.87,0.58
0.2,0.86,0.57
0.2,0.86,0.55
0.2,0.85,0.51
0.21,0.84,0.48
0.21,0.84,0.47
0.22,0.85,0.49
0.23,0.84,0.51
0.24,0.85,0.53
0.23,0.86,0.54
0.21,0.87,0.53
0.2,0.86,0.51
0.2,0.86,0.48
0.2,0.87,0.44
0.19,0.88,0.41
0.19,0.88,0.38
0.19,0.89,0.36
0.19,0.89,0.36
0.18,0.9,0.36
0.17,0.91,0.35
0.17,0.91,0.33
0.17,0.91,0.3
0.16,0.91,0.26
0.16,0.91,0.24
0.15,0.92,0.22
0.13,0.93,0.2
0.13,0.93,0.18
0.13,0.93,0.17
0.13,0.94,0.17
0.13,0.95,0.17
0.12,0.96,0.16
0.12,0.95,0.15
0.11,0.95,0.15
0.11,0.95,0.15
0.11,0.95,0.15
0.1,0.95,0.14
0.1,0.96,0.13
0.1,0.96,0.12
0.09,0.96,0.11
0.09,0.95,0.1
0.09,0.96,0.09
0.09,0.96,0.09
0.09,0.96,0.09
0.09,0.95,0.1
0.09,0.96,0.11
0.08,0.96,0.11
0.08,0.95,0.11
0.08,0.95,0.12
0.09,0.95,0.12
0.1,0.94,0.11
0.11,0.93,0.12
0.14,0.93,0.15
0.14,0.93,0.17
0.15,0.92,0.18
0.15,0.91,0.19
0.13,0.91,0.19
0.1,0.91,0.17
0.1,0.9,0.15
0.11,0.88,0.14
0.12,0.87,0.15
0.13,0.85,0.17
0.14,0.83,0.2
0.17,0.83,0.25
0.19,0.81,0.31
0.43,0.62,0.33
1.69,0.29,2.14
1.05,0.66,2.56
0.12,1.17,0.82
0.35,1.15,0.56
-0.37,0.74,0.44
-0.19,0.61,0.26
0.17,1.02,0.08
0.25,1.11,0.1
0.21,0.94,0.23
0.21,0.85,0.33
0.17,0.92,0.38
0.12,0.95,0.43
0.12,0.89,0.45
0.14,0.84,0.47
0.16,0.84,0.5
0.19,0.84,0.53
0.21,0.82,0.55
0.22,0.81,0.56
0.22,0.82,0.55
0.22,0.85,0.52
0.22,0.85,0.49
0.22,0.86,0.47
0.21,0.88,0.44
0.22,0.88,0.42
0.2,0.87,0.42
0.18,0.87,0.42
0.17,0.87,0.43
0.17,0.86,0.46
0.17,0.84,0.52
0.17,0.85,0.57
0.16,0.87,0.57
0.16,0.87,0.54
0.18,0.84,0.5
0.2,0.83,0.49
0.21,0.85,0.49
0.23,0.85,0.5
0.23,0.86,0.51
0.23,0.86,0.52
0.22,0.86,0.52
0.22,0.87,0.51
0.21,0.87,0.5
0.2,0.87,0.47
0.2,0.87,0.44
0.2,0.88,0.41
0.19,0.89,0.39
0.18,0.89,0.37
0.18,0.89,0.34
0.18,0.9,0.33
0.17,0.9,0.31
0.16,0.91,0.29
0.16,0.91,0.29
0.16,0.91,0.27
0.16,0.92,0.25
0.16,0.92,0.24
0.15,0.92,0.23
0.13,0.93,0.21
0.12,0.93,0.17
0.13,0.93,0.17
0.13,0.94,0.18
0.13,0.95,0.16
0.12,0.96,0.15
0.12,0.95,0.14
0.11,0.94,0.13
0.1,0.95,0.12
0.1,0.96,0.1
0.08,0.96,0.09
0.08,0.96,0.08
0.08,0.96,0.07
0.08,0.96,0.07
0.08,0.97,0.07
0.07,0.97,0.08
0.07,0.97,0.08
0.06,0.96,0.09
0.07,0.97,0.09
0.07,0.97,0.1
0.07,0.96,0.11
0.08,0.96,0.12
0.08,0.96,0.13
0.08,0.96,0.13
0.08,0.95,0.13
0.09,0.95,0.13
0.1,0.95,0.13
0.11,0.94,0.15
0.11,0.94,0.15
0.11,0.93,0.14
0.11,0.93,0.14
0.11,0.93,0.13
0.1,0.92,0.12
0.1,0.91,0.13
0.1,0.91,0.14
0.11,0.9,0.16
0.14,0.9,0.17
0.17,0.89,0.18
0.18,0.87,0.21
0.18,0.86,0.22
0.17,0.85,0.25
0.18,0.83,0.26
0.23,0.81,0.27
0.33,0.78,0.1
1.32,0.51,1.14
1.53,0.68,2.75
0.44,1.04,1.78
0.2,1.12,0.48
-0.03,0.94,0.58
-0.42,0.44,0.55
-0.3,0.45,0.39
0.05,0.87,0.18
0.29,1.11,0.07
0.33,1.03,0.3
0.22,0.84,0.42
0.18,0.93,0.49
0.2,0.92,0.51
0.2,0.83,0.52
0.19,0.8,0.55
0.2,0.81,0.57
0.22,0.81,0.56
0.23,0.81,0.54
0.23,0.82,0.51
0.23,0.84,0.48
0.24,0.85,0.45
0.25,0.86,0.44
0.27,0.87,0.44
0.28,0.87,0.44
0.27,0.87,0.45
0.24,0.85,0.48
0.23,0.84,0.52
0.21,0.84,0.53
0.21,0.84,0.53
0.22,0.84,0.53
0.21,0.84,0.54
0.21,0.84,0.53
0.25,0.84,0.51
0.28,0.84,0.51
0.29,0.85,0.51
0.3,0.84,0.52
0.26,0.84,0.53
0.25,0.84,0.52
0.24,0.85,0.5
0.24,0.86,0.48
0.24,0.86,0.45
0.23,0.86,0.43
0.22,0.87,0.41
0.21,0.87,0.38
0.21,0.88,0.36
0.21,0.89,0.35
0.2,0.9,0.33
0.19,0.9,0.31
0.19,0.91,0.29
0.18,0.91,0.27
0.18,0.91,0.25
0.17,0.91,0.25
0.16,0.91,0.23
0.16,0.92,0.2
0.16,0.93,0.19
0.15,0.93,0.19
0.14,0.93,0.17
0.14,0.93,0.15
0.14,0.94,0.14
0.13,0.95,0.14
0.11,0.95,0.14
0.11,0.96,0.12
0.11,0.95,0.12
0.1,0.95,0.12
0.1,0.96,0.12
0.1,0.96,0.12
0.1,0.96,0.11
0.1,0.96,0.11
0.1,0.95,0.12
0.09,0.96,0.12
0.09,0.96,0.13
0.09,0.96,0.13
0.09,0.96,0.14
0.09,0.95,0.15
0.08,0.95,0.16
0.08,0.95,0.17
0.09,0.95,0.17
0.09,0.95,0.17
0.1,0.95,0.17
0.1,0.95,0.16
0.1,0.94,0.15
0.12,0.93,0.15
0.15,0.94,0.16
0.15,0.93,0.18
0.14,0.92,0.19
0.15,0.91,0.19
0.15,0.91,0.19
0.13,0.91,0.18
0.11,0.89,0.16
0.13,0.88,0.17
0.15,0.87,0.19
0.16,0.87,0.21
0.18,0.86,0.23
0.19,0.85,0.24
0.19,0.84,0.23
0.62,0.56,0.36
1.22,0.37,2.23
0.65,0.8,2.3
0.33,1.17,0.56
0.17,1,0.55
-0.44,0.56,0.49
-0.28,0.44,0.34
0.08,0.79,0.19
0.3,1.06,0.08
0.38,1.05,0.14
0.31,0.9,0.27
0.2,0.85,0.38
0.12,0.91,0.46
0.14,0.92,0.49
0.18,0.85,0.5
0.19,0.81,0.53
0.22,0.81,0.54
0.25,0.83,0.53
0.24,0.83,0.51
0.23,0.82,0.47
0.23,0.86,0.44
0.24,0.87,0.42
0.25,0.88,0.41
0.25,0.88,0.4
0.24,0.87,0.41
0.23,0.87,0.44
0.22,0.85,0.46
0.23,0.85,0.48
0.23,0.85,0.51
0.23,0.84,0.53
0.22,0.84,0.54
0.22,0.85,0.53
0.22,0.86,0.51
0.23,0.85,0.49
0.26,0.85,0.47
0.29,0.85,0.47
0.3,0.85,0.48
0.29,0.84,0.49
0.29,0.84,0.51
0.28,0.85,0.52
0.25,0.85,0.53
0.23,0.85,0.53
0.21,0.86,0.52
0.19,0.87,0.48
0.2,0.87,0.45
0.2,0.87,0.41
0.19,0.88,0.4
0.18,0.9,0.38
0.18,0.89,0.36
0.17,0.89,0.35
0.15,0.9,0.34
0.15,0.91,0.31
0.15,0.91,0.28
0.15,0.91,0.26
0.15,0.92,0.23
0.15,0.92,0.2
0.14,0.92,0.18
0.13,0.93,0.16
0.13,0.94,0.15
0.13,0.94,0.14
0.12,0.94,0.14
0.12,0.96,0.12
0.12,0.96,0.1
0.11,0.96,0.09
0.09,0.96,0.08
0.09,0.97,0.07
0.08,0.97,0.05
0.07,0.97,0.04
0.07,0.96,0.04
0.07,0.96,0.06
0.08,0.97,0.08
0.08,0.96,0.11
0.08,0.96,0.12
0.08,0.95,0.13
0.09,0.95,0.14
0.09,0.95,0.15
0.08,0.95,0.15
0.08,0.94,0.14
0.09,0.93,0.14
0.1,0.93,0.15
0.11,0.93,0.17
0.11,0.92,0.18
0.12,0.9,0.2
0.13,0.88,0.24
0.13,0.87,0.28
0.12,0.89,0.33
0.11,0.93,0.33
0.12,0.93,0.29
0.14,0.91,0.25
0.16,0.89,0.23
0.17,0.88,0.23
0.19,0.88,0.23
0.2,0.86,0.24
0.19,0.84,0.28
0.18,0.83,0.31
0.32,0.78,0.04
1.23,0.65,1.03
0.98,0.78,1.59
0.54,1.05,0.55
0.13,0.99,0.47
-0.4,0.6,0.41
-0.27,0.52,0.33
0.05,0.82,0.23
0.23,1.04,0.18
0.29,1,0.23
0.29,0.91,0.31
0.22,0.88,0.4
0.16,0.89,0.48
0.2,0.89,0.49
0.25,0.86,0.47
0.25,0.83,0.48
0.24,0.82,0.5
0.23,0.82,0.51
0.21,0.82,0.5
0.2,0.83,0.5
0.2,0.85,0.49
0.2,0.86,0.46
0.21,0.86,0.44
0.22,0.87,0.43
0.22,0.88,0.42
0.21,0.88,0.41
0.2,0.86,0.4
0.2,0.85,0.4
0.2,0.85,0.41
0.21,0.86,0.46
0.21,0.86,0.48
0.21,0.87,0.49
0.22,0.87,0.47
0.21,0.86,0.46
0.2,0.86,0.47
0.2,0.86,0.48
0.2,0.86,0.48
0.2,0.86,0.48
0.2,0.85,0.46
0.21,0.85,0.45
0.2,0.85,0.45
0.2,0.86,0.47
0.2,0.86,0.47
0.18,0.86,0.48
0.17,0.85,0.5
0.18,0.87,0.51
0.21,0.87,0.49
0.24,0.87,0.47
0.26,0.87,0.48
0.26,0.86,0.5
0.25,0.87,0.51
0.26,0.88,0.5
0.26,0.88,0.48
0.26,0.9,0.46
0.25,0.9,0.44
0.24,0.88,0.42
0.25,0.89,0.43
0.24,0.87,0.43
0.24,0.85,0.41
0.25,0.87,0.39
0.26,0.89,0.36
0.25,0.89,0.34
0.24,0.91,0.32
0.25,0.93,0.3
0.26,0.95,0.28
0.26,0.96,0.27
0.25,0.98,0.27
0.25,0.98,0.26
0.25,0.98,0.25
0.24,0.98,0.24
0.24,0.98,0.21
0.24,0.98,0.18
0.24,0.98,0.16
0.23,0.98,0.14
0.23,0.97,0.11
0.23,0.96,0.09
0.22,0.95,0.06
0.22,0.95,0.04
0.22,0.94,0.03
0.21,0.92,0.03
0.2,0.91,0.03
0.2,0.9,0.04
0.18,0.89,0.04
0.16,0.89,0.04
0.17,0.88,0.05
0.18,0.87,0.05
0.17,0.86,0.06
0.18,0.84,0.08
0.18,0.82,0.09
0.17,0.81,0.11
0.17,0.8,0.13
0.17,0.8,0.15
0.16,0.81,0.16
0.14,0.82,0.16
0.13,0.81,0.15
0.13,0.8,0.17
0.12,0.78,0.21
0.12,0.76,0.25
0.15,0.74,0.29
0.19,0.75,0.33
0.19,0.74,0.34
0.18,0.73,0.32
0.25,0.73,0.2
0.94,0.43,0.86
1.3,0.38,1.98
0.95,0.47,1.45
0.4,0.75,0.52
-0.1,0.91,0.16
0.27,0.82,-0.04
0.42,0.9,-0.06
0.37,0.92,0.1
0.29,0.89,0.32
0.34,0.86,0.48
0.41,0.89,0.53
0.38,0.94,0.48
0.33,0.98,0.4
0.3,0.97,0.35
0.29,0.95,0.33
0.3,0.93,0.34
0.32,0.92,0.37
0.33,0.91,0.39
0.33,0.91,0.39
0.34,0.92,0.39
0.35,0.92,0.38
0.35,0.91,0.36
0.34,0.91,0.34
0.33,0.9,0.32
0.33,0.9,0.31
0.33,0.9,0.3
0.32,0.92,0.3
0.31,0.93,0.29
0.32,0.93,0.29
0.32,0.93,0.31
0.32,0.93,0.32
0.3,0.92,0.32
0.29,0.91,0.31
0.29,0.9,0.3
0.28,0.9,0.3
0.27,0.91,0.31
0.27,0.91,0.31
0.27,0.91,0.33
0.27,0.92,0.35
0.26,0.92,0.37
0.25,0.92,0.37
0.25,0.93,0.36
0.24,0.94,0.35
0.22,0.94,0.34
0.21,0.94,0.34
0.21,0.93,0.33
0.23,0.93,0.34
0.25,0.93,0.36
0.24,0.93,0.38
0.24,0.92,0.38
0.26,0.93,0.37
0.28,0.94,0.36
0.28,0.93,0.34
0.27,0.93,0.33
0.25,0.93,0.33
0.24,0.93,0.33
0.23,0.93,0.37
0.17,0.94,0.37
0.12,0.95,0.35
0.08,0.96,0.3
0.05,0.96,0.25
0.02,0.98,0.23
-0.03,0.98,0.21
-0.08,0.98,0.18
-0.12,0.99,0.15
-0.16,1.02,0.12
-0.19,1.04,0.09
-0.2,1.04,0.07
-0.21,1.06,0.07
-0.24,1.07,0.07
-0.27,1.08,0.05
-0.28,1.08,0.03
-0.29,1.08,0
-0.29,1.06,-0.02
-0.29,1.03,-0.05
-0.27,1.01,-0.07
-0.25,0.98,-0.09
-0.21,0.96,-0.08
-0.17,0.94,-0.06
-0.14,0.92,-0.05
-0.11,0.92,-0.04
-0.08,0.93,-0.04
-0.06,0.94,-0.04
0,0.96,-0.03
0.03,0.95,-0.03
0.05,0.95,-0.02
0.06,0.94,0
0.07,0.94,0.02
0.08,0.93,0.04
0.08,0.93,0.06
0.06,0.94,0.07
0.06,0.94,0.07
0.07,0.94,0.08
0.07,0.95,0.1
0.04,0.95,0.12
0.02,0.95,0.13
0.01,0.95,0.15
0,0.95,0.17
0,0.93,0.18
0.05,0.9,0.21
0.11,0.88,0.24
0.14,0.87,0.26
0.4,0.65,0.53
0.84,0.18,2.39
0.39,0.21,2.2
0.37,0.7,0.25
0.31,1.23,0.14
-0.36,1.28,0.24
0.03,0.91,0.21
0.5,0.95,0.13
0.34,1.02,0.26
0.26,1.02,0.36
0.21,0.99,0.4
0.12,0.97,0.42
0.08,0.94,0.4
0.09,0.91,0.39
0.09,0.9,0.39
0.12,0.91,0.4
0.19,0.91,0.42
0.24,0.91,0.42
0.26,0.9,0.42
0.26,0.89,0.41
0.25,0.87,0.4
0.21,0.86,0.4
0.17,0.85,0.4
0.14,0.84,0.42
0.13,0.83,0.43
0.14,0.83,0.45
0.16,0.83,0.49
0.16,0.83,0.51
0.16,0.84,0.51
0.16,0.85,0.49
0.16,0.85,0.47
0.18,0.86,0.46
0.21,0.86,0.46
0.23,0.86,0.5
0.23,0.86,0.52
0.23,0.86,0.53
0.23,0.86,0.53
0.22,0.87,0.51
0.21,0.88,0.48
0.19,0.89,0.46
0.18,0.89,0.45
0.17,0.89,0.44
0.15,0.89,0.43
0.13,0.89,0.4
0.12,0.89,0.37
0.1,0.9,0.35
0.09,0.9,0.32
0.09,0.9,0.29
0.08,0.91,0.26
0.06,0.91,0.23
0.04,0.91,0.21
0.01,0.91,0.2
-0.01,0.91,0.19
-0.03,0.91,0.19
-0.04,0.92,0.19
-0.05,0.93,0.19
-0.06,0.94,0.19
-0.07,0.95,0.19
-0.07,0.96,0.2
-0.08,0.97,0.19
-0.11,0.97,0.19
-0.13,0.97,0.19
-0.15,0.97,0.18
-0.15,0.97,0.17
-0.16,0.96,0.15
-0.17,0.96,0.14
-0.19,0.95,0.13
-0.2,0.95,0.12
-0.2,0.95,0.1
-0.21,0.94,0.1
-0.2,0.94,0.11
-0.21,0.94,0.12
-0.21,0.94,0.12
-0.2,0.95,0.12
-0.2,0.95,0.13
-0.2,0.95,0.13
-0.18,0.95,0.13
-0.16,0.95,0.14
-0.13,0.95,0.15
-0.11,0.95,0.17
-0.09,0.94,0.17
-0.06,0.93,0.16
-0.04,0.93,0.17
-0.03,0.92,0.18
-0.04,0.9,0.2
-0.03,0.9,0.23
0,0.91,0.24
0,0.9,0.23
-0.01,0.9,0.23
-0.01,0.91,0.24
0,0.9,0.25
0.01,0.89,0.28
0.01,0.86,0.33
0.03,0.85,0.39
0.22,0.58,0.16
1.44,0.19,1.94
0.97,0.35,2.74
0.02,0.77,1.02
0.16,1.03,0.54
-0.36,0.97,0.51
-0.26,0.72,0.4
0.11,0.75,0.31
0.22,0.88,0.3
0.17,0.87,0.38
0.15,0.83,0.47
0.13,0.84,0.52
0.07,0.85,0.54
0.01,0.84,0.55
-0.04,0.83,0.57
-0.07,0.81,0.6
-0.05,0.8,0.6
0.01,0.81,0.54
0.08,0.8,0.53
0.09,0.8,0.51
0.09,0.8,0.49
0.06,0.81,0.48
0.04,0.81,0.49
0.03,0.82,0.5
0.03,0.83,0.52
0.05,0.84,0.53
0.06,0.84,0.53
0.07,0.85,0.52
0.08,0.85,0.51
0.08,0.84,0.51
0.07,0.84,0.52
0.06,0.84,0.53
0.06,0.83,0.55
0.06,0.84,0.56
0.06,0.84,0.58
0.05,0.83,0.61
0.04,0.82,0.62
0.05,0.82,0.62
0.09,0.8,0.63
0.12,0.77,0.67
0.15,0.76,0.7
0.17,0.76,0.74
0.16,0.78,0.74
0.16,0.8,0.67
0.14,0.84,0.64
0.13,0.86,0.59
0.12,0.88,0.55
0.1,0.89,0.51
0.09,0.88,0.49
0.08,0.87,0.46
0.07,0.87,0.44
0.05,0.87,0.41
0.02,0.87,0.35
-0.01,0.88,0.27
-0.03,0.91,0.21
-0.06,0.91,0.16
-0.07,0.92,0.14
-0.07,0.93,0.12
-0.08,0.93,0.08
-0.09,0.93,0.07
-0.11,0.93,0.08
-0.12,0.93,0.1
-0.13,0.94,0.11
-0.14,0.95,0.11
-0.15,0.95,0.1
-0.15,0.96,0.1
-0.16,0.96,0.11
-0.16,0.96,0.12
-0.16,0.96,0.14
-0.16,0.96,0.17
-0.16,0.97,0.18
-0.15,0.97,0.18
-0.13,0.97,0.19
-0.13,0.97,0.22
-0.13,0.96,0.24
-0.12,0.96,0.25
-0.1,0.96,0.24
-0.08,0.95,0.24
-0.07,0.94,0.22
-0.06,0.94,0.22
-0.05,0.93,0.22
-0.04,0.93,0.22
-0.03,0.93,0.21
-0.02,0.92,0.21
-0.02,0.92,0.22
-0.02,0.91,0.22
-0.02,0.91,0.23
-0.02,0.91,0.24
-0.03,0.91,0.25
-0.03,0.9,0.26
-0.01,0.88,0.28
0,0.87,0.31
0.02,0.85,0.36
0.02,0.83,0.42
0.09,0.61,0.35
1.09,0.29,2.7
0.17,0.71,1.53
0.13,0.99,0.71
-0.36,0.94,0.59
-0.48,0.75,0.46
-0.12,0.77,0.3
0.15,0.89,0.2
0.19,0.91,0.26
0.18,0.86,0.38
0.2,0.88,0.45
0.14,0.9,0.5
0.07,0.87,0.52
0.03,0.83,0.56
-0.01,0.81,0.61
-0.01,0.8,0.61
0,0.8,0.6
0.01,0.8,0.57
0.02,0.8,0.54
0.05,0.81,0.52
0.07,0.82,0.49
0.08,0.83,0.48
0.07,0.84,0.49
0.06,0.84,0.51
0.04,0.84,0.53
0.04,0.83,0.55
0.05,0.83,0.56
0.05,0.83,0.55
0.06,0.84,0.52
0.07,0.84,0.5
0.07,0.84,0.5
0.06,0.84,0.51
0.05,0.84,0.52
0.05,0.83,0.54
0.04,0.83,0.56
0.05,0.82,0.59
0.05,0.83,0.64
0.03,0.83,0.67
0.04,0.82,0.67
0.07,0.82,0.63
0.09,0.8,0.6
0.14,0.79,0.6
0.18,0.8,0.62
0.16,0.8,0.65
0.14,0.8,0.67
0.16,0.82,0.66
0.15,0.85,0.63
0.11,0.85,0.59
0.07,0.85,0.55
0.04,0.86,0.51
0.02,0.87,0.49
0,0.86,0.45
-0.02,0.86,0.4
-0.04,0.87,0.37
-0.07,0.88,0.32
-0.12,0.89,0.3
-0.12,0.89,0.27
-0.13,0.89,0.25
-0.14,0.89,0.25
-0.15,0.88,0.25
-0.16,0.89,0.24
-0.18,0.91,0.21
-0.19,0.92,0.18
-0.2,0.92,0.17
-0.2,0.93,0.16
-0.2,0.93,0.17
-0.19,0.92,0.19
-0.18,0.92,0.21
-0.17,0.93,0.24
-0.17,0.93,0.25
-0.17,0.93,0.24
-0.16,0.93,0.24
-0.14,0.93,0.25
-0.13,0.92,0.28
-0.11,0.92,0.3
-0.09,0.91,0.31
-0.05,0.92,0.31
-0.03,0.92,0.31
-0.03,0.92,0.3
-0.02,0.93,0.29
-0.01,0.94,0.26
0,0.94,0.26
-0.03,0.94,0.25
-0.04,0.93,0.23
-0.05,0.93,0.24
-0.07,0.92,0.26
-0.1,0.9,0.3
-0.11,0.87,0.35
-0.09,0.85,0.4
-0.04,0.82,0.3
0.46,0.66,0.5
1.08,0.39,2.17
0.52,0.4,2.55
0.15,0.79,1.2
0.1,0.99,0.76
-0.47,0.8,0.61
-0.37,0.68,0.46
-0.07,0.79,0.35
-0.01,0.87,0.34
0.04,0.83,0.38
0.12,0.83,0.42
0.12,0.85,0.47
0.05,0.84,0.54
-0.02,0.8,0.59
-0.07,0.78,0.63
-0.1,0.76,0.65
-0.1,0.75,0.62
-0.04,0.75,0.6
0,0.76,0.57
0.01,0.77,0.55
0.01,0.78,0.53
0,0.8,0.53
-0.01,0.81,0.53
-0.01,0.82,0.55
0,0.83,0.57
0.01,0.83,0.58
0.01,0.83,0.58
0.01,0.83,0.57
0.02,0.83,0.57
0.03,0.84,0.56
0.03,0.84,0.55
0.03,0.84,0.54
0.03,0.83,0.54
0.02,0.83,0.55
0.01,0.82,0.56
0.01,0.81,0.57
0.01,0.81,0.58
0.01,0.81,0.58
0.01,0.79,0.59
0.01,0.79,0.62
0.01,0.8,0.63
0,0.8,0.62
0,0.8,0.62
0,0.78,0.67
0,0.77,0.72
-0.01,0.77,0.72
0,0.77,0.68
0.03,0.76,0.65
0.07,0.77,0.61
0.09,0.79,0.59
0.09,0.8,0.6
0.07,0.81,0.61
0.06,0.82,0.61
0.05,0.82,0.61
0.04,0.82,0.6
0.03,0.82,0.56
0.01,0.84,0.52
0,0.85,0.48
-0.02,0.86,0.44
-0.05,0.88,0.4
-0.06,0.89,0.37
-0.08,0.9,0.33
-0.09,0.91,0.3
-0.11,0.91,0.28
-0.12,0.92,0.26
-0.13,0.92,0.24
-0.14,0.92,0.24
-0.16,0.91,0.24
-0.17,0.92,0.23
-0.18,0.93,0.21
-0.19,0.93,0.2
-0.19,0.93,0.2
-0.2,0.94,0.2
-0.21,0.93,0.2
-0.22,0.93,0.2
-0.23,0.94,0.21
-0.22,0.94,0.2
-0.2,0.93,0.2
-0.19,0.93,0.2
-0.19,0.93,0.22
-0.19,0.92,0.23
-0.18,0.93,0.23
-0.16,0.94,0.23
-0.14,0.94,0.22
-0.11,0.94,0.21
-0.11,0.93,0.21
-0.12,0.92,0.22
-0.12,0.92,0.21
-0.11,0.93,0.19
-0.12,0.93,0.18
-0.14,0.92,0.19
-0.14,0.9,0.2
-0.14,0.89,0.23
-0.15,0.86,0.26
-0.16,0.84,0.35
-0.1,0.8,0.34
0.41,0.53,0.58
1.28,0.2,2.42
0.5,0.48,2.23
-0.17,0.96,0.41
-0.06,1.08,0.45
-0.48,0.87,0.51
-0.24,0.66,0.38
0.15,0.76,0.25
0.21,0.91,0.28
0.13,0.86,0.45
0.13,0.79,0.58
0.13,0.82,0.58
0.05,0.85,0.56
-0.08,0.82,0.56
-0.16,0.79,0.59
-0.17,0.78,0.6
-0.1,0.79,0.6
-0.02,0.8,0.58
0.01,0.79,0.57
0.02,0.78,0.56
0.02,0.78,0.55
-0.01,0.8,0.53
-0.03,0.81,0.52
-0.04,0.81,0.52
-0.03,0.82,0.57
0,0.83,0.57
0.01,0.83,0.56
0.02,0.82,0.55
0.02,0.82,0.54
0.03,0.82,0.54
0.03,0.82,0.54
0.03,0.82,0.54
0.02,0.83,0.56
0.02,0.83,0.57
0.02,0.83,0.57
0.02,0.84,0.59
0,0.83,0.61
-0.01,0.81,0.63
0,0.82,0.61
0.01,0.83,0.57
0.01,0.8,0.53
0,0.78,0.52
-0.02,0.8,0.52
0,0.81,0.52
0.03,0.81,0.54
0.04,0.81,0.58
0.05,0.81,0.63
0.03,0.81,0.65
0.02,0.82,0.64
0.02,0.83,0.62
0.01,0.84,0.6
0,0.85,0.56
-0.01,0.85,0.54
-0.01,0.85,0.52
-0.02,0.86,0.51
-0.02,0.86,0.49
-0.03,0.86,0.48
-0.04,0.87,0.46
-0.05,0.87,0.45
-0.06,0.87,0.43
-0.07,0.87,0.42
-0.08,0.87,0.4
-0.09,0.88,0.38
-0.1,0.88,0.36
-0.1,0.89,0.34
-0.11,0.9,0.32
-0.11,0.9,0.3
-0.12,0.9,0.29
-0.13,0.9,0.28
-0.14,0.91,0.27
-0.14,0.91,0.27
-0.15,0.92,0.27
-0.15,0.92,0.27
-0.14,0.92,0.28
-0.14,0.91,0.29
-0.14,0.91,0.29
-0.14,0.91,0.3
-0.14,0.91,0.3
-0.13,0.92,0.3
-0.11,0.92,0.3
-0.1,0.92,0.3
-0.08,0.91,0.29
-0.07,0.91,0.29
-0.08,0.9,0.29
-0.1,0.9,0.29
-0.12,0.9,0.27
-0.13,0.91,0.25
-0.16,0.91,0.23
-0.17,0.9,0.23
-0.16,0.88,0.24
-0.15,0.85,0.28
-0.13,0.83,0.36
-0.09,0.8,0.45
0.11,0.72,0.28
1.39,0.39,1.93
0.99,0.34,2.86
-0.06,0.63,1.13
0.17,0.95,0.36
-0.36,1.03,0.44
-0.48,0.73,0.49
-0.11,0.65,0.4
0.17,0.84,0.3
0.21,0.92,0.36
0.2,0.82,0.59
0.17,0.85,0.62
0.06,0.84,0.62
-0.02,0.81,0.62
-0.06,0.79,0.61
-0.03,0.78,0.6
0.04,0.79,0.58
0.08,0.79,0.57
0.1,0.79,0.56
0.09,0.79,0.55
0.06,0.79,0.54
0.03,0.8,0.54
0.01,0.8,0.55
0.01,0.81,0.57
0.02,0.81,0.59
0.03,0.81,0.59
0.04,0.81,0.58
0.04,0.81,0.56
0.04,0.8,0.56
0.03,0.81,0.55
0.03,0.81,0.54
0.04,0.81,0.54
0.03,0.82,0.55
0.03,0.82,0.55
0.03,0.82,0.57
0.04,0.82,0.59
0.05,0.81,0.6
0.05,0.81,0.6
0.04,0.81,0.59
0.04,0.81,0.59
0.04,0.81,0.6
0.03,0.81,0.61
0.03,0.8,0.64
0.05,0.77,0.68
0.07,0.78,0.72
0.1,0.79,0.74
0.14,0.79,0.72
0.16,0.79,0.69
0.17,0.81,0.66
0.17,0.83,0.63
0.17,0.83,0.61
0.14,0.84,0.58
0.11,0.85,0.56
0.08,0.85,0.54
0.05,0.85,0.52
0.03,0.85,0.48
0.02,0.85,0.43
0,0.86,0.39
-0.03,0.87,0.36
-0.05,0.88,0.33
-0.07,0.89,0.31
-0.09,0.89,0.3
-0.11,0.89,0.28
-0.14,0.9,0.27
-0.15,0.9,0.26
-0.16,0.91,0.24
-0.17,0.91,0.25
-0.17,0.91,0.25
-0.17,0.91,0.25
-0.18,0.92,0.25
-0.19,0.92,0.25
-0.21,0.92,0.24
-0.22,0.92,0.24
-0.22,0.92,0.24
-0.23,0.92,0.23
-0.22,0.91,0.23
-0.22,0.92,0.24
-0.21,0.92,0.24
-0.21,0.92,0.24
-0.22,0.93,0.23
-0.21,0.93,0.23
-0.22,0.93,0.23
-0.22,0.93,0.22
-0.2,0.93,0.2
-0.18,0.94,0.18
-0.18,0.94,0.17
-0.17,0.92,0.17
-0.14,0.92,0.18
-0.15,0.92,0.17
-0.19,0.88,0.17
-0.16,0.88,0.17
-0.16,0.87,0.2
-0.16,0.86,0.24
-0.14,0.84,0.28
-0.12,0.83,0.31
0.02,0.74,-0.31
1.78,0.27,1.48
1.5,0.34,3.02
0.08,0.77,1.2
0.11,0.96,0.41
-0.57,1.02,0.53
-0.49,0.74,0.43
0.02,0.73,0.28
0.29,0.9,0.22
0.19,0.9,0.38
0.1,0.82,0.56
0.13,0.84,0.61
0.05,0.88,0.59
-0.08,0.85,0.57
-0.12,0.82,0.56
-0.14,0.8,0.56
-0.12,0.8,0.56
-0.05,0.8,0.56
0,0.8,0.57
0.01,0.79,0.56
-0.01,0.79,0.55
-0.03,0.8,0.53
-0.03,0.81,0.53
-0.03,0.82,0.54
-0.01,0.83,0.55
0,0.82,0.57
0.01,0.82,0.58
0.02,0.82,0.58
0.02,0.82,0.57
0.03,0.82,0.56
0.03,0.82,0.56
0.03,0.81,0.58
0.03,0.81,0.59
0.04,0.81,0.6
0.03,0.81,0.61
0.02,0.8,0.64
0.02,0.8,0.67
0.01,0.81,0.69
-0.01,0.8,0.69
0,0.79,0.65
0.04,0.78,0.6
0.06,0.79,0.59
0.08,0.81,0.6
0.09,0.83,0.61
0.08,0.84,0.62
0.05,0.84,0.61
0.02,0.84,0.58
0,0.85,0.55
-0.01,0.85,0.54
-0.03,0.86,0.52
-0.03,0.87,0.47
-0.03,0.88,0.42
-0.04,0.88,0.38
-0.06,0.89,0.36
-0.08,0.89,0.34
-0.09,0.89,0.31
-0.09,0.9,0.29
-0.08,0.9,0.27
-0.09,0.9,0.27
-0.11,0.9,0.28
-0.11,0.9,0.3
-0.12,0.89,0.31
-0.13,0.9,0.31
-0.14,0.9,0.3
-0.15,0.9,0.29
-0.15,0.9,0.28
-0.17,0.91,0.26
-0.18,0.92,0.24
-0.19,0.92,0.24
-0.19,0.92,0.24
-0.19,0.92,0.22
-0.19,0.92,0.22
-0.2,0.92,0.22
-0.21,0.92,0.22
-0.21,0.92,0.22
-0.22,0.92,0.22
-0.22,0.92,0.22
-0.23,0.92,0.21
-0.23,0.92,0.2
-0.23,0.93,0.19
-0.23,0.92,0.2
-0.23,0.91,0.2
-0.22,0.91,0.22
-0.21,0.91,0.22
-0.2,0.9,0.22
-0.19,0.9,0.22
-0.17,0.9,0.23
-0.16,0.9,0.24
-0.17,0.9,0.23
-0.16,0.91,0.22
-0.15,0.93,0.22
-0.14,0.92,0.22
-0.12,0.92,0.24
-0.12,0.93,0.26
-0.15,0.92,0.26
-0.17,0.89,0.26
-0.18,0.86,0.27
-0.18,0.82,0.31
-0.08,0.61,-0.53
1.02,0.3,1.22
1.16,0.37,2.76
0.35,0.84,1.18
-0.21,1.05,0.71
-0.73,0.86,0.54
-0.43,0.73,0.34
-0.1,0.8,0.25
-0.01,0.82,0.31
0.07,0.81,0.42
0.1,0.84,0.5
0.01,0.84,0.56
-0.09,0.81,0.6
-0.1,0.79,0.61
-0.1,0.77,0.61
-0.13,0.75,0.61
-0.13,0.74,0.61
-0.09,0.75,0.59
-0.06,0.76,0.57
-0.04,0.77,0.56
-0.03,0.77,0.54
-0.01,0.78,0.54
-0.03,0.8,0.55
-0.05,0.81,0.56
-0.07,0.82,0.56
-0.06,0.83,0.57
-0.04,0.83,0.61
-0.01,0.83,0.62
0,0.83,0.61
-0.01,0.83,0.58
-0.02,0.83,0.55
-0.02,0.82,0.53
-0.02,0.82,0.52
-0.03,0.82,0.53
-0.04,0.82,0.54
-0.04,0.81,0.55
-0.03,0.8,0.56
-0.03,0.79,0.56
-0.03,0.79,0.56
-0.03,0.8,0.56
-0.02,0.8,0.57
-0.01,0.81,0.57
-0.02,0.81,0.57
-0.03,0.8,0.55
-0.03,0.81,0.53
-0.03,0.81,0.53
-0.03,0.81,0.55
-0.03,0.81,0.56
-0.02,0.82,0.57
-0.02,0.82,0.57
-0.02,0.82,0.58
-0.02,0.81,0.58
-0.02,0.81,0.59
-0.02,0.81,0.63
-0.02,0.8,0.71
-0.01,0.8,0.78
-0.03,0.8,0.79
-0.07,0.77,0.74
-0.05,0.75,0.67
-0.01,0.76,0.62
0.04,0.77,0.63
0.1,0.77,0.65
0.1,0.8,0.65
0.06,0.81,0.63
0.02,0.82,0.58
0.02,0.83,0.54
0.01,0.84,0.51
-0.03,0.85,0.48
-0.06,0.85,0.43
-0.07,0.86,0.39
-0.07,0.88,0.34
-0.09,0.9,0.3
-0.1,0.9,0.26
-0.11,0.91,0.24
-0.12,0.91,0.23
-0.13,0.91,0.23
-0.14,0.91,0.22
-0.14,0.92,0.21
-0.14,0.92,0.18
-0.16,0.93,0.15
-0.17,0.94,0.13
-0.18,0.95,0.12
-0.18,0.95,0.13
-0.18,0.95,0.13
-0.17,0.95,0.14
-0.17,0.94,0.15
-0.16,0.93,0.15
-0.14,0.93,0.16
-0.12,0.91,0.17
-0.11,0.89,0.19
-0.1,0.88,0.2
-0.07,0.87,0.25
-0.06,0.86,0.3
-0.08,0.85,0.36
-0.09,0.84,0.42
-0.11,0.86,0.46
-0.13,0.88,0.47
-0.12,0.86,0.43
0.17,0.77,0.47
1.14,0.4,2.16
0.68,0.31,2.73
-0.12,0.67,1.25
0.18,0.96,0.69
-0.05,0.99,0.5
-0.2,0.77,0.29
0.14,0.86,0.23
0.14,0.87,0.32
0.09,0.82,0.48
0.06,0.79,0.61
0.03,0.79,0.68
0.04,0.79,0.68
0.02,0.79,0.65
-0.03,0.79,0.61
-0.02,0.78,0.57
0.02,0.79,0.55
0.04,0.8,0.55
0.05,0.79,0.56
0.06,0.79,0.55
0.04,0.8,0.55
0.02,0.82,0.54
0.01,0.82,0.55
0,0.82,0.57
0,0.82,0.58
0.01,0.82,0.58
0.03,0.82,0.6
0.04,0.82,0.6
0.05,0.81,0.59
0.05,0.8,0.59
0.04,0.8,0.59
0.03,0.81,0.61
0.03,0.8,0.66
0.05,0.79,0.67
0.05,0.77,0.67
0.06,0.76,0.67
0.08,0.77,0.66
0.11,0.78,0.65
0.13,0.78,0.65
0.12,0.78,0.64
0.11,0.79,0.62
0.1,0.8,0.61
0.07,0.82,0.58
0.05,0.83,0.55
0.04,0.84,0.55
0.01,0.84,0.54
-0.02,0.84,0.53
-0.03,0.86,0.49
-0.04,0.87,0.46
-0.06,0.88,0.43
-0.06,0.88,0.4
-0.06,0.89,0.4
-0.07,0.89,0.38
-0.08,0.89,0.36
-0.09,0.89,0.35
-0.1,0.89,0.35
-0.11,0.89,0.34
-0.12,0.9,0.31
-0.13,0.91,0.28
-0.13,0.91,0.26
-0.14,0.91,0.26
-0.14,0.91,0.26
-0.14,0.91,0.27
-0.15,0.91,0.27
-0.15,0.91,0.27
-0.15,0.92,0.27
-0.15,0.92,0.27
-0.16,0.91,0.27
-0.17,0.91,0.26
-0.17,0.91,0.26
-0.19,0.9,0.27
-0.19,0.91,0.27
-0.18,0.91,0.26
-0.17,0.91,0.25
-0.16,0.91,0.25
-0.16,0.91,0.25
-0.15,0.9,0.26
-0.15,0.89,0.26
-0.14,0.89,0.27
-0.14,0.89,0.26
-0.15,0.88,0.27
-0.15,0.88,0.27
-0.16,0.87,0.28
-0.15,0.87,0.32
-0.16,0.86,0.36
-0.16,0.83,0.43
-0.02,0.66,0.36
0.76,0.43,1.52
0.8,0.43,2.49
0.29,0.74,1.48
0.2,0.99,0.69
-0.37,0.89,0.61
-0.53,0.73,0.53
-0.17,0.74,0.39
0.06,0.84,0.31
0.12,0.85,0.35
0.16,0.82,0.42
0.15,0.84,0.49
0.07,0.84,0.54
0.02,0.82,0.57
0,0.81,0.6
-0.02,0.8,0.63
-0.04,0.78,0.63
-0.03,0.77,0.61
-0.01,0.77,0.59
0.01,0.78,0.57
0.03,0.79,0.55
0.02,0.81,0.53
0,0.82,0.52
-0.02,0.83,0.53
-0.04,0.83,0.56
-0.03,0.82,0.59
-0.02,0.82,0.59
-0.01,0.81,0.58
0,0.8,0.58
0,0.8,0.58
0.01,0.79,0.58
0.02,0.79,0.59
0.01,0.79,0.61
0.01,0.78,0.62
0.01,0.78,0.63
0.01,0.79,0.63
0.02,0.79,0.63
0.02,0.79,0.64
0.02,0.8,0.62
0.01,0.79,0.61
0.02,0.78,0.62
0.05,0.78,0.64
0.06,0.78,0.64
0.05,0.79,0.65
0.05,0.81,0.64
0.04,0.83,0.6
0.01,0.85,0.56
-0.01,0.86,0.53
-0.01,0.87,0.51
-0.02,0.87,0.5
-0.03,0.88,0.48
-0.04,0.88,0.45
-0.05,0.89,0.43
-0.07,0.9,0.4
-0.08,0.91,0.36
-0.09,0.91,0.34
-0.11,0.91,0.32
-0.11,0.91,0.3
-0.12,0.91,0.29
-0.12,0.91,0.28
-0.13,0.9,0.28
-0.14,0.9,0.27
-0.15,0.91,0.25
-0.16,0.92,0.24
-0.17,0.92,0.23
-0.17,0.92,0.22
-0.17,0.92,0.22
-0.18,0.92,0.21
-0.18,0.92,0.22
-0.18,0.92,0.22
-0.19,0.91,0.23
-0.19,0.91,0.24
-0.18,0.91,0.25
-0.18,0.91,0.24
-0.18,0.91,0.24
-0.18,0.91,0.25
-0.17,0.91,0.26
-0.15,0.9,0.28
-0.13,0.9,0.28
-0.11,0.91,0.28
-0.1,0.91,0.29
-0.11,0.91,0.28
-0.13,0.91,0.26
-0.14,0.91,0.24
-0.15,0.91,0.24
-0.17,0.91,0.23
-0.17,0.89,0.24
-0.16,0.89,0.27
-0.17,0.89,0.31
-0.18,0.87,0.33
-0.17,0.85,0.36
-0.16,0.83,0.4
0.13,0.59,0.48
0.83,0.32,2.09
0.53,0.3,2.73
0.12,0.66,1.33
0.06,1,0.79
-0.45,0.85,0.65
-0.35,0.71,0.45
0,0.8,0.3
0.07,0.88,0.25
0.1,0.83,0.28
0.22,0.84,0.35
0.23,0.88,0.55
0.1,0.82,0.62
0.08,0.82,0.66
0.02,0.81,0.67
-0.03,0.79,0.63
-0.02,0.78,0.59
0.01,0.79,0.56
0.04,0.79,0.55
0.06,0.79,0.55
0.06,0.81,0.54
0.04,0.82,0.54
0.01,0.83,0.55
-0.01,0.82,0.58
-0.02,0.81,0.6
-0.02,0.8,0.62
-0.01,0.8,0.62
-0.01,0.8,0.61
0,0.79,0.59
0.01,0.79,0.57
0.02,0.79,0.57
0.01,0.8,0.58
0.01,0.8,0.57
0.01,0.81,0.57
0.02,0.8,0.58
0.01,0.8,0.6
0.02,0.8,0.62
0.02,0.81,0.64
0.06,0.81,0.63
0.07,0.81,0.63
0.08,0.81,0.64
0.07,0.81,0.64
0.06,0.81,0.65
0.04,0.81,0.64
0.03,0.82,0.62
0.02,0.82,0.59
0.01,0.83,0.56
-0.01,0.83,0.54
-0.02,0.83,0.52
-0.04,0.83,0.5
-0.06,0.84,0.49
-0.07,0.84,0.46
-0.08,0.85,0.43
-0.1,0.86,0.39
-0.11,0.87,0.36
-0.13,0.89,0.35
-0.13,0.89,0.33
-0.12,0.89,0.31
-0.12,0.89,0.3
-0.13,0.89,0.31
-0.14,0.89,0.31
-0.15,0.9,0.3
-0.16,0.9,0.29
-0.17,0.91,0.27
-0.17,0.92,0.25
-0.17,0.92,0.25
-0.18,0.92,0.25
-0.18,0.92,0.25
-0.18,0.93,0.25
-0.17,0.93,0.24
-0.17,0.93,0.24
-0.17,0.92,0.25
-0.17,0.92,0.26
-0.17,0.92,0.26
-0.16,0.92,0.26
-0.16,0.91,0.26
-0.15,0.91,0.26
-0.14,0.91,0.25
-0.12,0.92,0.25
-0.12,0.92,0.25
-0.12,0.91,0.25
-0.12,0.91,0.24
-0.12,0.9,0.24
-0.13,0.9,0.23
-0.14,0.91,0.21
-0.14,0.9,0.21
-0.14,0.9,0.23
-0.17,0.88,0.26
-0.2,0.87,0.29
-0.22,0.87,0.32
-0.25,0.83,0.37
-0.14,0.76,-0.3
0.55,0.59,0.11
1.28,0.4,2.46
0.67,0.54,2.31
0.02,0.96,0.7
-0.33,0.98,0.6
-0.71,0.74,0.64
-0.32,0.73,0.44
0.08,0.84,0.32
0.14,0.85,0.37
0.18,0.81,0.43
0.29,0.86,0.47
0.29,0.88,0.52
0.22,0.84,0.58
0.17,0.81,0.6
0.12,0.8,0.59
0.06,0.77,0.58
0.04,0.75,0.57
0.05,0.75,0.57
0.06,0.77,0.57
0.07,0.78,0.56
0.09,0.79,0.56
0.09,0.8,0.55
0.07,0.82,0.55
0.05,0.82,0.57
0.04,0.82,0.63
0.01,0.81,0.64
0,0.81,0.63
0,0.8,0.64
0.02,0.79,0.67
0.03,0.79,0.68
0.04,0.79,0.66
0.02,0.78,0.62
0.02,0.77,0.59
0.05,0.79,0.6
0.05,0.79,0.61
0.04,0.78,0.63
0.05,0.78,0.65
0.07,0.79,0.65
0.09,0.8,0.63
0.09,0.81,0.59
0.09,0.82,0.56
0.07,0.83,0.54
0.05,0.83,0.52
0.04,0.84,0.5
0.03,0.85,0.48
0.01,0.86,0.46
0,0.87,0.44
-0.01,0.88,0.43
-0.01,0.88,0.42
-0.02,0.89,0.4
-0.02,0.89,0.4
-0.03,0.89,0.39
-0.03,0.9,0.37
-0.02,0.91,0.36
-0.02,0.91,0.36
-0.01,0.91,0.36
-0.02,0.91,0.36
-0.03,0.91,0.35
-0.04,0.91,0.33
-0.04,0.91,0.32
-0.04,0.91,0.31
-0.05,0.9,0.31
-0.05,0.9,0.31
-0.06,0.91,0.31
-0.06,0.92,0.3
-0.06,0.93,0.28
-0.06,0.92,0.26
-0.06,0.93,0.26
-0.07,0.93,0.26
-0.08,0.92,0.26
-0.09,0.92,0.27
-0.08,0.92,0.27
-0.09,0.92,0.28
-0.09,0.92,0.27
-0.09,0.92,0.26
-0.09,0.93,0.26
-0.1,0.93,0.24
-0.09,0.94,0.24
-0.08,0.94,0.24
-0.08,0.92,0.24
-0.08,0.92,0.24
-0.08,0.91,0.25
-0.09,0.91,0.25
-0.09,0.91,0.23
-0.09,0.91,0.22
-0.11,0.91,0.23
-0.11,0.91,0.24
-0.11,0.91,0.24
-0.11,0.9,0.24
-0.1,0.89,0.27
-0.09,0.87,0.31
-0.06,0.84,0.35
0.08,0.79,0.07
0.64,0.62,0.35
1.43,0.29,2.45
0.5,0.33,2.55
-0.14,0.75,0.73
0.26,1.1,0.44
-0.12,1.06,0.5
-0.08,0.74,0.38
0.17,0.78,0.21
0.2,0.94,0.13
0.15,0.93,0.33
0.28,0.86,0.49
0.31,0.87,0.59
0.28,0.85,0.61
0.2,0.84,0.61
0.13,0.83,0.6
0.09,0.82,0.56
0.08,0.82,0.52
0.11,0.82,0.5
0.13,0.82,0.5
0.14,0.82,0.51
0.14,0.82,0.51
0.13,0.83,0.51
0.11,0.84,0.5
0.1,0.84,0.51
0.08,0.83,0.52
0.08,0.82,0.53
0.08,0.82,0.55
0.09,0.81,0.55
0.09,0.81,0.55
0.1,0.81,0.55
0.1,0.82,0.56
0.11,0.82,0.57
0.11,0.82,0.59
0.11,0.82,0.63
0.11,0.83,0.67
0.12,0.83,0.64
0.13,0.82,0.6
0.14,0.82,0.56
0.16,0.82,0.55
0.18,0.81,0.56
0.18,0.82,0.56
0.19,0.82,0.56
0.18,0.82,0.56
0.17,0.83,0.55
0.14,0.84,0.53
0.12,0.85,0.52
0.12,0.85,0.52
0.1,0.85,0.51
0.08,0.86,0.48
0.06,0.87,0.45
0.05,0.88,0.42
0.03,0.89,0.39
0.02,0.9,0.37
0.01,0.91,0.34
0,0.91,0.33
-0.01,0.91,0.33
-0.02,0.91,0.32
-0.04,0.91,0.3
-0.06,0.92,0.27
-0.07,0.92,0.24
-0.09,0.93,0.22
-0.1,0.93,0.2
-0.1,0.93,0.2
-0.11,0.93,0.2
-0.12,0.94,0.18
-0.12,0.94,0.17
-0.11,0.94,0.17
-0.12,0.93,0.17
-0.13,0.93,0.18
-0.13,0.92,0.18
-0.13,0.92,0.19
-0.14,0.92,0.21
-0.14,0.92,0.2
-0.12,0.92,0.2
-0.12,0.93,0.2
-0.11,0.95,0.18
-0.09,0.95,0.15
-0.05,0.94,0.15
-0.03,0.94,0.16
-0.01,0.92,0.18
0.04,0.9,0.21
0.06,0.9,0.25
0.01,0.9,0.26
-0.02,0.91,0.23
-0.03,0.92,0.21
-0.03,0.91,0.23
-0.02,0.9,0.26
0.02,0.87,0.31
0.58,0.67,0.28
1.46,0.37,2.51
0.68,0.26,2.53
-0.02,0.72,0.78
0.14,1.1,0.49
-0.26,1.01,0.44
-0.07,0.78,0.28
0.25,0.83,0.2
0.22,0.88,0.27
0.09,0.84,0.4
0.16,0.82,0.51
0.24,0.84,0.59
0.16,0.83,0.65
0.09,0.81,0.65
0.06,0.8,0.61
0.07,0.79,0.56
0.08,0.79,0.54
0.09,0.79,0.54
0.12,0.79,0.54
0.13,0.79,0.54
0.13,0.8,0.53
0.12,0.81,0.52
0.11,0.83,0.51
0.09,0.84,0.52
0.08,0.84,0.54
0.08,0.84,0.55
0.1,0.84,0.56
0.12,0.83,0.54
0.13,0.83,0.53
0.13,0.83,0.51
0.14,0.83,0.5
0.13,0.83,0.51
0.12,0.83,0.52
0.12,0.83,0.54
0.12,0.83,0.54
0.12,0.82,0.54
0.11,0.82,0.54
0.11,0.82,0.53
0.12,0.82,0.53
0.12,0.82,0.53
0.12,0.82,0.53
0.12,0.82,0.53
0.11,0.82,0.53
0.11,0.82,0.54
0.1,0.82,0.55
0.09,0.82,0.54
0.09,0.81,0.54
0.09,0.82,0.54
0.1,0.81,0.54
0.1,0.81,0.54
0.1,0.82,0.53
0.1,0.83,0.53
0.1,0.82,0.54
0.1,0.82,0.54
0.09,0.82,0.54
0.09,0.82,0.54
0.09,0.82,0.54
0.1,0.82,0.54
0.1,0.82,0.54
0.1,0.83,0.53
0.11,0.83,0.54
0.1,0.83,0.54
0.1,0.82,0.54
0.1,0.82,0.54
0.1,0.82,0.54
0.1,0.82,0.54
0.11,0.82,0.54
0.11,0.82,0.54
0.1,0.82,0.53
0.09,0.82,0.53
0.09,0.82,0.53
0.09,0.82,0.54
0.09,0.81,0.54
0.09,0.81,0.54
0.09,0.8,0.54
0.09,0.81,0.54
0.09,0.81,0.54
0.09,0.82,0.54
0.1,0.82,0.54
0.1,0.83,0.54
0.09,0.83,0.55
0.09,0.83,0.54
0.1,0.83,0.53
0.1,0.82,0.53
0.1,0.82,0.54
0.1,0.82,0.54
0.1,0.82,0.54
0.1,0.82,0.55
0.09,0.82,0.54
0.09,0.82,0.54
0.09,0.82,0.53
0.09,0.82,0.53
0.1,0.82,0.53
0.09,0.82,0.54
0.09,0.82,0.54
0.09,0.82,0.55
0.09,0.82,0.55
0.1,0.82,0.54
0.1,0.82,0.54
0.09,0.81,0.53
0.1,0.81,0.53
0.09,0.82,0.54
0.09,0.82,0.54
0.09,0.82,0.54
0.1,0.82,0.54
0.09,0.82,0.53
0.09,0.82,0.53
0.09,0.82,0.54
0.09,0.82,0.54
0.09,0.82,0.55
0.1,0.82,0.55
0.1,0.82,0.55
0.09,0.82,0.54
0.09,0.82,0.53
0.09,0.81,0.53
0.09,0.81,0.54
0.09,0.81,0.54
0.08,0.82,0.54
0.09,0.82,0.54
0.09,0.82,0.54
0.09,0.82,0.54
0.09,0.81,0.54
0.09,0.81,0.54
0.09,0.81,0.55
0.09,0.81,0.54
0.08,0.82,0.54
0.09,0.82,0.54
0.09,0.82,0.54
0.09,0.82,0.54
0.09,0.82,0.54
0.09,0.82,0.54
0.09,0.82,0.54
0.09,0.82,0.54
0.09,0.81,0.54
0.09,0.82,0.54
0.09,0.82,0.54
0.09,0.83,0.54
0.09,0.82,0.53
0.09,0.82,0.53
0.09,0.82,0.54
0.09,0.82,0.54
0.09,0.82,0.54
0.1,0.82,0.54
0.1,0.82,0.54
0.1,0.82,0.54
0.1,0.82,0.54
0.09,0.82,0.54
0.1,0.82,0.54
0.1,0.82,0.54
0.1,0.82,0.54
0.1,0.82,0.54
0.09,0.82,0.54
0.09,0.82,0.54
0.09,0.82,0.55
0.09,0.81,0.56
0.09,0.81,0.56
0.09,0.81,0.57
0.08,0.81,0.58
0.09,0.81,0.6
0.09,0.82,0.63
0.09,0.82,0.64
0.1,0.82,0.64
0.08,0.82,0.63
0.11,0.8,0.6
0.15,0.78,0.57
0.14,0.76,0.56
0.13,0.77,0.57
0.15,0.78,0.57
0.16,0.78,0.6
0.15,0.78,0.63
0.13,0.8,0.64
0.11,0.82,0.62
0.09,0.83,0.6
0.07,0.83,0.58
0.05,0.85,0.56
0.04,0.86,0.53
0.03,0.87,0.49
0.03,0.88,0.46
0.02,0.89,0.42
0.03,0.9,0.41
0.02,0.9,0.41
0.01,0.89,0.4
0.01,0.88,0.39
-0.01,0.9,0.34
-0.02,0.9,0.31
-0.03,0.91,0.28
-0.03,0.91,0.27
-0.04,0.91,0.26
-0.04,0.91,0.25
-0.05,0.91,0.25
-0.05,0.92,0.25
-0.05,0.92,0.25
-0.05,0.92,0.25
-0.05,0.92,0.25
-0.04,0.92,0.26
-0.06,0.92,0.27
-0.08,0.91,0.25
-0.09,0.92,0.23
-0.08,0.93,0.2
-0.08,0.93,0.18
-0.07,0.92,0.18
-0.07,0.9,0.19
-0.05,0.89,0.22
-0.04,0.88,0.24
-0.02,0.87,0.26
-0.01,0.87,0.3
-0.02,0.85,0.33
-0.04,0.83,0.37
0.05,0.66,-0.56
0.86,0.24,2.65
0.31,0.65,1.46
0.04,1.04,0.71
-0.55,1.02,0.53
-0.36,0.82,0.37
0.02,0.83,0.28
0.15,0.88,0.32
0.15,0.87,0.4
0.17,0.88,0.48
0.18,0.9,0.55
0.13,0.87,0.59
0.06,0.83,0.59
0,0.81,0.58
-0.04,0.79,0.58
-0.03,0.78,0.57
0.01,0.77,0.56
0.05,0.77,0.55
0.06,0.78,0.54
0.07,0.79,0.53
0.07,0.8,0.52
0.06,0.81,0.53
0.05,0.82,0.55
0.05,0.82,0.56
0.04,0.82,0.58
0.05,0.83,0.58
0.05,0.83,0.56
0.06,0.83,0.53
0.08,0.83,0.53
0.08,0.83,0.53
0.08,0.84,0.54
0.08,0.83,0.54
0.08,0.83,0.54
0.08,0.82,0.54
0.07,0.82,0.54
0.07,0.82,0.55
0.06,0.82,0.54
0.06,0.82,0.54
0.06,0.82,0.53
0.05,0.82,0.54
0.05,0.83,0.54
0.04,0.82,0.54
0.05,0.82,0.55
0.05,0.82,0.56
0.05,0.82,0.57
0.05,0.81,0.58
0.05,0.81,0.58
0.05,0.81,0.58
0.05,0.81,0.59
0.05,0.81,0.6
0.06,0.81,0.62
0.05,0.81,0.63
0.04,0.81,0.65
0.04,0.8,0.62
0.06,0.8,0.61
0.07,0.78,0.61
0.08,0.77,0.62
0.08,0.78,0.63
0.08,0.8,0.63
0.08,0.82,0.61
0.08,0.83,0.6
0.07,0.84,0.6
0.07,0.84,0.6
0.06,0.83,0.59
0.05,0.83,0.55
0.05,0.84,0.51
0.04,0.86,0.47
0.02,0.87,0.43
0.02,0.88,0.39
0.02,0.89,0.37
0.02,0.9,0.34
0.01,0.9,0.31
0.01,0.9,0.28
0,0.9,0.26
-0.02,0.9,0.24
-0.03,0.91,0.21
-0.03,0.91,0.18
-0.04,0.92,0.14
-0.04,0.92,0.12
-0.03,0.93,0.12
-0.03,0.93,0.13
-0.03,0.93,0.14
-0.04,0.93,0.16
-0.04,0.92,0.18
-0.04,0.91,0.2
-0.03,0.9,0.22
-0.03,0.9,0.24
-0.02,0.89,0.28
-0.01,0.87,0.32
0,0.86,0.41
0,0.85,0.53
0.01,0.84,0.65
0.03,0.83,0.75
0.06,0.83,0.82
0.09,0.83,0.86
0.12,0.82,0.87
0.15,0.82,0.85
0.17,0.82,0.83
0.18,0.81,0.81
0.17,0.8,0.81
0.14,0.79,0.79
0.11,0.77,0.77
0.09,0.76,0.75
0.07,0.75,0.73
0.06,0.74,0.69
0.05,0.74,0.62
-0.01,0.76,0.58
-0.02,0.77,0.54
-0.03,0.79,0.51
-0.04,0.81,0.48
-0.05,0.82,0.47
-0.04,0.83,0.47
-0.04,0.84,0.48
-0.04,0.86,0.48
-0.05,0.88,0.46
-0.05,0.89,0.44
-0.04,0.9,0.42
-0.02,0.91,0.41
-0.02,0.91,0.41
-0.02,0.9,0.41
-0.01,0.9,0.41
-0.01,0.9,0.41
0,0.89,0.4
0,0.89,0.38
-0.01,0.89,0.36
-0.01,0.89,0.34
0,0.9,0.33
-0.01,0.9,0.32
-0.01,0.91,0.31
-0.02,0.91,0.3
-0.03,0.91,0.3
-0.03,0.91,0.29
-0.04,0.91,0.29
-0.05,0.91,0.29
-0.06,0.92,0.28
-0.06,0.92,0.27
-0.07,0.93,0.27
-0.08,0.94,0.26
-0.08,0.94,0.25
-0.08,0.95,0.25
-0.08,0.94,0.26
-0.09,0.95,0.26
-0.09,0.95,0.25
-0.1,0.96,0.23
-0.1,0.96,0.22
-0.1,0.96,0.22
-0.1,0.96,0.22
-0.09,0.96,0.22
-0.09,0.96,0.21
-0.09,0.96,0.2
-0.1,0.96,0.19
-0.09,0.96,0.18
-0.09,0.95,0.18
-0.09,0.95,0.17
-0.09,0.94,0.16
-0.08,0.94,0.14
-0.08,0.94,0.11
-0.08,0.94,0.08
-0.06,0.91,0.08
-0.04,0.9,0.11
-0.03,0.88,0.18
-0.02,0.86,0.25
-0.02,0.87,0.33
-0.02,0.88,0.39
0,0.86,0.44
0.03,0.86,0.51
0.05,0.85,0.62
0.07,0.85,0.74
0.09,0.86,0.81
0.1,0.87,0.84
0.1,0.86,0.84
0.11,0.85,0.81
0.11,0.85,0.79
0.11,0.84,0.78
0.09,0.82,0.76
0.06,0.82,0.74
0.04,0.81,0.71
0.04,0.8,0.67
0.03,0.8,0.63
0.01,0.79,0.59
-0.01,0.79,0.56
-0.02,0.79,0.54
-0.03,0.8,0.51
-0.04,0.81,0.49
-0.05,0.84,0.46
-0.05,0.85,0.44
-0.05,0.87,0.42
-0.05,0.87,0.42
-0.04,0.88,0.43
-0.04,0.89,0.43
-0.04,0.91,0.42
-0.04,0.92,0.41
-0.03,0.92,0.38
-0.03,0.93,0.37
-0.02,0.93,0.36
-0.02,0.93,0.35
-0.01,0.93,0.33
-0.01,0.92,0.34
-0.01,0.92,0.35
-0.01,0.92,0.33
-0.02,0.92,0.3
-0.02,0.92,0.28
-0.02,0.92,0.26
-0.02,0.92,0.25
-0.02,0.92,0.23
-0.03,0.91,0.24
-0.04,0.91,0.26
-0.05,0.91,0.27
-0.05,0.92,0.25
-0.06,0.93,0.24
-0.07,0.93,0.23
-0.08,0.93,0.23
-0.08,0.94,0.22
-0.09,0.95,0.21
-0.1,0.95,0.2
-0.1,0.95,0.2
-0.09,0.96,0.19
-0.09,0.96,0.17
-0.1,0.97,0.17
-0.1,0.97,0.16
-0.11,0.97,0.15
-0.1,0.97,0.15
-0.1,0.96,0.15
-0.1,0.96,0.15
-0.1,0.96,0.14
-0.1,0.96,0.13
-0.09,0.96,0.11
-0.09,0.97,0.1
-0.09,0.95,0.1
-0.09,0.94,0.09
-0.09,0.94,0.07
-0.08,0.93,0.07
-0.09,0.92,0.07
-0.1,0.9,0.07
-0.11,0.89,0.09
-0.11,0.88,0.12
-0.11,0.85,0.2
-0.06,0.82,0.16
0.3,0.63,0.28
1.32,0.22,2.22
0.86,0.18,2.76
0.25,0.67,0.89
0.23,1.17,0.35
-0.37,1.15,0.41
-0.06,0.87,0.28
0.32,0.86,0.2
0.25,0.88,0.27
0.04,0.85,0.41
0.01,0.84,0.51
0.03,0.85,0.56
-0.02,0.83,0.58
-0.04,0.8,0.58
-0.06,0.79,0.57
-0.07,0.79,0.56
-0.02,0.79,0.53
0.04,0.81,0.51
0.06,0.81,0.52
0.07,0.8,0.52
0.07,0.79,0.51
0.04,0.8,0.51
0.01,0.81,0.51
-0.02,0.82,0.52
-0.03,0.84,0.54
-0.02,0.85,0.54
0.01,0.85,0.53
0.02,0.85,0.52
0.04,0.85,0.51
0.05,0.85,0.51
0.05,0.86,0.51
0.05,0.85,0.51
0.06,0.85,0.51
0.06,0.84,0.52
0.05,0.85,0.52
0.05,0.84,0.51
0.06,0.84,0.51
0.06,0.83,0.51
0.05,0.83,0.51
0.04,0.83,0.52
0.04,0.83,0.53
0.03,0.82,0.53
0.02,0.82,0.53
0,0.82,0.54
-0.01,0.81,0.55
-0.01,0.81,0.56
-0.04,0.81,0.56
-0.06,0.79,0.56
-0.09,0.79,0.55
-0.1,0.79,0.55
-0.11,0.8,0.57
-0.12,0.81,0.58
-0.12,0.82,0.57
-0.11,0.82,0.57
-0.1,0.83,0.58
-0.1,0.82,0.57
-0.09,0.83,0.57
-0.08,0.84,0.56
-0.06,0.85,0.55
-0.04,0.85,0.55
-0.03,0.85,0.54
-0.01,0.86,0.54
-0.01,0.85,0.53
-0.01,0.84,0.53
0,0.81,0.53
0.01,0.78,0.54
0.02,0.76,0.53
0.04,0.74,0.51
0.06,0.73,0.49
0.06,0.73,0.48
0.07,0.73,0.48
0.09,0.73,0.48
0.12,0.72,0.48
0.16,0.72,0.48
0.2,0.73,0.46
0.26,0.74,0.44
0.31,0.75,0.46
0.36,0.77,0.48
0.38,0.77,0.5
0.39,0.78,0.51
0.4,0.79,0.51
0.41,0.8,0.51
0.41,0.82,0.5
0.41,0.84,0.46
0.41,0.84,0.41
0.43,0.86,0.38
0.45,0.88,0.38
0.47,0.88,0.4
0.47,0.87,0.41
0.48,0.86,0.43
0.49,0.85,0.44
0.5,0.84,0.46
0.5,0.84,0.46
0.51,0.84,0.46
0.53,0.83,0.46
0.53,0.84,0.45
0.53,0.83,0.42
0.53,0.81,0.4
0.55,0.8,0.4
0.56,0.79,0.41
0.56,0.78,0.43
0.56,0.76,0.44
0.56,0.75,0.43
0.56,0.74,0.43
0.56,0.74,0.44
0.56,0.74,0.44
0.56,0.73,0.43
0.56,0.73,0.44
0.57,0.72,0.45
0.58,0.71,0.46
0.57,0.7,0.47
0.57,0.7,0.49
0.57,0.69,0.49
0.56,0.69,0.48
0.57,0.69,0.47
0.57,0.69,0.48
0.57,0.69,0.49
0.57,0.68,0.5
0.56,0.67,0.52
0.57,0.66,0.54
0.58,0.66,0.55
0.57,0.65,0.56
0.57,0.65,0.56
0.57,0.65,0.56
0.57,0.65,0.56
0.56,0.64,0.57
0.55,0.64,0.58
0.54,0.66,0.6
0.52,0.66,0.62
0.5,0.67,0.66
0.48,0.69,0.68
0.45,0.7,0.69
0.43,0.71,0.69
0.42,0.72,0.68
0.42,0.71,0.66
0.4,0.7,0.66
0.38,0.7,0.68
0.36,0.7,0.71
0.33,0.7,0.73
0.31,0.69,0.75
0.3,0.69,0.75
0.3,0.69,0.75
0.3,0.68,0.73
0.29,0.67,0.71
0.28,0.67,0.7
0.27,0.65,0.69
0.27,0.64,0.7
0.27,0.62,0.71
0.28,0.61,0.72
0.28,0.59,0.71
0.29,0.57,0.71
0.31,0.56,0.72
0.32,0.54,0.72
0.33,0.52,0.71
0.34,0.51,0.7
0.34,0.49,0.69
0.37,0.48,0.7
0.38,0.47,0.72
0.39,0.46,0.73
0.38,0.45,0.73
0.37,0.44,0.72
0.37,0.44,0.71
0.36,0.44,0.71
0.34,0.44,0.71
0.34,0.44,0.71
0.34,0.43,0.69
0.35,0.43,0.69
0.35,0.43,0.7
0.34,0.43,0.72
0.32,0.43,0.74
0.31,0.43,0.76
0.3,0.43,0.76
