Acc_x,Acc_y,Acc_z
0.4,0.8,0.44
0.38,0.81,0.4
0.38,0.82,0.37
0.38,0.83,0.33
0.34,0.87,0.28
0.33,0.88,0.23
0.32,0.89,0.18
0.31,0.9,0.13
0.3,0.91,0.1
0.29,0.91,0.08
0.3,0.91,0.07
0.31,0.91,0.06
0.3,0.92,0.04
0.3,0.92,0.02
0.29,0.93,0.01
0.28,0.95,0
0.29,0.95,-0.03
0.3,0.96,-0.04
0.29,0.97,-0.04
0.28,0.97,-0.04
0.29,0.98,-0.05
0.29,0.98,-0.04
0.29,0.98,-0.03
0.29,0.98,-0.01
0.3,0.98,0.01
0.29,0.98,0.02
0.29,0.99,0.01
0.29,0.99,-0.01
0.29,1,-0.04
0.29,1,-0.06
0.31,0.99,-0.08
0.35,0.98,-0.05
0.35,0.97,-0.02
0.35,0.96,-0.02
0.33,0.92,0.02
0.33,0.88,0.09
0.33,0.84,0.17
0.29,0.81,0.26
0.27,0.78,0.28
2.1,-0.64,1.04
2.38,-0.8,2.11
0.47,0.52,1.33
-0.3,0.92,0.35
-0.62,0.91,0.38
-0.06,0.66,0.29
0.45,0.76,0.21
0.58,0.79,0.19
0.73,0.81,0.21
0.67,0.82,0.26
0.5,0.79,0.34
0.39,0.77,0.38
0.33,0.75,0.42
0.29,0.73,0.48
0.28,0.73,0.5
0.31,0.75,0.49
0.33,0.78,0.47
0.36,0.79,0.43
0.43,0.79,0.43
0.43,0.8,0.42
0.43,0.81,0.41
0.42,0.82,0.39
0.42,0.82,0.36
0.42,0.82,0.35
0.43,0.82,0.36
0.44,0.82,0.37
0.45,0.82,0.38
0.46,0.82,0.38
0.45,0.83,0.38
0.45,0.83,0.37
0.45,0.83,0.36
0.46,0.83,0.35
0.46,0.83,0.35
0.45,0.83,0.35
0.44,0.83,0.36
0.44,0.83,0.36
0.44,0.83,0.36
0.44,0.83,0.37
0.44,0.82,0.38
0.44,0.82,0.38
0.45,0.81,0.38
0.44,0.8,0.38
0.43,0.8,0.38
0.43,0.8,0.38
0.43,0.8,0.36
0.43,0.8,0.36
0.43,0.8,0.36
0.42,0.8,0.36
0.42,0.8,0.37
0.43,0.81,0.38
0.43,0.81,0.38
0.43,0.81,0.38
0.42,0.81,0.37
0.43,0.81,0.37
0.43,0.81,0.37
0.43,0.8,0.37
0.44,0.8,0.37
0.44,0.81,0.37
0.44,0.81,0.38
0.44,0.81,0.37
0.44,0.82,0.37
0.44,0.82,0.36
0.44,0.82,0.35
0.44,0.82,0.35
0.44,0.82,0.35
0.45,0.81,0.35
0.45,0.81,0.35
0.45,0.81,0.35
0.46,0.81,0.35
0.45,0.81,0.35
0.45,0.81,0.35
0.46,0.81,0.36
0.46,0.8,0.37
0.46,0.81,0.36
0.45,0.81,0.36
0.44,0.81,0.36
0.45,0.81,0.35
0.45,0.81,0.35
0.45,0.81,0.35
0.45,0.81,0.35
0.46,0.81,0.35
0.45,0.81,0.36
0.45,0.8,0.36
0.44,0.8,0.36
0.43,0.8,0.37
0.44,0.8,0.36
0.44,0.8,0.36
0.44,0.8,0.36
0.44,0.81,0.35
0.44,0.81,0.35
0.45,0.81,0.35
0.45,0.81,0.35
0.45,0.81,0.35
0.45,0.81,0.36
0.44,0.81,0.35
0.44,0.81,0.36
0.45,0.81,0.35
0.45,0.82,0.34
0.45,0.81,0.34
0.45,0.8,0.34
0.45,0.81,0.34
0.46,0.81,0.35
0.46,0.81,0.34
0.46,0.81,0.35
0.46,0.81,0.36
0.46,0.8,0.37
0.46,0.8,0.39
0.46,0.8,0.43
0.46,0.79,0.44
0.45,0.8,0.45
0.45,0.8,0.46
0.45,0.8,0.47
0.44,0.79,0.49
0.46,0.77,0.52
0.49,0.74,0.53
0.51,0.72,0.54
0.54,0.71,0.56
0.58,0.71,0.57
0.61,0.73,0.56
0.59,0.76,0.54
0.53,0.79,0.51
0.46,0.82,0.48
0.43,0.85,0.38
0.42,0.85,0.34
0.43,0.84,0.32
0.41,0.84,0.32
0.37,0.84,0.28
0.35,0.84,0.22
0.35,0.86,0.16
0.33,0.87,0.12
0.3,0.89,0.09
0.29,0.89,0.05
0.29,0.9,0.01
0.29,0.91,-0.02
0.28,0.91,-0.04
0.28,0.91,-0.05
0.28,0.91,-0.06
0.27,0.92,-0.07
0.26,0.94,-0.07
0.26,0.95,-0.08
0.27,0.96,-0.09
0.28,0.97,-0.08
0.28,0.97,-0.06
0.28,0.97,-0.04
0.28,0.97,-0.03
0.28,0.97,-0.04
0.29,0.97,-0.03
0.27,0.97,-0.03
0.26,0.97,-0.1
0.3,0.94,-0.13
0.34,0.92,-0.12
0.36,0.89,-0.06
0.35,0.87,0.02
0.31,0.85,0.08
0.35,0.85,0.11
0.38,0.84,0.16
0.36,0.84,0.22
0.36,0.82,0.26
0.48,0.85,-0.55
2.14,-0.44,1.27
2.32,-0.54,3.27
0.65,0.78,1.66
0.03,0.92,0.69
-0.3,0.83,0.57
-0.08,0.75,0.35
0.26,0.87,0.16
0.48,0.92,0.07
0.59,0.89,0.13
0.56,0.84,0.25
0.51,0.84,0.32
0.46,0.84,0.36
0.38,0.8,0.38
0.32,0.76,0.42
0.3,0.75,0.45
0.31,0.76,0.45
0.36,0.77,0.43
0.42,0.77,0.4
0.46,0.78,0.38
0.47,0.8,0.36
0.46,0.81,0.35
0.45,0.81,0.34
0.44,0.82,0.34
0.43,0.82,0.35
0.42,0.83,0.36
0.44,0.84,0.36
0.46,0.83,0.37
0.47,0.82,0.38
0.47,0.82,0.4
0.46,0.82,0.4
0.46,0.82,0.39
0.47,0.82,0.38
0.47,0.81,0.37
0.47,0.81,0.36
0.46,0.81,0.36
0.46,0.81,0.36
0.46,0.81,0.37
0.46,0.81,0.36
0.45,0.81,0.36
0.44,0.8,0.37
0.44,0.8,0.37
0.45,0.8,0.38
0.44,0.79,0.38
0.44,0.79,0.39
0.44,0.79,0.39
0.44,0.79,0.39
0.44,0.79,0.39
0.44,0.8,0.38
0.44,0.81,0.38
0.44,0.81,0.37
0.43,0.81,0.36
0.44,0.81,0.35
0.44,0.81,0.35
0.45,0.8,0.35
0.45,0.8,0.36
0.45,0.8,0.37
0.45,0.81,0.37
0.44,0.81,0.37
0.44,0.81,0.37
0.45,0.81,0.37
0.46,0.81,0.37
0.46,0.81,0.36
0.45,0.81,0.36
0.44,0.8,0.36
0.44,0.8,0.36
0.44,0.8,0.36
0.44,0.8,0.36
0.44,0.81,0.36
0.44,0.81,0.36
0.45,0.81,0.36
0.45,0.81,0.37
0.45,0.8,0.37
0.45,0.8,0.37
0.45,0.8,0.37
0.45,0.8,0.37
0.44,0.8,0.36
0.44,0.8,0.36
0.44,0.8,0.36
0.44,0.8,0.36
0.44,0.8,0.36
0.44,0.81,0.36
0.44,0.81,0.36
0.44,0.8,0.36
0.44,0.8,0.37
0.44,0.8,0.38
0.44,0.8,0.37
0.44,0.8,0.35
0.43,0.8,0.35
0.43,0.8,0.35
0.44,0.8,0.35
0.45,0.8,0.35
0.46,0.8,0.36
0.46,0.81,0.36
0.46,0.81,0.35
0.46,0.81,0.36
0.45,0.81,0.37
0.45,0.81,0.37
0.46,0.8,0.38
0.46,0.79,0.38
0.46,0.79,0.4
0.46,0.78,0.44
0.46,0.78,0.46
0.46,0.78,0.46
0.47,0.79,0.44
0.46,0.79,0.43
0.47,0.78,0.43
0.47,0.77,0.43
0.45,0.76,0.45
0.44,0.76,0.46
0.46,0.75,0.44
0.49,0.75,0.42
0.5,0.75,0.41
0.53,0.76,0.41
0.54,0.78,0.4
0.53,0.79,0.39
0.51,0.8,0.38
0.48,0.81,0.38
0.47,0.82,0.37
0.45,0.82,0.35
0.43,0.83,0.32
0.41,0.86,0.26
0.38,0.87,0.22
0.38,0.87,0.2
0.37,0.88,0.17
0.38,0.89,0.16
0.37,0.89,0.15
0.36,0.9,0.14
0.35,0.9,0.13
0.34,0.9,0.12
0.34,0.9,0.1
0.33,0.9,0.09
0.33,0.9,0.09
0.34,0.9,0.09
0.34,0.91,0.09
0.34,0.91,0.09
0.33,0.92,0.08
0.33,0.92,0.08
0.34,0.93,0.07
0.34,0.93,0.06
0.35,0.93,0.06
0.38,0.92,0.06
0.4,0.91,0.08
0.41,0.9,0.1
0.44,0.89,0.13
0.47,0.89,0.16
0.45,0.9,0.18
0.4,0.91,0.22
0.25,0.91,0.19
0.16,0.94,0.07
0.15,0.93,-0.08
0.23,0.86,-0.14
0.47,0.79,-0.39
1.8,0.32,1.66
1.78,0.25,2.95
0.52,0.72,1.19
0.16,0.86,0.39
-0.18,0.88,0.32
-0.01,0.82,0.22
0.39,0.87,0.14
0.56,0.9,0.15
0.58,0.87,0.25
0.52,0.85,0.33
0.48,0.83,0.4
0.43,0.81,0.45
0.37,0.77,0.46
0.34,0.76,0.44
0.34,0.78,0.42
0.37,0.78,0.4
0.41,0.78,0.38
0.45,0.78,0.36
0.49,0.79,0.35
0.52,0.79,0.35
0.53,0.8,0.33
0.49,0.82,0.32
0.48,0.82,0.32
0.48,0.82,0.31
0.48,0.82,0.32
0.49,0.82,0.34
0.49,0.82,0.36
0.5,0.82,0.36
0.5,0.82,0.35
0.5,0.82,0.35
0.5,0.81,0.34
0.49,0.81,0.34
0.48,0.8,0.35
0.48,0.8,0.35
0.48,0.8,0.34
0.48,0.79,0.35
0.47,0.79,0.36
0.46,0.79,0.37
0.46,0.78,0.37
0.45,0.78,0.37
0.45,0.78,0.37
0.45,0.78,0.36
0.45,0.79,0.36
0.45,0.79,0.36
0.46,0.79,0.36
0.46,0.79,0.36
0.45,0.79,0.37
0.45,0.79,0.36
0.46,0.8,0.35
0.48,0.81,0.34
0.48,0.81,0.34
0.48,0.8,0.34
0.48,0.8,0.35
0.48,0.8,0.35
0.48,0.8,0.35
0.47,0.8,0.35
0.47,0.8,0.35
0.46,0.8,0.35
0.46,0.8,0.34
0.48,0.81,0.34
0.48,0.8,0.34
0.47,0.8,0.34
0.47,0.8,0.34
0.47,0.8,0.35
0.47,0.79,0.35
0.46,0.79,0.35
0.46,0.8,0.35
0.46,0.8,0.35
0.47,0.8,0.35
0.48,0.8,0.34
0.47,0.8,0.35
0.47,0.8,0.34
0.47,0.8,0.35
0.47,0.8,0.35
0.48,0.8,0.35
0.48,0.8,0.35
0.48,0.81,0.34
0.47,0.8,0.35
0.47,0.8,0.35
0.47,0.8,0.35
0.46,0.8,0.35
0.46,0.8,0.35
0.47,0.8,0.34
0.47,0.79,0.34
0.47,0.8,0.35
0.47,0.8,0.35
0.47,0.8,0.35
0.47,0.8,0.35
0.47,0.8,0.35
0.48,0.79,0.35
0.48,0.79,0.36
0.47,0.8,0.36
0.47,0.8,0.35
0.47,0.8,0.34
0.47,0.81,0.33
0.47,0.81,0.33
0.47,0.81,0.33
0.47,0.81,0.33
0.47,0.81,0.34
0.47,0.8,0.34
0.47,0.8,0.34
0.47,0.8,0.34
0.47,0.81,0.34
0.47,0.81,0.35
0.47,0.8,0.35
0.47,0.8,0.35
0.47,0.8,0.34
0.47,0.8,0.33
0.47,0.79,0.33
0.46,0.79,0.33
0.46,0.79,0.34
0.47,0.79,0.34
0.46,0.8,0.35
0.46,0.81,0.35
0.48,0.81,0.32
0.48,0.82,0.3
0.47,0.82,0.29
0.46,0.81,0.29
0.43,0.81,0.28
0.43,0.8,0.28
0.43,0.8,0.34
0.42,0.79,0.39
0.42,0.78,0.42
0.46,0.8,0.43
0.5,0.8,0.41
0.51,0.81,0.37
0.48,0.8,0.37
0.49,0.78,0.38
0.51,0.77,0.38
0.52,0.77,0.41
0.55,0.77,0.44
0.56,0.77,0.45
0.54,0.78,0.45
0.53,0.79,0.45
0.51,0.8,0.43
0.5,0.8,0.41
0.48,0.8,0.41
0.46,0.81,0.4
0.44,0.81,0.39
0.42,0.81,0.39
0.42,0.81,0.39
0.42,0.8,0.39
0.42,0.79,0.4
0.43,0.79,0.43
0.43,0.79,0.45
0.42,0.78,0.46
0.4,0.77,0.46
0.39,0.77,0.46
0.38,0.76,0.45
0.38,0.77,0.43
0.39,0.78,0.42
0.39,0.79,0.37
0.4,0.81,0.36
0.4,0.82,0.34
0.41,0.83,0.33
0.41,0.83,0.32
0.41,0.83,0.3
0.41,0.84,0.28
0.42,0.85,0.26
0.42,0.85,0.25
0.41,0.86,0.23
0.41,0.87,0.22
0.41,0.87,0.21
0.41,0.88,0.2
0.41,0.89,0.19
0.41,0.9,0.18
0.41,0.91,0.17
0.41,0.91,0.16
0.41,0.92,0.14
0.41,0.93,0.13
0.4,0.93,0.1
0.39,0.93,0.09
0.38,0.93,0.06
0.37,0.94,0.02
0.37,0.95,-0.03
0.39,0.94,-0.07
0.41,0.93,-0.08
0.41,0.91,-0.05
0.35,0.92,-0.05
0.31,0.92,-0.03
0.26,0.9,0
0.22,0.87,0.05
0.21,0.82,0.13
0.2,0.78,0.25
0.13,0.73,0.39
1.52,-0.31,1.76
2.09,-0.37,2.86
0.64,0.73,1.73
0.03,0.82,0.51
0.04,0.77,0.29
0.23,0.81,0.28
0.47,0.83,0.12
0.65,0.87,0.06
0.7,0.89,0.08
0.64,0.86,0.16
0.58,0.85,0.26
0.54,0.83,0.29
0.49,0.8,0.33
0.44,0.78,0.37
0.44,0.77,0.38
0.47,0.78,0.37
0.49,0.79,0.36
0.51,0.79,0.35
0.55,0.79,0.32
0.56,0.79,0.31
0.54,0.79,0.3
0.51,0.79,0.3
0.49,0.78,0.3
0.48,0.78,0.31
0.48,0.78,0.32
0.47,0.78,0.32
0.48,0.79,0.33
0.5,0.79,0.33
0.51,0.79,0.34
0.51,0.79,0.34
0.51,0.8,0.34
0.51,0.8,0.33
0.51,0.8,0.31
0.51,0.8,0.31
0.51,0.79,0.3
0.5,0.79,0.31
0.5,0.79,0.32
0.49,0.79,0.31
0.5,0.79,0.31
0.51,0.79,0.31
0.51,0.79,0.31
0.52,0.79,0.31
0.52,0.8,0.31
0.52,0.8,0.32
0.51,0.8,0.32
0.5,0.8,0.32
0.51,0.79,0.32
0.51,0.79,0.32
0.51,0.79,0.32
0.5,0.79,0.32
0.49,0.8,0.32
0.49,0.8,0.32
0.49,0.8,0.32
0.5,0.8,0.32
0.51,0.8,0.31
0.5,0.79,0.31
0.49,0.79,0.31
0.49,0.79,0.31
0.49,0.78,0.31
0.49,0.78,0.31
0.49,0.78,0.32
0.5,0.79,0.33
0.51,0.79,0.33
0.51,0.79,0.32
0.51,0.79,0.33
0.5,0.79,0.33
0.5,0.79,0.33
0.5,0.79,0.32
0.5,0.78,0.32
0.49,0.78,0.32
0.49,0.78,0.32
0.49,0.79,0.3
0.51,0.78,0.3
0.51,0.78,0.3
0.51,0.78,0.31
0.51,0.78,0.31
0.51,0.78,0.32
0.5,0.79,0.32
0.5,0.79,0.33
0.51,0.79,0.32
0.52,0.8,0.32
0.52,0.79,0.32
0.52,0.79,0.32
0.52,0.79,0.31
0.52,0.8,0.31
0.52,0.79,0.31
0.52,0.79,0.31
0.51,0.79,0.31
0.51,0.79,0.31
0.51,0.79,0.31
0.51,0.79,0.31
0.51,0.78,0.31
0.5,0.78,0.31
0.51,0.78,0.32
0.51,0.78,0.32
0.51,0.78,0.33
0.51,0.79,0.33
0.51,0.79,0.31
0.51,0.78,0.32
0.51,0.77,0.34
0.51,0.77,0.35
0.52,0.77,0.36
0.52,0.77,0.36
0.52,0.77,0.36
0.51,0.77,0.36
0.52,0.77,0.37
0.52,0.77,0.38
0.53,0.77,0.39
0.54,0.77,0.4
0.54,0.77,0.41
0.53,0.77,0.4
0.53,0.78,0.38
0.53,0.78,0.36
0.53,0.79,0.34
0.54,0.79,0.32
0.53,0.79,0.32
0.53,0.79,0.31
0.54,0.79,0.3
0.53,0.8,0.28
0.52,0.82,0.27
0.5,0.83,0.25
0.49,0.85,0.23
0.49,0.85,0.21
0.47,0.86,0.19
0.46,0.86,0.19
0.46,0.86,0.19
0.46,0.85,0.2
0.45,0.85,0.21
0.45,0.85,0.22
0.44,0.86,0.22
0.43,0.86,0.21
0.43,0.86,0.2
0.43,0.86,0.19
0.41,0.87,0.19
0.4,0.87,0.19
0.39,0.87,0.18
0.39,0.87,0.16
0.39,0.87,0.16
0.38,0.87,0.17
0.37,0.87,0.18
0.36,0.87,0.18
0.37,0.87,0.17
0.38,0.87,0.13
0.4,0.87,0.13
0.41,0.87,0.15
0.41,0.88,0.14
0.41,0.9,0.11
0.41,0.93,0.06
0.41,0.93,0.01
0.41,0.92,-0.01
0.41,0.87,0.05
0.41,0.85,0.12
0.37,0.84,0.2
0.32,0.83,0.25
0.24,0.82,0.18
1.24,0.08,0.41
1.64,-0.02,1.73
0.74,0.67,1.94
0.42,0.79,0.95
0.17,0.72,0.58
0.05,0.71,0.37
0.29,0.83,0.3
0.5,0.86,0.23
0.54,0.87,0.22
0.49,0.85,0.24
0.46,0.83,0.27
0.44,0.82,0.28
0.4,0.79,0.3
0.39,0.74,0.34
0.4,0.73,0.37
0.43,0.73,0.39
0.45,0.73,0.41
0.48,0.75,0.42
0.51,0.76,0.42
0.54,0.77,0.39
0.55,0.78,0.33
0.52,0.8,0.32
0.49,0.81,0.32
0.46,0.81,0.32
0.45,0.81,0.33
0.46,0.81,0.34
0.46,0.81,0.35
0.48,0.81,0.36
0.49,0.81,0.37
0.5,0.81,0.37
0.5,0.8,0.37
0.5,0.79,0.37
0.5,0.79,0.36
0.49,0.78,0.35
0.48,0.79,0.35
0.47,0.79,0.34
0.47,0.79,0.34
0.47,0.78,0.34
0.48,0.78,0.34
0.48,0.78,0.35
0.47,0.78,0.34
0.47,0.79,0.35
0.48,0.78,0.35
0.48,0.79,0.35
0.49,0.8,0.36
0.48,0.8,0.36
0.48,0.8,0.35
0.48,0.8,0.35
0.48,0.8,0.35
0.48,0.8,0.34
0.48,0.8,0.34
0.47,0.8,0.34
0.47,0.79,0.34
0.48,0.79,0.34
0.48,0.79,0.35
0.48,0.79,0.35
0.49,0.8,0.34
0.49,0.79,0.35
0.49,0.79,0.35
0.49,0.79,0.35
0.49,0.79,0.35
0.49,0.79,0.36
0.49,0.79,0.36
0.48,0.79,0.36
0.48,0.79,0.35
0.49,0.79,0.34
0.49,0.79,0.34
0.49,0.79,0.34
0.49,0.79,0.34
0.48,0.79,0.34
0.48,0.79,0.34
0.49,0.79,0.34
0.49,0.79,0.34
0.49,0.79,0.34
0.49,0.79,0.34
0.49,0.79,0.34
0.49,0.79,0.34
0.49,0.79,0.34
0.49,0.79,0.34
0.49,0.79,0.34
0.49,0.79,0.34
0.49,0.79,0.34
0.49,0.79,0.34
0.49,0.79,0.35
0.49,0.79,0.35
0.49,0.79,0.34
0.5,0.79,0.35
0.49,0.79,0.35
0.49,0.79,0.35
0.48,0.79,0.34
0.48,0.79,0.35
0.48,0.79,0.35
0.49,0.78,0.35
0.5,0.78,0.34
0.5,0.79,0.34
0.49,0.79,0.34
0.49,0.79,0.34
0.49,0.79,0.34
0.49,0.78,0.33
0.48,0.78,0.33
0.48,0.79,0.33
0.49,0.79,0.34
0.49,0.79,0.34
0.5,0.8,0.35
0.5,0.8,0.35
0.49,0.8,0.35
0.49,0.79,0.35
0.49,0.79,0.35
0.49,0.79,0.34
0.49,0.79,0.34
0.5,0.79,0.34
0.5,0.79,0.34
0.49,0.79,0.34
0.49,0.79,0.34
0.49,0.79,0.34
0.49,0.79,0.34
0.49,0.79,0.34
0.5,0.79,0.34
0.5,0.79,0.34
0.5,0.79,0.34
0.5,0.79,0.34
0.5,0.79,0.34
0.5,0.79,0.34
0.5,0.79,0.34
0.5,0.78,0.34
0.5,0.78,0.35
0.5,0.78,0.36
0.51,0.78,0.36
0.51,0.78,0.36
0.51,0.78,0.36
0.5,0.79,0.36
0.5,0.79,0.37
0.49,0.79,0.38
0.49,0.78,0.4
0.5,0.77,0.42
0.5,0.77,0.45
0.51,0.77,0.46
0.5,0.77,0.46
0.5,0.78,0.44
0.5,0.79,0.41
0.52,0.78,0.37
0.53,0.76,0.36
0.54,0.75,0.38
0.55,0.75,0.4
0.54,0.75,0.41
0.53,0.77,0.4
0.52,0.79,0.38
0.5,0.81,0.35
0.49,0.81,0.32
0.48,0.81,0.31
0.47,0.81,0.3
0.45,0.82,0.29
0.44,0.83,0.27
0.44,0.85,0.23
0.44,0.86,0.2
0.42,0.87,0.16
0.41,0.88,0.14
0.41,0.89,0.13
0.43,0.92,0.08
0.43,0.93,0.07
0.41,0.91,0.1
0.4,0.92,0.09
0.39,0.93,0.08
0.38,0.93,0.06
0.38,0.93,0.05
0.38,0.94,0.05
0.37,0.93,0.05
0.37,0.92,0.04
0.39,0.91,0.05
0.4,0.9,0.07
0.41,0.88,0.09
0.41,0.89,0.08
0.38,0.92,0.05
0.36,0.94,-0.01
0.36,0.93,-0.06
0.33,0.92,-0.07
0.32,0.91,-0.06
0.34,0.87,-0.05
0.38,0.83,-0.03
0.24,0.83,-0.38
1.23,0.19,0.37
1.66,-0.04,2.6
0.9,0.47,2.2
0.65,0.87,0.48
0.2,1.02,0.26
-0.01,0.85,0.28
0.21,0.8,0.29
0.46,0.8,0.24
0.56,0.82,0.24
0.53,0.77,0.31
0.45,0.75,0.38
0.45,0.75,0.35
0.45,0.75,0.33
0.4,0.74,0.35
0.37,0.72,0.38
0.4,0.73,0.39
0.44,0.74,0.39
0.47,0.76,0.37
0.54,0.77,0.35
0.55,0.78,0.33
0.55,0.79,0.31
0.54,0.79,0.3
0.52,0.8,0.3
0.5,0.81,0.3
0.5,0.82,0.3
0.5,0.82,0.31
0.5,0.83,0.32
0.51,0.83,0.33
0.52,0.83,0.34
0.53,0.82,0.35
0.53,0.81,0.35
0.52,0.81,0.34
0.51,0.81,0.33
0.5,0.8,0.32
0.49,0.79,0.31
0.49,0.79,0.32
0.49,0.78,0.32
0.49,0.78,0.33
0.49,0.78,0.34
0.49,0.78,0.35
0.5,0.78,0.35
0.5,0.78,0.34
0.49,0.78,0.33
0.49,0.79,0.33
0.49,0.79,0.33
0.5,0.79,0.32
0.5,0.79,0.32
0.5,0.79,0.32
0.49,0.79,0.32
0.49,0.8,0.31
0.49,0.8,0.31
0.49,0.8,0.31
0.5,0.8,0.3
0.5,0.8,0.3
0.5,0.8,0.3
0.5,0.8,0.3
0.5,0.8,0.31
0.5,0.8,0.32
0.51,0.8,0.32
0.51,0.79,0.32
0.51,0.8,0.33
0.51,0.8,0.33
0.51,0.8,0.33
0.5,0.8,0.33
0.5,0.81,0.32
0.5,0.81,0.32
0.49,0.81,0.32
0.49,0.81,0.33
0.49,0.82,0.33
0.5,0.83,0.33
0.5,0.85,0.33
0.5,0.86,0.32
0.49,0.88,0.31
0.48,0.9,0.32
0.47,0.92,0.35
0.45,0.94,0.39
0.43,0.96,0.42
0.42,0.98,0.46
0.41,0.99,0.49
0.42,0.97,0.52
0.44,0.95,0.56
0.46,0.93,0.58
0.48,0.9,0.57
0.49,0.86,0.53
0.49,0.84,0.49
0.46,0.84,0.44
0.43,0.83,0.39
0.42,0.81,0.35
0.42,0.79,0.31
0.42,0.77,0.31
0.41,0.75,0.32
0.42,0.73,0.33
0.44,0.72,0.34
0.45,0.71,0.36
0.44,0.71,0.37
0.41,0.71,0.39
0.4,0.72,0.38
0.41,0.73,0.4
0.42,0.73,0.43
0.42,0.72,0.46
0.42,0.73,0.49
0.42,0.74,0.49
0.43,0.75,0.48
0.45,0.75,0.47
0.45,0.75,0.45
0.44,0.76,0.45
0.44,0.76,0.45
0.44,0.76,0.46
0.44,0.76,0.45
0.44,0.76,0.45
0.46,0.76,0.45
0.47,0.75,0.44
0.47,0.75,0.45
0.48,0.74,0.46
0.48,0.74,0.46
0.48,0.74,0.46
0.47,0.75,0.47
0.48,0.73,0.45
0.51,0.7,0.44
0.5,0.7,0.45
0.49,0.71,0.45
0.5,0.71,0.45
0.5,0.73,0.48
0.5,0.74,0.5
0.49,0.74,0.53
0.49,0.73,0.53
0.48,0.73,0.53
0.47,0.73,0.54
0.46,0.73,0.55
0.45,0.73,0.54
0.45,0.73,0.53
0.45,0.73,0.53
0.44,0.74,0.53
0.44,0.74,0.54
0.44,0.74,0.54
0.44,0.74,0.55
0.44,0.74,0.55
0.44,0.74,0.55
0.45,0.73,0.55
0.45,0.72,0.54
0.46,0.73,0.54
0.47,0.73,0.54
0.49,0.72,0.55
0.49,0.72,0.55
0.5,0.72,0.55
0.49,0.72,0.55
0.49,0.71,0.53
0.48,0.71,0.51
0.48,0.72,0.48
0.5,0.72,0.48
0.53,0.71,0.48
0.56,0.7,0.47
0.58,0.69,0.46
0.58,0.68,0.44
0.58,0.68,0.42
0.56,0.69,0.4
0.54,0.69,0.38
0.52,0.69,0.37
0.5,0.68,0.37
0.48,0.67,0.37
0.48,0.64,0.37
0.48,0.63,0.37
0.49,0.63,0.36
0.51,0.63,0.34
0.51,0.64,0.32
0.52,0.65,0.3
0.53,0.66,0.29
0.54,0.66,0.28
0.54,0.66,0.28
0.54,0.66,0.28
0.53,0.67,0.28
0.51,0.68,0.27
0.5,0.69,0.25
0.49,0.72,0.23
0.48,0.75,0.2
0.5,0.91,0.19
0.55,1.2,0.2
0.57,1.27,0.3
0.53,1.01,0.37
0.47,0.82,0.29
0.42,0.77,0.18
0.39,0.74,0.11
0.39,0.76,0.09
0.41,0.82,0.11
0.46,0.82,0.17
0.5,0.8,0.18
0.54,0.83,0.15
0.57,0.89,0.11
0.57,0.89,0.08
0.51,0.83,0.09
0.45,0.83,0.12
0.42,0.85,0.17
0.42,0.89,0.23
0.42,0.91,0.24
0.39,0.9,0.23
0.37,0.89,0.19
0.37,0.89,0.16
0.36,0.89,0.13
0.37,0.9,0.1
0.42,0.9,0.1
0.44,0.9,0.13
0.43,0.9,0.14
0.43,0.89,0.14
0.42,0.89,0.13
0.43,0.88,0.14
0.43,0.88,0.17
0.43,0.87,0.19
0.44,0.86,0.22
0.44,0.85,0.23
0.45,0.85,0.23
0.46,0.86,0.23
0.46,0.86,0.24
0.47,0.85,0.25
0.47,0.85,0.26
0.47,0.85,0.26
0.48,0.85,0.25
0.48,0.85,0.25
0.48,0.85,0.24
0.47,0.85,0.24
0.46,0.85,0.24
0.46,0.85,0.25
0.45,0.84,0.26
0.44,0.85,0.26
0.44,0.85,0.25
0.44,0.86,0.25
0.44,0.86,0.24
0.43,0.86,0.24
0.42,0.86,0.24
0.41,0.86,0.24
0.4,0.86,0.25
0.4,0.86,0.26
0.4,0.86,0.27
0.41,0.86,0.29
0.41,0.86,0.29
0.43,0.86,0.29
0.43,0.86,0.29
0.43,0.85,0.3
0.43,0.86,0.3
0.41,0.86,0.29
0.39,0.86,0.28
0.38,0.86,0.28
0.37,0.85,0.3
0.38,0.86,0.31
0.4,0.86,0.32
0.41,0.85,0.33
0.4,0.86,0.33
0.39,0.86,0.32
0.38,0.86,0.31
0.36,0.86,0.29
0.35,0.86,0.28
0.35,0.87,0.3
0.36,0.86,0.32
0.37,0.86,0.34
0.41,0.86,0.34
0.42,0.86,0.33
0.42,0.86,0.29
0.42,0.85,0.25
0.42,0.85,0.26
0.4,0.85,0.34
0.39,0.86,0.42
0.41,0.86,0.45
0.44,0.85,0.46
0.45,0.84,0.43
0.43,0.84,0.4
0.4,0.85,0.37
0.36,0.86,0.33
0.33,0.86,0.3
0.31,0.87,0.28
0.29,0.88,0.25
0.28,0.9,0.23
0.28,0.91,0.2
0.27,0.91,0.17
0.26,0.92,0.16
0.24,0.92,0.14
0.24,0.93,0.12
0.24,0.93,0.1
0.23,0.95,0.08
0.21,0.95,0.06
0.21,0.95,0.02
0.2,0.96,0.01
0.18,0.97,-0.02
0.15,0.98,-0.06
0.13,1,-0.11
0.11,0.99,-0.14
0.11,0.99,-0.15
0.11,0.98,-0.15
0.12,0.98,-0.14
0.15,0.97,-0.11
0.17,0.96,-0.08
0.2,0.95,-0.05
0.2,0.95,-0.01
0.2,0.93,0.02
0.17,0.91,0.03
0.14,0.9,0.02
0.13,0.88,-0.01
0.17,0.83,-0.02
0.21,0.79,0.01
0.36,0.74,-0.1
2.12,-0.72,1.87
2.27,-0.78,2.48
0.57,1.04,0.84
-0.01,1.24,0.53
-0.36,0.71,0.29
-0.2,0.54,0.16
0.12,0.7,0.08
0.46,1.05,-0.01
0.51,1.02,0.07
0.47,0.9,0.21
0.38,0.88,0.37
0.31,0.91,0.48
0.31,0.87,0.49
0.3,0.82,0.47
0.29,0.82,0.45
0.33,0.81,0.43
0.36,0.81,0.41
0.37,0.81,0.39
0.35,0.83,0.39
0.35,0.84,0.38
0.37,0.85,0.36
0.39,0.85,0.35
0.38,0.86,0.34
0.37,0.87,0.33
0.36,0.86,0.33
0.35,0.86,0.32
0.35,0.85,0.33
0.35,0.85,0.34
0.35,0.85,0.35
0.36,0.86,0.35
0.36,0.86,0.35
0.35,0.85,0.34
0.35,0.86,0.34
0.35,0.86,0.33
0.35,0.86,0.33
0.35,0.86,0.34
0.35,0.85,0.35
0.35,0.85,0.35
0.36,0.85,0.35
0.36,0.85,0.35
0.36,0.85,0.35
0.35,0.85,0.36
0.35,0.85,0.36
0.35,0.85,0.37
0.35,0.85,0.37
0.35,0.85,0.36
0.35,0.85,0.36
0.35,0.85,0.36
0.35,0.85,0.36
0.34,0.85,0.38
0.34,0.85,0.38
0.34,0.85,0.38
0.34,0.85,0.38
0.34,0.85,0.38
0.34,0.85,0.38
0.34,0.85,0.37
0.34,0.85,0.37
0.34,0.85,0.36
0.35,0.85,0.36
0.35,0.85,0.35
0.36,0.85,0.35
0.36,0.85,0.35
0.35,0.85,0.35
0.35,0.85,0.35
0.35,0.85,0.35
0.35,0.85,0.35
0.35,0.86,0.35
0.35,0.86,0.34
0.35,0.85,0.34
0.35,0.86,0.34
0.35,0.86,0.35
0.35,0.86,0.36
0.35,0.86,0.36
0.35,0.85,0.36
0.35,0.85,0.37
0.35,0.85,0.37
0.35,0.85,0.37
0.35,0.85,0.37
0.34,0.85,0.37
0.34,0.85,0.36
0.34,0.85,0.36
0.35,0.85,0.36
0.35,0.85,0.36
0.35,0.86,0.36
0.34,0.86,0.36
0.35,0.85,0.36
0.34,0.85,0.36
0.34,0.85,0.37
0.35,0.85,0.37
0.35,0.85,0.38
0.35,0.85,0.38
0.34,0.85,0.38
0.34,0.85,0.38
0.34,0.85,0.37
0.33,0.85,0.36
0.33,0.85,0.36
0.33,0.85,0.36
0.33,0.85,0.37
0.33,0.85,0.37
0.33,0.85,0.37
0.34,0.85,0.36
0.34,0.85,0.35
0.35,0.85,0.35
0.35,0.85,0.35
0.36,0.85,0.35
0.36,0.85,0.35
0.36,0.85,0.35
0.36,0.85,0.35
0.36,0.85,0.35
0.35,0.85,0.35
0.35,0.85,0.36
0.34,0.85,0.36
0.35,0.85,0.36
0.35,0.85,0.36
0.35,0.85,0.36
0.35,0.85,0.36
0.35,0.85,0.36
0.34,0.85,0.37
0.34,0.85,0.38
0.35,0.85,0.38
0.35,0.84,0.39
0.35,0.84,0.38
0.34,0.84,0.38
0.34,0.85,0.38
0.33,0.85,0.37
0.33,0.85,0.37
0.32,0.85,0.38
0.32,0.84,0.4
0.33,0.83,0.43
0.34,0.83,0.45
0.35,0.84,0.47
0.35,0.85,0.46
0.33,0.85,0.44
0.34,0.84,0.42
0.37,0.84,0.38
0.4,0.84,0.35
0.44,0.83,0.37
0.45,0.82,0.42
0.45,0.83,0.44
0.46,0.84,0.46
0.43,0.84,0.46
0.36,0.84,0.45
0.33,0.84,0.43
0.32,0.85,0.4
0.3,0.86,0.38
0.29,0.86,0.36
0.29,0.86,0.35
0.28,0.87,0.33
0.27,0.89,0.31
0.25,0.89,0.29
0.24,0.9,0.28
0.23,0.9,0.26
0.23,0.9,0.24
0.23,0.9,0.23
0.23,0.91,0.22
0.23,0.92,0.22
0.23,0.93,0.21
0.22,0.92,0.2
0.22,0.92,0.19
0.23,0.93,0.19
0.22,0.93,0.19
0.21,0.93,0.19
0.21,0.93,0.18
0.22,0.93,0.18
0.23,0.92,0.18
0.23,0.93,0.18
0.23,0.93,0.18
0.23,0.93,0.17
0.23,0.92,0.17
0.24,0.92,0.19
0.25,0.92,0.21
0.25,0.93,0.22
0.23,0.93,0.19
0.22,0.94,0.13
0.2,0.94,0.07
0.18,0.94,0.04
0.2,0.95,0.01
0.21,0.95,0
0.21,0.93,0.01
0.22,0.93,0.04
0.21,0.92,0.06
0.19,0.91,0.07
0.19,0.88,0.06
0.2,0.86,0.06
0.19,0.84,0.07
0.21,0.78,-0.01
1.11,0.05,1.1
1.82,-0.08,2.91
1.17,1,2.25
0.38,1.49,0.65
-0.18,1.04,0.26
-0.47,0.56,0.16
-0.2,0.59,-0.02
0.38,1.02,0
0.35,1.04,0.17
0.34,0.93,0.4
0.43,0.86,0.54
0.43,0.88,0.54
0.36,0.89,0.45
0.27,0.83,0.37
0.22,0.8,0.35
0.23,0.8,0.39
0.27,0.82,0.44
0.28,0.83,0.49
0.27,0.83,0.51
0.26,0.83,0.5
0.27,0.84,0.47
0.29,0.84,0.43
0.31,0.85,0.4
0.31,0.85,0.39
0.3,0.86,0.4
0.3,0.85,0.4
0.3,0.85,0.4
0.3,0.85,0.39
0.31,0.85,0.38
0.32,0.85,0.38
0.33,0.85,0.39
0.33,0.86,0.39
0.34,0.86,0.38
0.33,0.86,0.37
0.33,0.85,0.36
0.34,0.85,0.35
0.34,0.85,0.36
0.34,0.85,0.37
0.33,0.85,0.37
0.32,0.85,0.38
0.32,0.85,0.39
0.33,0.86,0.39
0.33,0.85,0.39
0.32,0.85,0.39
0.31,0.86,0.39
0.3,0.86,0.39
0.29,0.85,0.38
0.29,0.85,0.38
0.29,0.85,0.38
0.3,0.86,0.39
0.3,0.85,0.39
0.3,0.85,0.39
0.3,0.85,0.39
0.3,0.85,0.4
0.3,0.85,0.4
0.3,0.85,0.4
0.3,0.85,0.41
0.3,0.85,0.41
0.3,0.85,0.4
0.31,0.85,0.41
0.31,0.85,0.4
0.31,0.85,0.4
0.32,0.85,0.4
0.31,0.85,0.4
0.31,0.85,0.4
0.31,0.85,0.4
0.31,0.85,0.4
0.31,0.85,0.4
0.3,0.85,0.4
0.3,0.85,0.4
0.29,0.85,0.4
0.29,0.85,0.4
0.3,0.85,0.41
0.29,0.85,0.41
0.29,0.85,0.41
0.29,0.85,0.41
0.29,0.85,0.41
0.29,0.85,0.41
0.29,0.85,0.41
0.3,0.85,0.41
0.29,0.85,0.41
0.29,0.84,0.41
0.29,0.84,0.4
0.3,0.85,0.4
0.3,0.85,0.4
0.31,0.85,0.4
0.31,0.85,0.4
0.31,0.85,0.39
0.31,0.85,0.39
0.31,0.85,0.4
0.31,0.85,0.4
0.3,0.85,0.4
0.3,0.85,0.4
0.3,0.85,0.4
0.3,0.85,0.4
0.3,0.85,0.39
0.3,0.85,0.39
0.3,0.85,0.39
0.3,0.85,0.39
0.31,0.85,0.4
0.32,0.85,0.4
0.32,0.85,0.41
0.32,0.85,0.41
0.32,0.85,0.41
0.32,0.85,0.4
0.32,0.85,0.4
0.32,0.85,0.39
0.32,0.84,0.39
0.32,0.84,0.38
0.32,0.84,0.39
0.32,0.85,0.39
0.32,0.85,0.4
0.31,0.85,0.41
0.3,0.85,0.42
0.29,0.84,0.42
0.28,0.84,0.42
0.28,0.85,0.42
0.28,0.85,0.42
0.29,0.85,0.42
0.29,0.85,0.42
0.29,0.85,0.41
0.3,0.85,0.41
0.3,0.85,0.4
0.31,0.85,0.4
0.31,0.85,0.4
0.31,0.85,0.4
0.31,0.85,0.39
0.31,0.85,0.38
0.31,0.85,0.38
0.32,0.85,0.37
0.33,0.85,0.37
0.34,0.85,0.37
0.34,0.85,0.37
0.34,0.85,0.37
0.34,0.85,0.37
0.34,0.85,0.38
0.34,0.85,0.38
0.34,0.85,0.39
0.33,0.84,0.39
0.32,0.84,0.39
0.32,0.85,0.39
0.32,0.85,0.39
0.31,0.85,0.39
0.32,0.85,0.38
0.32,0.85,0.38
0.32,0.85,0.38
0.32,0.85,0.38
0.32,0.85,0.37
0.32,0.85,0.38
0.32,0.85,0.38
0.33,0.85,0.38
0.33,0.85,0.38
0.33,0.85,0.38
0.33,0.85,0.38
0.33,0.84,0.38
0.33,0.84,0.39
0.34,0.85,0.39
0.33,0.84,0.4
0.33,0.84,0.4
0.32,0.85,0.4
0.31,0.85,0.4
0.31,0.85,0.39
0.31,0.85,0.39
0.31,0.85,0.39
0.31,0.85,0.39
0.31,0.85,0.39
0.31,0.85,0.39
0.31,0.85,0.39
0.31,0.85,0.39
0.31,0.85,0.39
0.31,0.85,0.39
0.31,0.85,0.39
0.31,0.85,0.39
0.31,0.85,0.39
0.31,0.85,0.39
0.31,0.85,0.39
0.32,0.85,0.39
0.32,0.85,0.39
0.32,0.85,0.39
0.32,0.85,0.39
0.32,0.85,0.39
0.32,0.85,0.39
0.31,0.85,0.39
0.31,0.85,0.39
0.31,0.85,0.39
0.32,0.85,0.38
0.32,0.85,0.38
0.33,0.85,0.38
0.33,0.85,0.39
0.32,0.85,0.39
0.32,0.85,0.38
0.32,0.85,0.38
0.32,0.85,0.38
0.33,0.85,0.38
0.33,0.85,0.38
0.33,0.85,0.38
0.34,0.85,0.39
0.34,0.85,0.39
0.34,0.85,0.39
0.34,0.84,0.39
0.33,0.84,0.38
0.33,0.85,0.38
0.32,0.85,0.38
0.32,0.85,0.39
0.32,0.85,0.39
0.31,0.85,0.39
0.31,0.85,0.39
0.32,0.85,0.39
0.31,0.85,0.4
0.31,0.85,0.4
0.3,0.85,0.4
0.31,0.85,0.4
0.32,0.85,0.4
0.32,0.85,0.4
0.32,0.85,0.4
0.32,0.85,0.39
0.32,0.85,0.38
0.32,0.85,0.38
0.32,0.85,0.38
0.32,0.85,0.38
0.33,0.85,0.37
0.33,0.85,0.37
0.33,0.85,0.37
0.33,0.85,0.37
0.33,0.86,0.37
0.34,0.85,0.37
0.34,0.85,0.37
0.34,0.85,0.37
0.33,0.85,0.38
0.33,0.85,0.38
0.33,0.85,0.39
0.33,0.85,0.39
0.33,0.85,0.39
0.33,0.84,0.4
0.32,0.84,0.4
0.32,0.84,0.4
0.32,0.84,0.41
0.32,0.85,0.41
0.31,0.85,0.4
0.31,0.85,0.4
0.31,0.85,0.39
0.32,0.85,0.38
0.31,0.86,0.37
0.31,0.85,0.36
0.32,0.85,0.37
0.32,0.85,0.37
0.32,0.86,0.38
0.32,0.85,0.38
0.32,0.85,0.39
0.32,0.85,0.39
0.32,0.85,0.39
0.32,0.85,0.39
0.33,0.85,0.39
0.33,0.85,0.39
0.33,0.85,0.39
0.33,0.85,0.38
0.33,0.84,0.39
0.33,0.85,0.39
0.33,0.85,0.39
0.32,0.85,0.39
0.33,0.85,0.38
0.33,0.85,0.38
0.32,0.85,0.38
0.33,0.85,0.38
0.33,0.85,0.38
0.33,0.85,0.38
0.33,0.85,0.39
0.32,0.85,0.39
0.32,0.85,0.4
0.33,0.85,0.4
0.33,0.84,0.4
0.33,0.84,0.39
0.33,0.85,0.39
0.34,0.85,0.39
0.34,0.85,0.39
0.33,0.85,0.39
0.33,0.85,0.39
0.33,0.85,0.39
0.33,0.85,0.39
0.33,0.85,0.39
0.32,0.85,0.39
0.32,0.84,0.39
0.31,0.85,0.39
0.31,0.85,0.39
0.32,0.85,0.39
0.32,0.85,0.39
0.32,0.85,0.39
0.31,0.85,0.39
0.31,0.85,0.39
0.31,0.85,0.39
0.31,0.85,0.39
0.31,0.85,0.4
0.32,0.85,0.4
0.32,0.85,0.39
0.33,0.85,0.39
0.33,0.85,0.39
0.33,0.84,0.38
0.33,0.84,0.38
0.33,0.84,0.39
0.32,0.85,0.38
0.32,0.85,0.38
0.32,0.85,0.39
0.33,0.85,0.39
0.33,0.85,0.39
0.33,0.85,0.39
0.33,0.85,0.39
0.33,0.85,0.38
0.33,0.85,0.38
0.33,0.85,0.38
0.33,0.85,0.38
0.33,0.85,0.38
0.33,0.85,0.37
0.33,0.85,0.38
0.33,0.84,0.38
0.32,0.85,0.38
0.32,0.85,0.38
0.3,0.84,0.41
0.32,0.84,0.4
0.33,0.84,0.4
0.34,0.84,0.4
0.34,0.84,0.4
0.34,0.83,0.4
0.33,0.84,0.4
0.33,0.84,0.4
0.34,0.84,0.41
0.35,0.84,0.41
0.34,0.84,0.42
0.33,0.84,0.44
0.34,0.83,0.48
0.34,0.83,0.5
0.34,0.83,0.51
0.32,0.84,0.52
0.3,0.84,0.51
0.28,0.84,0.49
0.28,0.84,0.47
0.28,0.84,0.44
0.29,0.83,0.39
0.33,0.83,0.36
0.39,0.84,0.38
0.41,0.83,0.39
0.41,0.83,0.42
0.42,0.83,0.45
0.44,0.83,0.45
0.44,0.83,0.42
0.43,0.83,0.39
0.43,0.82,0.36
0.43,0.83,0.33
0.41,0.84,0.31
0.38,0.86,0.28
0.37,0.86,0.25
0.37,0.86,0.23
0.36,0.88,0.23
0.34,0.88,0.19
0.32,0.89,0.17
0.33,0.9,0.15
0.32,0.9,0.13
0.31,0.91,0.13
0.31,0.91,0.12
0.29,0.92,0.11
0.28,0.93,0.09
0.28,0.93,0.06
0.28,0.93,0.07
0.27,0.94,0.05
0.26,0.95,0
0.26,0.96,-0.01
0.26,0.96,-0.03
0.25,0.96,-0.04
0.24,0.96,-0.05
0.25,0.95,-0.04
0.26,0.94,-0.03
0.27,0.94,-0.01
0.26,0.95,-0.02
0.23,0.97,-0.06
0.18,0.97,-0.11
0.14,0.96,-0.15
0.09,0.94,-0.15
0.06,0.94,-0.14
0.06,0.93,-0.13
0.07,0.89,-0.09
0.13,0.85,-0.08
0.18,0.8,-0.07
0.22,0.6,-0.96
1.08,0.31,-1.45
2.02,1.86,1.46
1.04,1.98,2.94
0.04,1.16,1.05
0,1.23,0.12
-0.13,0.39,0.14
-0.06,0.44,0.08
0.18,0.79,-0.12
0.48,0.95,-0.22
0.64,1.05,-0.17
0.47,0.96,0.05
0.4,0.81,0.25
0.52,0.85,0.33
0.63,0.94,0.36
0.56,0.89,0.43
0.38,0.76,0.47
0.42,0.76,0.4
0.48,0.8,0.35
0.48,0.8,0.34
0.46,0.78,0.34
0.46,0.78,0.35
0.47,0.8,0.36
0.49,0.82,0.34
0.49,0.82,0.33
0.45,0.83,0.33
0.43,0.83,0.33
0.42,0.83,0.34
0.41,0.83,0.34
0.41,0.83,0.35
0.4,0.83,0.35
0.4,0.82,0.36
0.4,0.82,0.36
0.38,0.82,0.36
0.38,0.83,0.36
0.39,0.83,0.36
0.39,0.83,0.37
0.39,0.83,0.38
0.38,0.83,0.38
0.37,0.83,0.38
0.37,0.83,0.38
0.38,0.83,0.38
0.38,0.83,0.38
0.39,0.82,0.37
0.39,0.82,0.37
0.4,0.82,0.37
0.4,0.83,0.37
0.4,0.83,0.36
0.4,0.83,0.36
0.4,0.82,0.36
0.4,0.83,0.35
0.4,0.83,0.36
0.4,0.83,0.36
0.41,0.83,0.35
0.42,0.83,0.35
0.42,0.83,0.35
0.42,0.83,0.35
0.42,0.83,0.35
0.42,0.83,0.35
0.41,0.83,0.35
0.41,0.83,0.35
0.42,0.83,0.35
0.42,0.83,0.35
0.42,0.83,0.35
0.42,0.83,0.35
0.42,0.83,0.36
0.41,0.83,0.37
0.41,0.83,0.37
0.4,0.83,0.36
0.4,0.83,0.36
0.4,0.83,0.36
0.4,0.82,0.35
0.42,0.83,0.36
0.42,0.83,0.36
0.41,0.83,0.35
0.42,0.82,0.35
0.42,0.82,0.35
0.42,0.82,0.35
0.43,0.82,0.35
0.43,0.82,0.35
0.43,0.82,0.36
0.42,0.82,0.36
0.41,0.82,0.36
0.41,0.82,0.36
0.4,0.83,0.37
0.4,0.83,0.37
0.39,0.83,0.37
0.39,0.83,0.37
0.39,0.83,0.36
0.38,0.83,0.36
0.39,0.83,0.36
0.39,0.83,0.36
0.39,0.83,0.36
0.39,0.83,0.36
0.4,0.83,0.36
0.4,0.83,0.36
0.4,0.83,0.36
0.4,0.82,0.36
0.41,0.82,0.36
0.41,0.82,0.36
0.41,0.82,0.36
0.41,0.82,0.36
0.42,0.83,0.36
0.42,0.83,0.36
0.42,0.82,0.36
0.43,0.82,0.35
0.43,0.82,0.35
0.43,0.82,0.35
0.43,0.82,0.35
0.43,0.82,0.35
0.42,0.83,0.35
0.42,0.83,0.35
0.41,0.83,0.35
0.41,0.83,0.35
0.42,0.83,0.35
0.42,0.83,0.35
0.41,0.83,0.35
0.41,0.83,0.36
0.41,0.82,0.36
0.41,0.82,0.36
0.41,0.82,0.37
0.41,0.82,0.37
0.41,0.82,0.36
0.41,0.82,0.36
0.41,0.83,0.36
0.41,0.83,0.35
0.41,0.83,0.35
0.41,0.83,0.35
0.4,0.82,0.36
0.4,0.82,0.36
0.4,0.83,0.36
0.4,0.82,0.36
0.41,0.82,0.37
0.42,0.82,0.38
0.42,0.82,0.38
0.41,0.82,0.38
0.41,0.82,0.37
0.4,0.82,0.37
0.4,0.83,0.36
0.41,0.83,0.36
0.41,0.83,0.36
0.42,0.82,0.36
0.42,0.82,0.37
0.41,0.82,0.37
0.41,0.82,0.37
0.41,0.82,0.36
0.41,0.82,0.36
0.41,0.82,0.36
0.41,0.82,0.37
0.41,0.82,0.37
0.41,0.82,0.37
0.41,0.82,0.36
0.41,0.82,0.36
0.41,0.82,0.36
0.41,0.82,0.36
0.41,0.82,0.36
0.41,0.82,0.36
0.41,0.82,0.36
0.41,0.82,0.36
0.41,0.83,0.36
0.41,0.83,0.36
0.41,0.82,0.35
0.42,0.82,0.35
0.41,0.82,0.35
0.42,0.82,0.36
0.42,0.82,0.37
0.41,0.82,0.37
0.41,0.82,0.38
0.41,0.82,0.38
0.41,0.83,0.38
0.4,0.82,0.38
0.4,0.82,0.4
0.4,0.82,0.42
0.41,0.81,0.44
0.4,0.82,0.44
0.39,0.82,0.43
0.38,0.82,0.41
0.38,0.82,0.39
0.39,0.82,0.37
0.39,0.82,0.38
0.38,0.81,0.38
0.38,0.8,0.39
0.38,0.81,0.41
0.39,0.82,0.42
0.41,0.82,0.43
0.43,0.82,0.43
0.46,0.81,0.42
0.48,0.81,0.41
0.48,0.81,0.39
0.47,0.81,0.38
0.47,0.81,0.37
0.48,0.82,0.35
0.48,0.83,0.34
0.48,0.83,0.33
0.48,0.82,0.33
0.47,0.83,0.34
0.47,0.83,0.33
0.46,0.84,0.27
0.43,0.84,0.25
0.42,0.84,0.23
0.41,0.85,0.22
0.4,0.86,0.21
0.4,0.87,0.2
0.4,0.87,0.2
0.39,0.87,0.2
0.38,0.88,0.21
0.38,0.88,0.21
0.37,0.89,0.19
0.36,0.89,0.18
0.35,0.89,0.17
0.34,0.9,0.16
0.34,0.9,0.15
0.33,0.91,0.14
0.32,0.91,0.13
0.31,0.91,0.12
0.3,0.91,0.11
0.3,0.92,0.1
0.29,0.92,0.09
0.27,0.93,0.07
0.26,0.94,0.05
0.25,0.95,0.02
0.23,0.95,0
0.22,0.96,-0.03
0.21,0.96,-0.08
0.22,0.96,-0.09
0.22,0.96,-0.09
0.21,0.96,-0.11
0.19,0.96,-0.16
0.17,0.95,-0.21
0.16,0.94,-0.23
0.17,0.92,-0.24
0.18,0.9,-0.22
0.18,0.88,-0.19
0.19,0.86,-0.15
0.22,0.82,-0.12
0.26,0.77,-0.11
2.13,-0.35,1.92
2.3,-0.69,2.3
0.5,0.89,0.48
0.14,1.42,0.27
-0.21,0.8,0.17
-0.07,0.46,0.07
0.35,0.61,-0.04
0.48,0.9,-0.11
0.53,1.06,-0.07
0.62,0.99,0.15
0.47,0.86,0.46
0.4,0.85,0.56
0.34,0.89,0.55
0.22,0.87,0.38
0.37,0.79,0.31
0.4,0.8,0.3
0.44,0.81,0.32
0.45,0.81,0.36
0.42,0.8,0.38
0.42,0.82,0.37
0.43,0.83,0.36
0.42,0.84,0.34
0.42,0.84,0.33
0.42,0.85,0.31
0.42,0.85,0.31
0.41,0.84,0.32
0.41,0.84,0.32
0.41,0.83,0.33
0.41,0.83,0.33
0.42,0.83,0.33
0.43,0.83,0.34
0.42,0.84,0.33
0.42,0.84,0.32
0.41,0.84,0.32
0.4,0.85,0.31
0.4,0.84,0.31
0.4,0.84,0.32
0.4,0.83,0.33
0.4,0.83,0.34
0.41,0.83,0.35
0.41,0.83,0.35
0.41,0.83,0.35
0.41,0.83,0.34
0.4,0.83,0.34
0.4,0.83,0.34
0.4,0.84,0.34
0.4,0.84,0.34
0.4,0.84,0.34
0.4,0.84,0.34
0.41,0.84,0.33
0.42,0.83,0.33
0.42,0.83,0.33
0.42,0.84,0.33
0.41,0.84,0.33
0.41,0.83,0.33
0.41,0.83,0.33
0.41,0.83,0.33
0.41,0.83,0.33
0.41,0.83,0.33
0.41,0.83,0.34
0.41,0.83,0.34
0.41,0.83,0.34
0.41,0.84,0.34
0.41,0.84,0.34
0.41,0.83,0.34
0.41,0.83,0.34
0.4,0.84,0.33
0.4,0.84,0.33
0.41,0.84,0.33
0.41,0.83,0.33
0.41,0.83,0.33
0.4,0.84,0.33
0.4,0.84,0.33
0.41,0.84,0.33
0.41,0.84,0.33
0.41,0.84,0.34
0.41,0.84,0.34
0.42,0.83,0.35
0.42,0.83,0.35
0.41,0.83,0.35
0.41,0.83,0.35
0.41,0.84,0.34
0.41,0.83,0.34
0.41,0.84,0.34
0.4,0.83,0.33
0.4,0.83,0.33
0.4,0.84,0.33
0.41,0.84,0.34
0.4,0.84,0.34
0.41,0.84,0.34
0.41,0.84,0.33
0.41,0.84,0.33
0.42,0.83,0.33
0.42,0.83,0.33
0.42,0.84,0.33
0.42,0.84,0.33
0.42,0.83,0.33
0.42,0.83,0.34
0.42,0.83,0.34
0.42,0.83,0.34
0.41,0.83,0.34
0.41,0.83,0.34
0.41,0.83,0.35
0.41,0.83,0.35
0.4,0.83,0.35
0.4,0.83,0.35
0.4,0.83,0.35
0.41,0.83,0.37
0.42,0.82,0.39
0.42,0.83,0.4
0.42,0.84,0.39
0.39,0.82,0.39
0.38,0.82,0.39
0.39,0.83,0.39
0.41,0.83,0.39
0.43,0.83,0.4
0.43,0.83,0.41
0.43,0.84,0.4
0.43,0.83,0.36
0.41,0.83,0.34
0.4,0.83,0.33
0.43,0.83,0.34
0.45,0.82,0.37
0.49,0.82,0.4
0.52,0.82,0.42
0.53,0.82,0.43
0.53,0.82,0.41
0.51,0.82,0.39
0.47,0.82,0.38
0.46,0.82,0.35
0.44,0.83,0.33
0.42,0.84,0.31
0.39,0.84,0.29
0.37,0.85,0.28
0.35,0.86,0.27
0.32,0.87,0.26
0.3,0.88,0.24
0.28,0.9,0.2
0.28,0.9,0.19
0.28,0.91,0.17
0.27,0.92,0.16
0.26,0.92,0.14
0.25,0.92,0.13
0.25,0.92,0.12
0.25,0.92,0.12
0.26,0.93,0.12
0.27,0.93,0.12
0.27,0.93,0.11
0.27,0.94,0.11
0.27,0.93,0.11
0.27,0.93,0.11
0.27,0.93,0.11
0.28,0.94,0.11
0.27,0.94,0.11
0.27,0.95,0.11
0.25,0.94,0.11
0.23,0.94,0.11
0.21,0.94,0.11
0.2,0.94,0.12
0.2,0.95,0.11
0.19,0.95,0.11
0.19,0.95,0.1
0.18,0.95,0.1
0.17,0.95,0.11
0.16,0.96,0.11
0.15,0.96,0.1
0.14,0.96,0.1
0.13,0.96,0.09
0.13,0.96,0.08
0.13,0.96,0.07
0.13,0.97,0.05
0.12,0.97,0.02
0.11,0.97,-0.01
0.11,0.95,-0.03
0.12,0.95,-0.05
0.14,0.95,-0.05
0.15,0.94,-0.03
0.13,0.93,-0.03
0.11,0.91,-0.05
0.08,0.88,-0.06
0.06,0.85,-0.06
0.08,0.82,-0.05
0.11,0.8,-0.02
0.15,0.76,0.01
2.07,-0.6,1.41
2.08,-1.22,2.41
0.17,0.51,1.26
-0.09,1.35,0.46
-0.52,0.81,0.35
-0.46,0.52,0.16
0.32,0.8,0.06
0.56,1.02,0.01
0.61,1.03,0.19
0.59,0.88,0.43
0.6,0.83,0.53
0.47,0.91,0.51
0.38,0.95,0.47
0.32,0.86,0.41
0.31,0.78,0.37
0.31,0.78,0.39
0.31,0.8,0.44
0.31,0.8,0.49
0.29,0.81,0.5
0.3,0.82,0.49
0.32,0.82,0.45
0.34,0.82,0.4
0.36,0.82,0.37
0.36,0.84,0.35
0.37,0.85,0.35
0.37,0.84,0.35
0.36,0.84,0.36
0.37,0.83,0.37
0.38,0.83,0.38
0.39,0.83,0.38
0.4,0.83,0.39
0.4,0.83,0.39
0.4,0.83,0.38
0.4,0.83,0.37
0.4,0.84,0.37
0.39,0.83,0.38
0.39,0.83,0.38
0.38,0.83,0.39
0.38,0.83,0.39
0.37,0.82,0.39
0.36,0.82,0.39
0.36,0.83,0.39
0.36,0.83,0.4
0.36,0.83,0.4
0.36,0.84,0.39
0.35,0.83,0.4
0.34,0.83,0.39
0.34,0.83,0.39
0.34,0.83,0.39
0.34,0.83,0.4
0.34,0.84,0.4
0.34,0.84,0.4
0.34,0.83,0.4
0.35,0.83,0.4
0.35,0.83,0.4
0.36,0.83,0.4
0.36,0.84,0.39
0.36,0.84,0.39
0.36,0.83,0.39
0.36,0.83,0.39
0.36,0.83,0.39
0.35,0.83,0.39
0.35,0.84,0.39
0.34,0.84,0.39
0.34,0.84,0.38
0.34,0.84,0.38
0.35,0.84,0.37
0.35,0.84,0.37
0.35,0.84,0.38
0.35,0.84,0.39
0.35,0.84,0.39
0.35,0.84,0.39
0.35,0.84,0.39
0.35,0.84,0.39
0.36,0.84,0.38
0.36,0.84,0.38
0.36,0.84,0.39
0.36,0.84,0.39
0.36,0.83,0.39
0.36,0.83,0.39
0.36,0.83,0.39
0.36,0.83,0.39
0.37,0.83,0.39
0.37,0.83,0.4
0.37,0.83,0.39
0.37,0.84,0.39
0.37,0.83,0.39
0.37,0.83,0.38
0.37,0.83,0.38
0.37,0.84,0.38
0.37,0.84,0.38
0.37,0.84,0.37
0.36,0.84,0.37
0.36,0.84,0.37
0.35,0.84,0.38
0.35,0.84,0.38
0.35,0.84,0.38
0.35,0.83,0.38
0.35,0.84,0.38
0.35,0.84,0.38
0.35,0.84,0.38
0.35,0.84,0.38
0.34,0.84,0.38
0.34,0.84,0.38
0.34,0.84,0.37
0.35,0.84,0.38
0.35,0.84,0.37
0.35,0.84,0.37
0.36,0.84,0.38
0.36,0.84,0.38
0.35,0.84,0.39
0.35,0.84,0.39
0.35,0.84,0.39
0.35,0.84,0.39
0.35,0.84,0.39
0.35,0.84,0.39
0.36,0.83,0.39
0.36,0.83,0.39
0.36,0.84,0.39
0.36,0.83,0.39
0.36,0.83,0.39
0.37,0.83,0.39
0.37,0.83,0.4
0.37,0.83,0.4
0.37,0.83,0.39
0.36,0.83,0.39
0.36,0.84,0.38
0.37,0.84,0.37
0.37,0.84,0.36
0.37,0.84,0.36
0.37,0.84,0.36
0.37,0.84,0.36
0.37,0.84,0.36
0.37,0.84,0.37
0.37,0.84,0.37
0.36,0.84,0.37
0.36,0.83,0.38
0.37,0.84,0.38
0.37,0.83,0.38
0.37,0.83,0.38
0.37,0.84,0.39
0.37,0.84,0.39
0.37,0.84,0.39
0.36,0.83,0.39
0.36,0.83,0.38
0.36,0.84,0.38
0.36,0.84,0.38
0.36,0.83,0.39
0.36,0.83,0.39
0.36,0.84,0.38
0.36,0.84,0.38
0.36,0.84,0.38
0.36,0.84,0.38
0.36,0.84,0.38
0.36,0.84,0.38
0.36,0.84,0.38
0.35,0.83,0.38
0.35,0.83,0.39
0.35,0.84,0.4
0.35,0.84,0.4
0.35,0.83,0.41
0.36,0.83,0.43
0.36,0.82,0.45
0.36,0.82,0.45
0.35,0.82,0.47
0.35,0.83,0.48
0.35,0.83,0.48
0.36,0.84,0.48
0.37,0.83,0.47
0.37,0.83,0.43
0.38,0.83,0.38
0.41,0.82,0.36
0.41,0.81,0.38
0.41,0.81,0.4
0.44,0.82,0.41
0.44,0.83,0.43
0.44,0.82,0.46
0.42,0.82,0.48
0.42,0.82,0.49
0.42,0.82,0.48
0.4,0.83,0.45
0.38,0.83,0.42
0.35,0.83,0.39
0.34,0.84,0.36
0.32,0.85,0.34
0.3,0.87,0.32
0.28,0.87,0.3
0.27,0.89,0.27
0.26,0.9,0.23
0.26,0.9,0.2
0.25,0.92,0.18
0.24,0.92,0.16
0.24,0.92,0.15
0.23,0.93,0.15
0.23,0.93,0.14
0.23,0.93,0.13
0.22,0.94,0.12
0.21,0.95,0.1
0.2,0.95,0.08
0.19,0.95,0.07
0.19,0.96,0.05
0.19,0.96,0.04
0.19,0.96,0.03
0.19,0.96,0.03
0.19,0.95,0.04
0.19,0.95,0.05
0.19,0.95,0.07
0.19,0.95,0.07
0.19,0.95,0.08
0.19,0.94,0.08
0.18,0.94,0.08
0.17,0.94,0.08
0.17,0.94,0.06
0.18,0.93,0.06
0.2,0.92,0.09
0.25,0.9,0.13
0.28,0.9,0.15
0.3,0.9,0.16
0.31,0.89,0.16
0.3,0.87,0.14
0.28,0.85,0.12
0.28,0.84,0.12
0.28,0.84,0.15
0.25,0.82,0.19
0.18,0.8,0.21
1.05,0.25,0.53
2.04,0.63,1.92
1.39,1.4,1.8
0.39,1.27,0.6
-0.19,0.97,0.47
-0.53,0.59,0.32
-0.07,0.65,0.16
0.48,0.85,-0.04
0.5,0.97,-0.08
0.35,0.97,0.04
0.25,0.9,0.25
0.26,0.87,0.4
0.3,0.91,0.47
0.35,0.91,0.51
0.41,0.82,0.54
0.39,0.78,0.55
0.32,0.81,0.47
0.29,0.81,0.44
0.28,0.81,0.43
0.29,0.82,0.41
0.34,0.83,0.39
0.38,0.84,0.37
0.39,0.85,0.37
0.37,0.85,0.37
0.35,0.85,0.37
0.34,0.85,0.37
0.34,0.84,0.37
0.34,0.83,0.37
0.35,0.83,0.38
0.36,0.83,0.38
0.36,0.84,0.39
0.36,0.84,0.39
0.35,0.84,0.38
0.35,0.85,0.37
0.35,0.85,0.37
0.34,0.85,0.36
0.34,0.85,0.36
0.34,0.84,0.36
0.34,0.83,0.38
0.34,0.83,0.4
0.34,0.83,0.41
0.34,0.83,0.42
0.34,0.83,0.41
0.34,0.83,0.41
0.34,0.84,0.4
0.35,0.84,0.39
0.36,0.84,0.39
0.36,0.84,0.38
0.35,0.84,0.38
0.35,0.84,0.39
0.35,0.84,0.39
0.36,0.84,0.4
0.36,0.83,0.4
0.36,0.83,0.41
0.36,0.83,0.4
0.36,0.83,0.4
0.35,0.83,0.4
0.35,0.83,0.39
0.35,0.84,0.39
0.36,0.84,0.38
0.37,0.84,0.39
0.36,0.84,0.39
0.35,0.84,0.39
0.35,0.84,0.39
0.35,0.83,0.39
0.35,0.83,0.39
0.35,0.83,0.39
0.35,0.83,0.4
0.35,0.83,0.4
0.35,0.84,0.4
0.35,0.84,0.4
0.35,0.83,0.4
0.35,0.83,0.39
0.35,0.83,0.39
0.35,0.84,0.39
0.35,0.84,0.39
0.35,0.84,0.38
0.36,0.84,0.38
0.36,0.83,0.38
0.35,0.84,0.38
0.36,0.83,0.39
0.36,0.83,0.39
0.36,0.84,0.39
0.36,0.84,0.39
0.36,0.84,0.39
0.35,0.83,0.39
0.35,0.83,0.39
0.36,0.83,0.39
0.36,0.83,0.39
0.36,0.84,0.39
0.36,0.84,0.39
0.36,0.83,0.39
0.36,0.83,0.39
0.35,0.83,0.39
0.35,0.83,0.39
0.35,0.84,0.39
0.35,0.84,0.39
0.35,0.83,0.39
0.35,0.84,0.39
0.35,0.84,0.39
0.35,0.84,0.39
0.35,0.84,0.39
0.35,0.84,0.39
0.35,0.84,0.39
0.36,0.84,0.39
0.36,0.84,0.4
0.36,0.84,0.4
0.35,0.83,0.4
0.35,0.83,0.39
0.35,0.84,0.39
0.36,0.83,0.39
0.36,0.84,0.39
0.36,0.83,0.39
0.35,0.83,0.39
0.35,0.83,0.39
0.35,0.84,0.39
0.35,0.84,0.39
0.35,0.84,0.39
0.35,0.84,0.38
0.35,0.84,0.38
0.35,0.83,0.38
0.35,0.84,0.39
0.35,0.83,0.39
0.36,0.83,0.41
0.36,0.83,0.42
0.36,0.83,0.44
0.36,0.83,0.45
0.35,0.83,0.46
0.35,0.83,0.46
0.34,0.83,0.46
0.34,0.82,0.46
0.34,0.82,0.45
0.34,0.82,0.45
0.34,0.82,0.46
0.35,0.82,0.47
0.36,0.82,0.47
0.36,0.83,0.46
0.37,0.83,0.43
0.36,0.83,0.37
0.35,0.82,0.35
0.37,0.83,0.36
0.39,0.83,0.38
0.41,0.83,0.41
0.41,0.84,0.43
0.42,0.83,0.43
0.42,0.83,0.41
0.42,0.83,0.38
0.4,0.84,0.36
0.38,0.84,0.34
0.38,0.85,0.33
0.38,0.85,0.33
0.37,0.86,0.33
0.36,0.86,0.33
0.36,0.86,0.32
0.35,0.86,0.31
0.34,0.86,0.3
0.33,0.87,0.29
0.33,0.87,0.28
0.32,0.88,0.28
0.31,0.88,0.27
0.31,0.89,0.25
0.3,0.89,0.24
0.29,0.9,0.22
0.29,0.9,0.2
0.29,0.91,0.2
0.28,0.91,0.19
0.28,0.91,0.19
0.28,0.92,0.17
0.28,0.92,0.16
0.27,0.92,0.15
0.27,0.92,0.14
0.27,0.93,0.14
0.27,0.93,0.13
0.26,0.94,0.11
0.26,0.94,0.1
0.25,0.93,0.09
0.26,0.93,0.09
0.26,0.93,0.09
0.26,0.94,0.09
0.25,0.94,0.06
0.23,0.96,0.01
0.22,0.96,-0.03
0.23,0.95,-0.05
0.22,0.95,-0.06
0.2,0.94,-0.08
0.2,0.93,-0.08
0.23,0.92,-0.06
0.25,0.91,-0.02
0.2,0.91,0
0.15,0.91,-0.03
0.15,0.88,-0.06
0.16,0.84,-0.06
0.18,0.8,-0.05
0.21,0.76,-0.01
1.46,0.3,0.82
2.48,0.47,2.8
1.47,1.21,2.47
0.46,1.44,0.67
-0.1,1.11,0.26
-0.29,0.48,-0.02
0.47,0.72,-0.11
0.58,0.95,-0.18
0.65,1.07,-0.06
0.36,0.93,0.28
0.27,0.83,0.51
0.39,0.9,0.54
0.29,0.92,0.58
0.3,0.84,0.58
0.39,0.77,0.51
0.39,0.77,0.46
0.38,0.79,0.4
0.41,0.79,0.37
0.4,0.79,0.38
0.38,0.8,0.39
0.41,0.82,0.39
0.45,0.83,0.38
0.45,0.83,0.36
0.42,0.83,0.36
0.39,0.84,0.36
0.37,0.84,0.37
0.36,0.83,0.38
0.36,0.82,0.38
0.38,0.82,0.39
0.39,0.82,0.4
0.4,0.83,0.4
0.4,0.82,0.38
0.39,0.83,0.38
0.39,0.83,0.37
0.39,0.83,0.37
0.39,0.83,0.37
0.38,0.82,0.38
0.38,0.82,0.38
0.37,0.82,0.39
0.37,0.82,0.38
0.38,0.82,0.38
0.39,0.83,0.38
0.4,0.83,0.38
0.4,0.83,0.38
0.39,0.83,0.37
0.39,0.83,0.37
0.38,0.83,0.37
0.38,0.83,0.37
0.38,0.83,0.37
0.38,0.83,0.37
0.38,0.82,0.37
0.38,0.82,0.38
0.39,0.83,0.38
0.39,0.83,0.38
0.39,0.83,0.38
0.39,0.83,0.37
0.39,0.83,0.37
0.39,0.83,0.37
0.38,0.83,0.36
0.39,0.83,0.37
0.39,0.83,0.37
0.39,0.83,0.37
0.39,0.83,0.38
0.38,0.83,0.38
0.38,0.82,0.38
0.38,0.82,0.38
0.38,0.82,0.38
0.38,0.83,0.38
0.38,0.83,0.38
0.39,0.83,0.38
0.39,0.83,0.38
0.39,0.83,0.38
0.39,0.83,0.37
0.39,0.83,0.37
0.39,0.83,0.37
0.39,0.83,0.37
0.39,0.83,0.38
0.38,0.83,0.37
0.38,0.83,0.37
0.38,0.83,0.37
0.38,0.83,0.37
0.39,0.83,0.37
0.39,0.83,0.37
0.38,0.83,0.37
0.38,0.83,0.38
0.38,0.83,0.38
0.39,0.83,0.38
0.39,0.83,0.37
0.39,0.83,0.38
0.39,0.83,0.38
0.39,0.83,0.38
0.39,0.83,0.38
0.39,0.83,0.38
0.39,0.83,0.38
0.39,0.83,0.38
0.39,0.83,0.38
0.39,0.83,0.38
0.39,0.83,0.38
0.39,0.83,0.37
0.39,0.83,0.37
0.39,0.83,0.37
0.39,0.83,0.37
0.39,0.83,0.37
0.38,0.83,0.37
0.38,0.83,0.38
0.38,0.83,0.38
0.38,0.83,0.38
0.38,0.83,0.38
0.39,0.83,0.38
0.39,0.83,0.38
0.39,0.83,0.38
0.39,0.83,0.38
0.39,0.83,0.38
0.39,0.83,0.38
0.39,0.83,0.38
0.39,0.83,0.38
0.39,0.83,0.38
0.39,0.83,0.38
0.39,0.83,0.37
0.39,0.83,0.37
0.39,0.83,0.37
0.39,0.83,0.37
0.39,0.83,0.36
0.39,0.83,0.36
0.39,0.83,0.37
0.39,0.83,0.37
0.39,0.83,0.37
0.39,0.83,0.37
0.39,0.83,0.37
0.39,0.83,0.37
0.39,0.83,0.37
0.39,0.83,0.37
0.39,0.83,0.37
0.39,0.83,0.37
0.39,0.83,0.38
0.39,0.82,0.38
0.39,0.83,0.38
0.38,0.83,0.37
0.39,0.83,0.37
0.39,0.83,0.37
0.39,0.83,0.37
0.39,0.83,0.37
0.39,0.83,0.37
0.39,0.83,0.37
0.39,0.83,0.37
0.39,0.83,0.37
0.38,0.83,0.37
0.38,0.83,0.37
0.38,0.83,0.37
0.39,0.83,0.37
0.39,0.83,0.37
0.39,0.83,0.38
0.39,0.83,0.37
0.39,0.83,0.38
0.39,0.83,0.37
0.39,0.83,0.37
0.39,0.83,0.37
0.39,0.83,0.37
0.39,0.82,0.37
0.39,0.83,0.37
0.39,0.83,0.37
0.39,0.83,0.37
0.4,0.83,0.37
0.4,0.83,0.37
0.41,0.83,0.37
0.41,0.83,0.36
0.4,0.83,0.36
0.4,0.83,0.36
0.4,0.82,0.36
0.4,0.83,0.37
0.4,0.83,0.37
0.4,0.83,0.37
0.39,0.83,0.37
0.39,0.83,0.38
0.39,0.83,0.38
0.39,0.83,0.38
0.39,0.83,0.38
0.39,0.83,0.38
0.38,0.83,0.38
0.38,0.83,0.38
0.38,0.83,0.38
0.38,0.83,0.39
0.38,0.83,0.39
0.38,0.83,0.39
0.38,0.82,0.39
0.38,0.82,0.39
0.39,0.83,0.38
0.39,0.83,0.37
0.4,0.83,0.36
0.4,0.83,0.36
0.4,0.83,0.36
0.4,0.83,0.36
0.39,0.83,0.36
0.39,0.83,0.36
0.4,0.83,0.36
0.4,0.83,0.36
0.4,0.82,0.37
0.4,0.82,0.4
0.4,0.81,0.44
0.41,0.82,0.45
0.41,0.83,0.46
0.39,0.83,0.44
0.38,0.83,0.42
0.37,0.83,0.42
0.37,0.82,0.42
0.38,0.81,0.44
0.39,0.81,0.46
0.4,0.8,0.48
0.41,0.81,0.48
0.42,0.81,0.47
0.41,0.81,0.45
0.42,0.8,0.4
0.42,0.81,0.37
0.45,0.81,0.39
0.48,0.81,0.47
0.45,0.82,0.47
0.43,0.82,0.45
0.42,0.82,0.42
0.41,0.82,0.4
0.39,0.82,0.37
0.38,0.83,0.35
0.36,0.84,0.33
0.35,0.85,0.31
0.33,0.86,0.29
0.31,0.88,0.27
0.29,0.88,0.24
0.29,0.89,0.21
0.28,0.89,0.19
0.28,0.9,0.17
0.28,0.91,0.15
0.27,0.92,0.14
0.26,0.92,0.12
0.25,0.93,0.1
0.25,0.93,0.09
0.24,0.93,0.07
0.23,0.94,0.06
0.23,0.95,0.04
0.22,0.95,0.02
0.22,0.95,0
0.23,0.96,-0.02
0.23,0.96,-0.06
0.23,0.96,-0.09
0.22,0.96,-0.13
0.21,0.95,-0.18
0.2,0.93,-0.2
0.21,0.91,-0.2
0.21,0.88,-0.18
0.21,0.86,-0.15
0.21,0.84,-0.11
0.23,0.81,-0.06
0.23,0.79,-0.01
0.44,0.66,-0.74
2.31,-0.58,1.23
2,-0.92,2.44
0.28,0.73,0.84
0.2,1.26,0.6
-0.33,0.65,0.42
-0.47,0.36,0.39
-0.11,0.49,0.33
0.34,0.84,0.19
0.55,1.06,0.18
0.45,0.99,0.36
0.41,0.87,0.46
0.49,0.86,0.43
0.46,0.89,0.37
0.44,0.86,0.33
0.44,0.78,0.32
0.43,0.77,0.42
0.4,0.76,0.47
0.39,0.75,0.51
0.35,0.77,0.54
0.33,0.79,0.53
0.33,0.81,0.49
0.35,0.82,0.43
0.38,0.83,0.38
0.39,0.83,0.36
0.39,0.83,0.35
0.39,0.83,0.36
0.39,0.82,0.37
0.4,0.81,0.39
0.4,0.81,0.41
0.4,0.8,0.43
0.39,0.8,0.44
0.39,0.8,0.44
0.38,0.8,0.44
0.38,0.81,0.43
0.39,0.81,0.42
0.4,0.81,0.41
0.4,0.8,0.41
0.4,0.8,0.42
0.41,0.79,0.43
0.41,0.79,0.44
0.41,0.8,0.45
0.4,0.8,0.46
0.4,0.8,0.46
0.39,0.8,0.46
0.39,0.8,0.46
0.39,0.8,0.46
0.39,0.8,0.46
0.39,0.81,0.45
0.39,0.82,0.45
0.38,0.83,0.45
0.38,0.82,0.45
0.38,0.81,0.45
0.39,0.8,0.43
0.39,0.81,0.42
0.4,0.81,0.41
0.4,0.81,0.4
0.4,0.81,0.4
0.39,0.82,0.39
0.36,0.83,0.38
0.35,0.83,0.37
0.35,0.84,0.37
0.36,0.84,0.36
0.36,0.84,0.35
0.35,0.84,0.34
0.35,0.84,0.34
0.34,0.84,0.33
0.35,0.85,0.31
0.37,0.86,0.28
0.42,0.86,0.27
0.44,0.87,0.27
0.46,0.87,0.26
0.46,0.87,0.26
0.44,0.87,0.26
0.42,0.87,0.26
0.39,0.88,0.27
0.36,0.88,0.27
0.35,0.87,0.28
0.34,0.86,0.28
0.34,0.87,0.27
0.34,0.88,0.27
0.34,0.88,0.28
0.33,0.88,0.28
0.33,0.87,0.28
0.33,0.88,0.29
0.33,0.89,0.28
0.33,0.88,0.28
0.32,0.88,0.28
0.32,0.88,0.28
0.31,0.89,0.28
0.3,0.89,0.28
0.29,0.88,0.28
0.3,0.88,0.29
0.3,0.88,0.3
0.31,0.88,0.32
0.32,0.87,0.33
0.32,0.87,0.33
0.32,0.88,0.33
0.31,0.88,0.32
0.31,0.87,0.31
0.31,0.87,0.3
0.32,0.87,0.29
0.33,0.88,0.29
0.33,0.88,0.29
0.34,0.87,0.29
0.35,0.88,0.29
0.35,0.88,0.29
0.35,0.88,0.3
0.35,0.88,0.29
0.36,0.88,0.29
0.37,0.87,0.29
0.37,0.87,0.29
0.37,0.87,0.3
0.38,0.87,0.3
0.38,0.87,0.3
0.37,0.88,0.31
0.36,0.88,0.31
0.36,0.88,0.32
0.35,0.88,0.31
0.35,0.88,0.29
0.34,0.88,0.29
0.32,0.88,0.3
0.32,0.88,0.3
0.32,0.89,0.29
0.32,0.89,0.28
0.32,0.89,0.28
0.32,0.89,0.28
0.32,0.88,0.29
0.32,0.88,0.29
0.32,0.88,0.3
0.31,0.87,0.31
0.31,0.88,0.32
0.31,0.88,0.32
0.31,0.88,0.32
0.31,0.88,0.32
0.31,0.88,0.31
0.31,0.88,0.31
0.32,0.88,0.32
0.32,0.88,0.31
0.32,0.88,0.31
0.32,0.87,0.3
0.31,0.88,0.3
0.3,0.88,0.31
0.3,0.88,0.31
0.3,0.88,0.32
0.3,0.88,0.32
0.3,0.88,0.31
0.31,0.88,0.31
0.31,0.87,0.32
0.32,0.87,0.32
0.33,0.87,0.32
0.34,0.87,0.32
0.34,0.87,0.33
0.35,0.87,0.33
0.35,0.86,0.34
0.34,0.86,0.34
0.34,0.86,0.34
0.34,0.86,0.33
0.33,0.87,0.32
0.33,0.87,0.31
0.33,0.88,0.3
0.33,0.88,0.3
0.33,0.88,0.3
0.33,0.88,0.3
0.33,0.88,0.3
0.33,0.88,0.3
0.33,0.88,0.3
0.33,0.88,0.3
0.33,0.87,0.31
0.33,0.87,0.32
0.33,0.87,0.33
0.34,0.87,0.33
0.34,0.87,0.34
0.35,0.86,0.34
0.34,0.86,0.33
