Acc_x,Acc_y,Acc_z
0.26,0.15,0.43
0.26,0.18,0.41
0.25,0.19,0.41
0.24,0.19,0.4
0.24,0.2,0.42
0.24,0.2,0.42
0.24,0.2,0.42
0.24,0.2,0.4
0.25,0.2,0.38
0.26,0.2,0.38
0.27,0.21,0.38
0.28,0.21,0.36
0.3,0.2,0.34
0.28,0.17,0.35
0.27,0.14,0.38
0.27,0.12,0.42
0.27,0.11,0.45
0.28,0.1,0.46
0.28,0.1,0.45
0.28,0.08,0.43
0.27,0.06,0.41
0.28,0.04,0.41
0.28,0.03,0.45
0.29,0,0.5
0.29,-0.05,0.55
0.27,-0.11,0.56
0.27,-0.16,0.52
0.28,-0.2,0.48
0.3,-0.22,0.46
0.35,-0.2,0.46
0.42,-0.21,0.48
0.47,-0.24,0.49
0.48,-0.3,0.51
0.47,-0.36,0.56
0.46,-0.41,0.64
0.46,-0.44,0.69
0.44,-0.46,0.68
0.41,-0.49,0.63
0.4,-0.54,0.57
0.43,-0.56,0.6
0.52,-0.55,0.7
0.59,-0.57,0.77
0.6,-0.61,0.82
0.56,-0.67,0.84
0.5,-0.75,0.79
0.44,-0.82,0.7
0.38,-0.86,0.65
0.39,-0.86,0.73
0.51,-0.83,0.86
0.69,-0.82,0.93
0.78,-0.83,0.9
0.74,-0.88,0.82
0.61,-0.94,0.76
0.46,-1.01,0.76
0.34,-1.06,0.78
0.3,-1.08,0.77
0.34,-1.07,0.81
0.43,-1.04,0.88
0.59,-1.06,0.89
0.74,-1.11,0.87
0.78,-1.14,0.83
0.72,-1.16,0.8
0.63,-1.18,0.83
0.54,-1.2,0.87
0.48,-1.22,0.88
0.46,-1.21,0.82
0.49,-1.19,0.8
0.48,-1.14,0.82
0.43,-1.07,0.88
0.42,-1.04,0.95
0.46,-1.07,0.99
0.46,-1.11,0.98
0.44,-1.14,0.95
0.43,-1.17,0.91
0.43,-1.18,0.88
0.45,-1.19,0.85
0.46,-1.21,0.82
0.47,-1.23,0.8
0.48,-1.23,0.78
0.51,-1.22,0.75
0.51,-1.21,0.71
0.49,-1.18,0.67
0.47,-1.15,0.61
0.43,-1.1,0.55
0.37,-1.04,0.51
0.32,-1,0.48
0.28,-0.95,0.44
0.23,-0.91,0.42
0.2,-0.89,0.4
0.19,-0.88,0.4
0.23,-0.85,0.38
0.28,-0.79,0.31
0.32,-0.79,0.27
0.31,-0.8,0.26
0.33,-0.82,0.28
0.35,-0.83,0.28
0.37,-0.83,0.29
0.38,-0.83,0.31
0.4,-0.82,0.31
0.41,-0.82,0.29
0.39,-0.82,0.3
0.39,-0.8,0.3
0.43,-0.77,0.27
0.43,-0.73,0.27
0.43,-0.71,0.28
0.45,-0.7,0.29
-0.72,-1.03,0.63
-0.26,-0.99,0.47
0.19,-0.89,0.18
0.49,-0.82,-0.04
0.62,-0.82,-0.19
0.64,-0.84,-0.26
0.59,-0.87,-0.24
0.56,-0.88,-0.18
0.6,-0.84,-0.12
0.63,-0.8,-0.04
0.63,-0.79,0.06
0.63,-0.78,0.14
0.63,-0.8,0.15
0.63,-0.82,0.13
0.62,-0.83,0.1
0.62,-0.84,0.05
0.62,-0.85,0.04
0.62,-0.85,0.05
0.65,-0.85,0.07
0.66,-0.85,0.09
0.65,-0.84,0.11
0.62,-0.83,0.1
0.59,-0.8,0.1
0.56,-0.78,0.11
0.54,-0.77,0.1
0.53,-0.78,0.1
0.52,-0.79,0.1
0.52,-0.8,0.1
0.51,-0.8,0.1
0.47,-0.81,0.11
0.44,-0.82,0.13
0.43,-0.83,0.15
0.41,-0.84,0.17
0.39,-0.86,0.19
0.37,-0.87,0.21
0.35,-0.87,0.23
0.34,-0.88,0.24
0.33,-0.89,0.26
0.32,-0.9,0.27
0.31,-0.9,0.27
0.3,-0.9,0.28
0.31,-0.9,0.27
0.32,-0.91,0.27
0.3,-0.91,0.31
0.29,-0.91,0.36
0.3,-0.92,0.39
0.3,-0.93,0.42
0.29,-0.94,0.44
0.28,-0.96,0.48
0.26,-0.98,0.51
0.21,-1,0.52
0.2,-1.01,0.5
0.21,-1.01,0.5
0.19,-1.01,0.53
0.18,-1.03,0.58
0.22,-1.02,0.65
0.26,-1.04,0.65
0.25,-1.09,0.66
0.24,-1.13,0.68
0.21,-1.15,0.71
0.14,-1.14,0.75
0.09,-1.14,0.78
0.1,-1.16,0.79
0.13,-1.18,0.81
0.16,-1.18,0.85
0.18,-1.16,0.89
0.17,-1.15,0.95
0.17,-1.16,1
0.19,-1.17,0.98
0.2,-1.19,0.96
0.2,-1.24,0.97
0.24,-1.28,0.96
0.22,-1.28,0.97
0.22,-1.27,1
0.26,-1.27,0.99
0.26,-1.26,0.96
0.27,-1.25,0.94
0.28,-1.22,0.92
0.28,-1.21,0.9
0.29,-1.23,0.88
0.28,-1.24,0.86
0.28,-1.23,0.85
0.3,-1.18,0.85
0.32,-1.13,0.81
0.34,-1.09,0.76
0.33,-1.09,0.74
0.31,-1.1,0.71
0.32,-1.07,0.68
0.34,-1.02,0.65
0.37,-0.93,0.67
0.4,-0.86,0.71
0.43,-0.83,0.7
0.43,-0.8,0.71
0.42,-0.77,0.73
0.39,-0.74,0.68
0.38,-0.69,0.65
0.37,-0.65,0.63
0.38,-0.62,0.62
0.36,-0.57,0.64
0.35,-0.52,0.65
0.35,-0.48,0.64
0.33,-0.45,0.62
0.32,-0.42,0.58
0.33,-0.38,0.55
0.34,-0.33,0.53
0.37,-0.29,0.5
0.39,-0.28,0.49
0.39,-0.24,0.5
0.36,-0.16,0.52
0.33,-0.11,0.54
0.3,-0.09,0.53
0.3,-0.07,0.5
0.34,-0.05,0.49
0.32,-0.04,0.49
0.3,-0.02,0.47
0.32,0.02,0.44
0.35,0.05,0.42
0.35,0.08,0.38
0.32,0.1,0.37
0.29,0.1,0.38
0.25,0.1,0.4
0.22,0.11,0.41
0.22,0.12,0.43
0.25,0.15,0.44
0.27,0.15,0.46
0.3,0.14,0.45
0.29,0.13,0.43
0.27,0.11,0.43
0.26,0.12,0.45
0.24,0.14,0.48
0.22,0.14,0.5
0.21,0.13,0.53
0.21,0.13,0.55
0.23,0.13,0.58
0.24,0.13,0.59
0.24,0.13,0.58
0.24,0.13,0.55
0.24,0.13,0.52
0.25,0.12,0.49
0.26,0.1,0.47
0.27,0.08,0.46
0.3,0.06,0.45
0.34,0.03,0.41
0.36,-0.01,0.37
0.36,-0.08,0.36
0.36,-0.12,0.37
0.36,-0.14,0.38
0.39,-0.15,0.46
0.43,-0.14,0.47
0.54,-0.17,0.42
0.53,-0.23,0.37
0.5,-0.31,0.32
0.44,-0.41,0.33
0.4,-0.48,0.4
0.45,-0.47,0.5
0.58,-0.45,0.56
0.67,-0.47,0.56
0.69,-0.51,0.52
0.65,-0.54,0.48
0.58,-0.59,0.43
0.52,-0.61,0.4
0.47,-0.63,0.4
0.49,-0.67,0.48
0.6,-0.69,0.61
0.74,-0.72,0.7
0.82,-0.79,0.72
0.8,-0.83,0.74
0.72,-0.85,0.74
0.69,-0.86,0.73
0.68,-0.88,0.73
0.71,-0.88,0.75
0.78,-0.9,0.79
0.85,-0.95,0.8
0.88,-1.01,0.8
0.84,-1.12,0.82
0.68,-1.15,0.84
0.62,-1.17,0.84
0.59,-1.17,0.82
0.57,-1.16,0.81
0.55,-1.15,0.77
0.52,-1.17,0.71
0.46,-1.18,0.69
0.4,-1.16,0.72
0.38,-1.13,0.76
0.4,-1.1,0.78
0.42,-1.1,0.78
0.45,-1.13,0.76
0.48,-1.18,0.75
0.49,-1.22,0.75
0.47,-1.25,0.76
0.44,-1.25,0.8
0.45,-1.22,0.81
0.49,-1.21,0.77
0.48,-1.17,0.7
0.46,-1.15,0.64
0.44,-1.2,0.64
0.45,-1.23,0.63
0.48,-1.24,0.65
0.46,-1.23,0.67
0.38,-1.23,0.69
0.34,-1.18,0.66
0.28,-1.11,0.62
0.26,-1.06,0.61
0.24,-1.03,0.63
0.23,-1.02,0.64
0.26,-1,0.61
0.25,-0.97,0.6
0.27,-0.91,0.59
0.33,-0.83,0.58
0.31,-0.78,0.58
0.25,-0.79,0.57
0.23,-0.8,0.55
0.23,-0.78,0.54
0.26,-0.75,0.51
0.32,-0.73,0.46
0.39,-0.72,0.39
0.46,-0.75,0.33
0.56,-0.79,0.25
0.65,-0.83,0.2
0.71,-0.84,0.18
0.72,-0.82,0.18
0.69,-0.8,0.18
0.64,-0.78,0.17
0.57,-0.74,0.17
0.52,-0.73,0.17
0.5,-0.75,0.17
0.51,-0.76,0.19
0.55,-0.78,0.2
0.56,-0.77,0.19
0.57,-0.78,0.21
0.58,-0.81,0.26
0.58,-0.82,0.29
0.52,-0.83,0.32
0.48,-0.85,0.36
0.47,-0.87,0.4
0.44,-0.88,0.44
0.4,-0.89,0.47
0.39,-0.9,0.49
0.37,-0.93,0.5
0.33,-0.95,0.52
0.3,-0.98,0.55
0.28,-1,0.6
0.27,-1.02,0.62
0.26,-1.02,0.61
0.2,-1.03,0.63
0.17,-1.02,0.67
0.18,-1.01,0.69
0.16,-1.03,0.71
0.14,-1.06,0.75
0.16,-1.07,0.8
0.18,-1.08,0.83
0.18,-1.08,0.83
0.17,-1.07,0.82
0.15,-1.11,0.84
0.15,-1.12,0.86
0.16,-1.13,0.87
0.15,-1.13,0.88
0.15,-1.15,0.9
0.19,-1.15,0.88
0.2,-1.15,0.86
0.21,-1.15,0.85
0.23,-1.14,0.84
0.25,-1.13,0.84
0.27,-1.13,0.86
0.3,-1.13,0.88
0.3,-1.13,0.9
0.29,-1.13,0.9
0.27,-1.12,0.87
0.26,-1.11,0.84
0.27,-1.09,0.8
0.28,-1.05,0.77
0.32,-1.02,0.82
0.35,-1,0.88
0.35,-1.02,0.9
0.31,-1.02,0.88
0.27,-0.98,0.84
0.26,-0.91,0.8
0.29,-0.83,0.8
0.33,-0.8,0.81
0.34,-0.84,0.84
0.27,-0.84,0.84
0.25,-0.81,0.79
0.26,-0.73,0.73
0.28,-0.65,0.71
0.31,-0.62,0.74
0.31,-0.61,0.77
0.29,-0.6,0.79
0.28,-0.58,0.77
0.28,-0.57,0.7
0.3,-0.52,0.6
0.33,-0.48,0.55
0.36,-0.46,0.6
0.37,-0.45,0.67
0.37,-0.42,0.68
0.36,-0.37,0.64
0.34,-0.31,0.61
0.34,-0.26,0.61
0.35,-0.25,0.61
0.36,-0.24,0.62
0.36,-0.21,0.6
0.36,-0.18,0.54
0.35,-0.15,0.5
0.36,-0.11,0.51
0.38,-0.05,0.52
0.39,-0.03,0.54
0.38,-0.03,0.51
0.35,0.01,0.44
0.36,0.05,0.41
0.39,0.09,0.44
0.39,0.09,0.47
0.36,0.06,0.46
0.34,0.04,0.49
0.32,0.06,0.52
0.31,0.07,0.52
0.31,0.1,0.51
0.3,0.12,0.48
0.31,0.14,0.47
0.32,0.14,0.47
0.31,0.12,0.48
0.31,0.11,0.51
0.34,0.12,0.52
0.37,0.12,0.55
0.38,0.12,0.6
0.39,0.1,0.64
0.38,0.09,0.67
0.37,0.08,0.69
0.35,0.08,0.69
0.34,0.08,0.65
0.35,0.08,0.63
0.35,0.07,0.64
0.34,0.06,0.65
0.32,0.06,0.65
0.31,0.05,0.65
0.32,0.05,0.68
0.33,0.03,0.71
0.33,-0.01,0.72
0.31,-0.04,0.68
0.28,-0.04,0.6
0.26,-0.03,0.52
0.26,-0.04,0.48
0.28,-0.07,0.5
0.31,-0.1,0.55
0.35,-0.14,0.59
0.37,-0.18,0.61
0.36,-0.22,0.59
0.34,-0.24,0.54
0.3,-0.26,0.47
0.31,-0.26,0.42
0.35,-0.27,0.45
0.38,-0.32,0.54
0.41,-0.4,0.61
0.4,-0.46,0.63
0.37,-0.49,0.59
0.32,-0.51,0.51
0.29,-0.55,0.45
0.31,-0.55,0.45
0.4,-0.54,0.49
0.51,-0.61,0.65
0.53,-0.7,0.71
0.48,-0.77,0.66
0.44,-0.82,0.54
0.44,-0.88,0.42
0.47,-0.93,0.33
0.49,-0.94,0.39
0.5,-0.96,0.57
0.53,-1.03,0.72
0.52,-1.04,0.83
0.47,-1.02,0.84
0.4,-1.04,0.76
0.31,-1.05,0.66
0.26,-1.09,0.59
0.27,-1.14,0.59
0.32,-1.17,0.68
0.38,-1.18,0.85
0.46,-1.14,1
0.5,-1.08,1.04
0.5,-1.08,0.99
0.46,-1.13,0.9
0.41,-1.18,0.81
0.35,-1.22,0.77
0.31,-1.26,0.78
0.31,-1.28,0.79
0.33,-1.29,0.8
0.34,-1.28,0.85
0.44,-1.26,0.87
0.44,-1.27,0.86
0.42,-1.25,0.86
0.41,-1.24,0.85
0.41,-1.23,0.79
0.41,-1.2,0.76
0.4,-1.18,0.74
0.37,-1.18,0.72
0.34,-1.2,0.68
0.35,-1.23,0.65
0.34,-1.25,0.63
0.29,-1.3,0.6
0.27,-1.33,0.56
0.23,-1.3,0.54
0.19,-1.25,0.53
0.2,-1.23,0.49
0.16,-1.22,0.43
0.12,-1.18,0.39
0.12,-1.15,0.37
0.13,-1.11,0.31
0.13,-1.06,0.28
0.14,-1.01,0.3
0.14,-0.96,0.29
0.17,-0.93,0.26
0.23,-0.9,0.25
0.28,-0.86,0.25
0.36,-0.88,0.36
0.18,-0.82,0.42
0,-0.77,0.35
0.2,-0.82,0.34
0.27,-0.78,0.32
0.28,-0.77,0.27
0.37,-0.77,0.2
0.47,-0.77,0.16
0.54,-0.76,0.12
0.61,-0.77,0.07
0.68,-0.77,0.05
0.7,-0.77,0.04
0.69,-0.76,0.02
0.7,-0.75,-0.01
0.7,-0.72,-0.01
0.7,-0.7,-0.01
0.69,-0.67,-0.01
0.69,-0.65,-0.01
0.69,-0.63,0
0.7,-0.63,0
0.72,-0.64,0.01
0.75,-0.65,0.02
0.77,-0.67,0.02
0.78,-0.69,0.02
0.78,-0.7,0.02
0.79,-0.73,0.03
0.78,-0.74,0.05
0.78,-0.74,0.06
0.77,-0.73,0.07
0.76,-0.73,0.08
0.75,-0.72,0.09
0.74,-0.72,0.09
0.73,-0.73,0.09
0.74,-0.74,0.1
0.74,-0.75,0.1
0.74,-0.75,0.11
0.74,-0.76,0.12
0.73,-0.77,0.14
0.72,-0.79,0.15
0.72,-0.8,0.15
0.72,-0.84,0.16
0.67,-0.93,0.18
0.63,-1.02,0.2
0.6,-1.02,0.23
0.56,-0.98,0.3
0.57,-0.95,0.38
0.56,-0.95,0.47
0.51,-0.97,0.56
0.46,-0.99,0.58
0.39,-1.02,0.57
0.32,-1.05,0.53
0.28,-1.06,0.51
0.25,-1.03,0.57
0.28,-1.02,0.58
0.32,-1.01,0.58
0.35,-1,0.58
0.34,-1,0.55
0.36,-0.99,0.52
0.39,-0.98,0.48
0.39,-0.95,0.45
0.38,-0.92,0.42
0.4,-0.88,0.4
0.39,-0.84,0.39
0.38,-0.81,0.39
0.37,-0.8,0.39
0.37,-0.81,0.4
0.39,-0.82,0.41
0.4,-0.84,0.38
0.34,-0.87,0.39
0.32,-0.93,0.38
0.3,-0.96,0.37
0.27,-0.94,0.44
0.31,-0.96,0.51
0.35,-0.97,0.55
0.34,-0.94,0.61
0.31,-0.95,0.66
0.3,-0.97,0.71
0.29,-0.93,0.72
0.24,-0.91,0.8
0.24,-0.9,0.91
0.25,-0.85,0.98
0.25,-0.82,1.01
0.23,-0.84,1.02
0.18,-0.87,1.03
0.14,-0.91,1.06
0.15,-0.93,1.09
0.14,-0.94,1.1
0.14,-0.93,1.09
0.14,-0.92,1.08
0.14,-0.92,1.07
0.16,-0.93,1.06
0.19,-0.94,1.05
0.22,-0.92,1.05
0.24,-0.89,1.04
0.25,-0.87,1.02
0.27,-0.86,1
0.26,-0.85,0.97
0.25,-0.82,0.94
0.25,-0.8,0.92
0.25,-0.77,0.91
0.25,-0.74,0.91
0.26,-0.72,0.89
0.26,-0.71,0.86
0.28,-0.72,0.81
0.3,-0.75,0.74
0.32,-0.75,0.71
0.35,-0.72,0.71
0.36,-0.68,0.73
0.36,-0.63,0.75
0.36,-0.58,0.74
0.38,-0.53,0.71
0.4,-0.49,0.69
0.41,-0.48,0.68
0.41,-0.48,0.69
0.39,-0.48,0.75
0.36,-0.48,0.79
0.33,-0.49,0.79
0.32,-0.47,0.74
0.31,-0.44,0.71
0.31,-0.42,0.78
0.32,-0.37,0.87
0.33,-0.33,0.92
0.3,-0.27,0.91
0.26,-0.23,0.83
0.23,-0.22,0.73
0.2,-0.22,0.66
0.21,-0.19,0.67
0.24,-0.17,0.71
0.27,-0.14,0.69
0.26,-0.11,0.67
0.22,-0.08,0.64
0.22,-0.04,0.6
0.25,-0.03,0.53
0.28,-0.03,0.5
0.3,-0.03,0.48
0.29,-0.05,0.46
0.27,-0.06,0.44
0.25,-0.05,0.45
0.23,-0.04,0.45
0.24,-0.04,0.43
0.25,-0.04,0.41
0.26,-0.05,0.39
0.24,-0.06,0.37
0.22,-0.06,0.38
0.2,-0.06,0.39
0.19,-0.06,0.41
0.17,-0.04,0.42
0.16,-0.03,0.42
0.16,-0.02,0.42
0.14,-0.02,0.43
0.11,-0.02,0.45
0.1,-0.02,0.46
0.1,-0.01,0.46
0.11,-0.01,0.45
0.13,-0.03,0.43
0.15,-0.05,0.41
0.17,-0.15,0.38
0.2,-0.19,0.38
0.23,-0.2,0.38
0.26,-0.19,0.37
0.29,-0.21,0.35
0.33,-0.27,0.31
0.34,-0.37,0.3
0.34,-0.43,0.33
0.4,-0.44,0.37
0.46,-0.46,0.4
0.49,-0.52,0.43
0.51,-0.57,0.4
0.52,-0.61,0.34
0.52,-0.64,0.27
0.55,-0.7,0.3
0.61,-0.76,0.41
0.67,-0.78,0.53
0.73,-0.83,0.59
0.73,-0.89,0.57
0.68,-0.93,0.54
0.6,-0.93,0.51
0.53,-0.95,0.48
0.53,-0.95,0.54
0.6,-0.97,0.68
0.69,-1,0.76
0.75,-1.01,0.77
0.75,-1.08,0.71
0.65,-1.18,0.72
0.58,-1.22,0.76
0.51,-1.26,0.83
0.48,-1.29,0.86
0.48,-1.29,0.85
0.51,-1.28,0.82
0.55,-1.31,0.79
0.59,-1.33,0.79
0.62,-1.34,0.82
0.6,-1.34,0.87
0.54,-1.35,0.9
0.48,-1.36,0.92
0.45,-1.39,0.91
0.43,-1.43,0.89
0.4,-1.44,0.84
0.37,-1.43,0.82
0.33,-1.4,0.81
0.24,-1.37,0.82
0.22,-1.34,0.86
0.26,-1.32,0.86
0.26,-1.35,0.84
0.25,-1.37,0.84
0.22,-1.38,0.82
0.21,-1.4,0.79
0.19,-1.39,0.74
0.15,-1.38,0.74
-0.02,-1.39,0.8
-0.13,-1.36,0.8
-0.19,-1.31,0.76
-0.27,-1.28,0.71
-0.33,-1.23,0.67
-0.32,-1.18,0.67
-0.3,-1.15,0.7
-0.32,-1.12,0.79
-0.28,-1.08,0.82
-0.16,-1,0.72
-0.17,-0.97,0.6
-0.21,-0.89,0.6
-0.17,-0.85,0.59
-0.09,-0.81,0.54
-0.02,-0.76,0.55
0.12,-0.75,0.54
0.28,-0.73,0.51
0.38,-0.73,0.48
0.46,-0.73,0.43
0.53,-0.73,0.37
0.57,-0.72,0.37
0.58,-0.71,0.41
0.57,-0.7,0.47
0.55,-0.69,0.51
0.54,-0.69,0.52
0.55,-0.69,0.49
0.55,-0.71,0.46
0.54,-0.75,0.41
0.54,-0.78,0.38
0.53,-0.79,0.37
0.48,-0.81,0.37
0.41,-0.82,0.36
0.35,-0.84,0.38
0.29,-0.86,0.39
0.27,-0.88,0.39
0.32,-0.88,0.37
0.3,-0.88,0.36
0.24,-0.9,0.37
0.24,-0.94,0.37
0.21,-1,0.4
0.15,-1.1,0.45
0.11,-1.19,0.49
0.03,-1.25,0.52
-0.02,-1.22,0.55
-0.06,-1.14,0.6
-0.1,-1.07,0.63
-0.14,-0.99,0.62
-0.17,-0.98,0.59
-0.15,-1.02,0.55
-0.19,-1.06,0.54
-0.25,-1.09,0.55
-0.25,-1.13,0.62
-0.27,-1.14,0.71
-0.22,-1.2,0.76
-0.2,-1.25,0.8
-0.21,-1.26,0.81
-0.26,-1.29,0.77
-0.29,-1.32,0.71
-0.25,-1.31,0.69
-0.22,-1.33,0.72
-0.16,-1.38,0.79
-0.1,-1.42,0.84
-0.07,-1.45,0.86
-0.04,-1.44,0.87
-0.05,-1.45,0.88
-0.06,-1.48,0.85
0.03,-1.51,0.79
0.11,-1.51,0.79
0.17,-1.47,0.81
0.18,-1.41,0.86
0.13,-1.36,0.89
0.11,-1.31,0.87
0.12,-1.32,0.83
0.19,-1.32,0.81
0.25,-1.26,0.82
0.28,-1.18,0.82
0.27,-1.13,0.84
0.26,-1.1,0.82
0.27,-1.16,0.78
0.28,-1.17,0.75
0.29,-1.1,0.73
0.33,-0.99,0.71
0.36,-0.92,0.71
0.36,-0.87,0.73
0.37,-0.82,0.72
0.37,-0.78,0.69
0.35,-0.77,0.65
0.34,-0.76,0.64
0.35,-0.77,0.65
0.33,-0.76,0.62
0.34,-0.66,0.53
0.34,-0.54,0.51
0.34,-0.47,0.56
0.34,-0.41,0.6
0.29,-0.4,0.6
0.24,-0.39,0.58
0.26,-0.36,0.55
0.3,-0.33,0.5
0.31,-0.31,0.49
0.31,-0.25,0.47
0.31,-0.2,0.42
0.29,-0.2,0.41
0.28,-0.12,0.4
0.27,0.02,0.43
0.24,0,0.43
0.22,-0.01,0.4
0.21,0.04,0.39
0.23,0.09,0.41
0.22,0.11,0.4
0.17,0.11,0.39
0.19,0.14,0.36
0.23,0.17,0.33
0.25,0.15,0.35
0.22,0.15,0.41
0.2,0.15,0.45
0.2,0.15,0.44
0.22,0.15,0.41
0.22,0.14,0.4
0.2,0.13,0.42
0.2,0.11,0.44
0.21,0.1,0.46
0.21,0.09,0.48
0.2,0.08,0.5
0.2,0.08,0.49
0.21,0.09,0.46
0.22,0.08,0.45
0.22,0.08,0.44
0.25,0.08,0.44
0.28,0.04,0.43
0.31,-0.02,0.41
0.32,-0.1,0.36
0.37,-0.16,0.35
0.39,-0.18,0.37
0.39,-0.22,0.43
0.4,-0.28,0.5
0.42,-0.32,0.51
0.45,-0.36,0.47
0.46,-0.42,0.41
0.44,-0.5,0.36
0.39,-0.6,0.39
0.36,-0.64,0.51
0.4,-0.62,0.63
0.44,-0.61,0.72
0.48,-0.62,0.74
0.49,-0.71,0.68
0.46,-0.8,0.6
0.45,-0.82,0.58
0.44,-0.86,0.62
0.39,-0.89,0.76
0.39,-0.88,0.89
0.46,-0.88,0.92
0.48,-0.95,0.89
0.43,-1.04,0.83
0.36,-1.11,0.78
0.3,-1.14,0.75
0.21,-1.16,0.76
0.13,-1.16,0.86
0.17,-1.17,0.84
0.22,-1.18,0.85
0.25,-1.22,0.86
0.24,-1.22,0.86
0.15,-1.16,0.94
0.04,-1.11,1.07
0.03,-1.12,1.11
0.06,-1.13,1.03
0.08,-1.14,0.92
0.09,-1.19,0.85
0.11,-1.24,0.82
0.14,-1.23,0.83
0.13,-1.18,0.89
0.18,-1.16,0.94
0.28,-1.19,0.98
0.34,-1.22,0.98
0.3,-1.23,0.93
0.23,-1.23,0.88
0.2,-1.23,0.83
0.18,-1.23,0.79
0.15,-1.22,0.74
0.11,-1.22,0.72
0.09,-1.21,0.72
0.1,-1.19,0.75
0.17,-1.16,0.76
0.27,-1.13,0.76
0.31,-1.08,0.79
0.32,-1.02,0.86
0.26,-1.02,0.96
0.17,-1.06,1.05
0.14,-1.08,1.08
0.09,-1.08,1.06
-0.02,-1.07,0.98
-0.06,-1.02,0.84
-0.07,-0.96,0.74
-0.07,-0.91,0.68
0,-0.86,0.64
0.09,-0.82,0.59
0.2,-0.79,0.51
0.3,-0.76,0.45
0.33,-0.74,0.38
0.34,-0.73,0.33
0.36,-0.72,0.29
0.39,-0.7,0.25
0.38,-0.71,0.23
0.36,-0.71,0.22
0.34,-0.7,0.22
0.34,-0.69,0.21
0.29,-0.69,0.21
0.27,-0.69,0.24
0.26,-0.7,0.3
0.24,-0.71,0.37
0.24,-0.74,0.4
0.24,-0.74,0.41
0.25,-0.75,0.4
0.27,-0.76,0.4
0.3,-0.77,0.43
0.36,-0.79,0.46
0.41,-0.81,0.51
0.44,-0.81,0.55
0.44,-0.82,0.55
0.42,-0.81,0.56
0.41,-0.81,0.54
0.42,-0.8,0.55
0.46,-0.81,0.53
0.51,-0.85,0.5
0.59,-0.88,0.57
0.7,-0.92,0.61
0.79,-0.91,0.62
0.87,-0.9,0.62
0.9,-0.89,0.6
0.87,-0.86,0.57
0.84,-0.82,0.54
0.79,-0.78,0.51
0.75,-0.75,0.49
0.71,-0.71,0.49
0.69,-0.67,0.49
0.66,-0.64,0.48
0.61,-0.61,0.47
0.58,-0.6,0.45
0.56,-0.61,0.41
0.54,-0.63,0.39
0.51,-0.65,0.38
0.46,-0.67,0.4
0.44,-0.68,0.41
0.44,-0.7,0.39
0.42,-0.71,0.4
0.42,-0.73,0.4
0.42,-0.74,0.39
0.41,-0.75,0.38
0.41,-0.76,0.38
0.4,-0.76,0.4
0.38,-0.77,0.42
0.37,-0.78,0.44
0.36,-0.78,0.46
0.37,-0.78,0.47
0.4,-0.77,0.47
0.43,-0.75,0.48
0.44,-0.73,0.48
0.45,-0.72,0.47
0.48,-0.72,0.48
0.5,-0.72,0.47
0.51,-0.71,0.47
0.51,-0.71,0.48
0.49,-0.71,0.48
0.48,-0.71,0.48
0.46,-0.71,0.49
0.45,-0.71,0.5
0.43,-0.71,0.51
0.42,-0.73,0.52
0.39,-0.75,0.54
0.36,-0.78,0.55
0.3,-0.83,0.54
0.22,-0.81,0.57
0.19,-0.8,0.6
0.15,-0.84,0.62
0.13,-0.89,0.67
0.11,-0.94,0.74
0.1,-0.98,0.78
0.1,-1,0.79
0.05,-1,0.79
-0.02,-1.04,0.82
-0.05,-1.05,0.85
-0.11,-1.05,0.89
-0.16,-1.11,0.94
-0.17,-1.13,0.97
-0.14,-1.11,0.99
-0.09,-1.12,1.01
-0.07,-1.15,1.02
-0.03,-1.19,1
-0.02,-1.22,1
-0.06,-1.23,1.01
-0.08,-1.23,1.01
-0.07,-1.24,1
-0.06,-1.25,0.98
-0.02,-1.26,0.96
-0.01,-1.26,0.99
0.03,-1.27,1.01
0.08,-1.27,0.97
0.11,-1.25,0.9
0.11,-1.24,0.85
0.11,-1.24,0.82
0.16,-1.24,0.81
0.19,-1.19,0.82
0.2,-1.15,0.85
0.22,-1.15,0.87
0.22,-1.15,0.86
0.19,-1.14,0.85
0.18,-1.11,0.84
0.18,-1.07,0.81
0.18,-1.01,0.78
0.16,-0.96,0.79
0.14,-0.93,0.83
0.15,-0.91,0.84
0.16,-0.89,0.8
0.15,-0.85,0.74
0.09,-0.76,0.76
0.06,-0.74,0.82
0.06,-0.71,0.87
0.05,-0.68,0.88
0.03,-0.65,0.86
0.01,-0.63,0.83
-0.01,-0.61,0.8
-0.02,-0.58,0.76
-0.06,-0.53,0.75
-0.11,-0.49,0.76
-0.1,-0.43,0.74
-0.06,-0.39,0.71
0,-0.38,0.69
0.04,-0.37,0.64
0.09,-0.35,0.6
0.12,-0.32,0.59
0.12,-0.27,0.6
0.14,-0.2,0.6
0.17,-0.18,0.6
0.17,-0.19,0.62
0.16,-0.2,0.56
0.13,-0.18,0.5
0.11,-0.12,0.43
0.13,-0.06,0.36
0.22,-0.02,0.34
0.28,-0.02,0.36
0.33,-0.01,0.4
0.35,0,0.38
0.34,0,0.33
0.3,0.01,0.29
0.27,0.04,0.25
0.24,0.06,0.22
0.22,0.07,0.21
0.23,0.08,0.21
0.24,0.07,0.23
0.23,0.07,0.25
0.24,0.06,0.27
0.24,0.04,0.28
0.25,0.02,0.29
0.24,0.01,0.28
0.26,0,0.26
0.28,-0.02,0.25
0.28,-0.07,0.24
0.27,-0.14,0.24
0.26,-0.18,0.25
0.25,-0.2,0.31
0.26,-0.24,0.37
0.3,-0.28,0.43
0.33,-0.34,0.47
0.34,-0.41,0.47
0.32,-0.49,0.45
0.29,-0.55,0.44
0.29,-0.69,0.58
0.36,-0.76,0.69
0.39,-0.74,0.75
0.37,-0.74,0.74
0.37,-0.72,0.69
0.34,-0.72,0.71
0.31,-0.75,0.79
0.33,-0.76,0.85
0.38,-0.78,0.87
0.42,-0.86,0.88
0.43,-0.95,0.89
0.39,-1.02,0.91
0.31,-1.05,0.93
0.27,-1.03,0.93
0.28,-1.01,0.91
0.3,-1.03,0.91
0.33,-1.06,0.94
0.36,-1.08,0.97
0.36,-1.09,0.98
0.31,-1.06,1
0.24,-1.05,1.01
0.21,-1.06,0.96
0.21,-1.09,0.89
0.21,-1.14,0.87
0.23,-1.23,0.86
0.27,-1.29,0.86
0.28,-1.25,0.95
0.26,-1.21,1
0.29,-1.22,1.02
0.27,-1.23,1.01
0.25,-1.25,0.97
0.21,-1.29,0.9
0.16,-1.32,0.83
0.15,-1.31,0.78
0.12,-1.26,0.83
0.08,-1.2,0.93
0.11,-1.18,1.02
0.13,-1.19,1.03
0.11,-1.21,0.99
0.08,-1.23,0.93
0.04,-1.25,0.89
0.03,-1.27,0.85
0.05,-1.28,0.8
0.06,-1.28,0.76
0.05,-1.27,0.75
0.03,-1.24,0.71
0.04,-1.19,0.67
0.04,-1.12,0.64
0.03,-1.06,0.6
0.02,-1,0.55
0.01,-0.94,0.5
0.02,-0.89,0.48
0.02,-0.83,0.46
0.11,-0.81,0.35
0.05,-0.73,0.41
-0.14,-0.71,0.52
-0.14,-0.73,0.42
-0.09,-0.67,0.4
-0.08,-0.67,0.44
0.13,-0.69,0.42
0.32,-0.7,0.39
0.44,-0.71,0.36
0.52,-0.72,0.34
0.6,-0.75,0.33
0.67,-0.75,0.31
0.72,-0.72,0.31
0.73,-0.7,0.32
0.7,-0.67,0.34
0.68,-0.64,0.35
0.69,-0.62,0.38
0.68,-0.61,0.4
0.68,-0.61,0.42
0.69,-0.61,0.44
0.69,-0.62,0.45
0.7,-0.62,0.45
0.71,-0.62,0.46
0.7,-0.63,0.47
0.69,-0.64,0.47
0.68,-0.65,0.5
0.65,-0.66,0.5
0.63,-0.67,0.5
0.62,-0.67,0.48
0.59,-0.68,0.48
0.56,-0.68,0.48
0.54,-0.69,0.48
0.51,-0.69,0.47
0.47,-0.69,0.47
0.45,-0.7,0.48
0.43,-0.73,0.5
0.41,-0.76,0.52
0.4,-0.79,0.52
0.39,-0.82,0.51
0.4,-0.85,0.51
0.41,-0.88,0.53
0.38,-0.91,0.54
0.32,-0.94,0.56
0.26,-0.93,0.57
0.26,-0.94,0.56
0.25,-0.96,0.56
0.24,-0.98,0.56
0.24,-1.01,0.58
0.22,-1.04,0.61
0.19,-1.06,0.64
0.14,-1.09,0.68
0.07,-1.1,0.69
0.01,-1.08,0.69
-0.02,-1.07,0.73
-0.03,-1.09,0.78
-0.02,-1.12,0.8
-0.02,-1.13,0.81
-0.02,-1.15,0.82
-0.01,-1.19,0.83
0,-1.24,0.83
0,-1.25,0.86
-0.02,-1.21,0.92
-0.04,-1.2,0.98
-0.04,-1.21,1.04
-0.04,-1.22,1.05
-0.05,-1.23,1.02
-0.07,-1.25,0.96
-0.07,-1.23,0.91
-0.06,-1.2,0.9
-0.02,-1.21,0.95
0.02,-1.22,1.02
0.04,-1.21,1.05
0.04,-1.17,1.05
0.04,-1.15,1.06
0.05,-1.14,1.06
0.05,-1.14,1.05
0.02,-1.12,1.03
0.01,-1.1,1
0.05,-1.07,1.01
0.08,-1.07,1.05
0.09,-1.08,1.06
0.07,-1.03,1.04
0.05,-0.95,1
0.04,-0.9,0.95
0.05,-0.86,0.9
0.07,-0.81,0.87
0.1,-0.76,0.87
0.13,-0.74,0.89
0.14,-0.73,0.88
0.13,-0.7,0.83
0.11,-0.68,0.76
0.09,-0.67,0.71
0.07,-0.65,0.67
0.07,-0.6,0.64
0.1,-0.55,0.61
0.16,-0.5,0.56
0.22,-0.43,0.53
0.25,-0.36,0.53
0.27,-0.3,0.5
0.28,-0.25,0.46
0.28,-0.22,0.43
0.28,-0.19,0.43
0.3,-0.15,0.43
0.28,-0.15,0.39
0.28,-0.13,0.34
0.3,-0.1,0.27
0.33,-0.05,0.2
0.32,0.01,0.2
0.33,0.07,0.18
0.33,0.11,0.19
0.34,0.1,0.23
0.31,0.08,0.27
0.29,0.07,0.28
0.28,0.06,0.28
0.26,0.06,0.3
0.21,0.07,0.33
0.18,0.1,0.36
0.17,0.11,0.4
0.14,0.11,0.46
0.12,0.1,0.52
0.12,0.08,0.56
0.13,0.06,0.56
0.13,0.04,0.55
0.12,0.03,0.53
0.12,0.02,0.51
0.11,0.02,0.54
0.12,0.03,0.59
0.13,0.03,0.61
0.16,0.03,0.6
0.16,-0.01,0.54
0.17,-0.06,0.49
0.17,-0.12,0.48
0.18,-0.16,0.49
0.22,-0.19,0.51
0.26,-0.21,0.51
0.28,-0.22,0.49
0.27,-0.23,0.45
0.26,-0.29,0.43
0.23,-0.4,0.45
0.19,-0.45,0.53
0.2,-0.43,0.6
0.28,-0.45,0.64
0.31,-0.49,0.62
0.28,-0.52,0.56
0.28,-0.56,0.49
0.3,-0.64,0.46
0.27,-0.76,0.51
0.25,-0.83,0.6
0.29,-0.8,0.66
0.39,-0.81,0.7
0.46,-0.85,0.69
0.42,-0.88,0.68
0.36,-0.92,0.65
0.34,-1,0.63
0.3,-1.09,0.69
0.28,-1.09,0.79
0.34,-1.07,0.81
0.45,-1.11,0.76
0.43,-1.13,0.74
0.4,-1.17,0.75
0.38,-1.22,0.78
0.37,-1.28,0.86
0.37,-1.3,0.93
0.39,-1.31,0.93
0.42,-1.32,0.87
0.4,-1.33,0.83
0.34,-1.32,0.84
0.29,-1.3,0.87
0.28,-1.3,0.89
0.29,-1.32,0.92
0.29,-1.34,0.95
0.3,-1.37,0.97
0.32,-1.38,0.96
0.3,-1.35,0.96
0.26,-1.31,0.98
0.26,-1.28,0.99
0.26,-1.25,1.01
0.24,-1.25,1.01
0.24,-1.28,0.96
0.23,-1.3,0.93
0.18,-1.33,0.91
0.1,-1.35,0.9
0.07,-1.4,0.81
0.1,-1.4,0.76
0.05,-1.39,0.75
0.03,-1.37,0.72
0.01,-1.35,0.66
-0.08,-1.32,0.63
-0.15,-1.29,0.59
-0.18,-1.23,0.55
-0.18,-1.15,0.52
-0.18,-1.07,0.49
-0.2,-1.01,0.49
-0.25,-0.97,0.48
-0.27,-0.9,0.44
-0.18,-0.81,0.38
-0.18,-0.71,0.39
-0.16,-0.61,0.35
-0.08,-0.54,0.3
-0.09,-0.52,0.34
-0.01,-0.54,0.35
0.11,-0.56,0.34
0.24,-0.6,0.33
0.36,-0.63,0.33
0.44,-0.66,0.32
0.49,-0.69,0.34
0.51,-0.71,0.37
0.54,-0.73,0.39
0.55,-0.76,0.4
0.54,-0.75,0.43
0.57,-0.77,0.43
0.6,-0.79,0.42
0.58,-0.8,0.44
0.56,-0.8,0.47
0.55,-0.8,0.49
0.51,-0.8,0.51
0.48,-0.79,0.53
0.47,-0.77,0.54
0.46,-0.76,0.53
0.42,-0.77,0.51
0.4,-0.76,0.52
0.38,-0.75,0.52
0.38,-0.76,0.52
0.37,-0.76,0.54
0.31,-0.78,0.55
0.23,-0.8,0.52
0.19,-0.82,0.49
0.17,-0.85,0.49
0.14,-0.88,0.52
0.1,-0.91,0.57
0.09,-0.94,0.61
0.06,-0.97,0.63
0.04,-1.01,0.65
-0.04,-1.05,0.69
-0.14,-1.12,0.74
-0.18,-1.2,0.7
-0.17,-1.17,0.71
-0.18,-1.17,0.74
-0.12,-1.19,0.8
-0.09,-1.2,0.95
-0.12,-1.2,1.07
-0.14,-1.2,1.08
-0.15,-1.2,1.01
-0.22,-1.19,0.96
-0.28,-1.22,0.96
-0.28,-1.28,0.99
-0.23,-1.32,1.01
-0.17,-1.35,1.03
-0.13,-1.36,1.03
-0.09,-1.38,1.02
-0.05,-1.4,1
-0.02,-1.4,0.98
-0.03,-1.4,0.95
-0.06,-1.4,0.92
-0.03,-1.4,0.88
0.03,-1.42,0.83
0.03,-1.41,0.85
0.06,-1.41,0.88
0.1,-1.39,0.88
0.11,-1.35,0.88
0.07,-1.33,0.92
0,-1.31,0.9
-0.01,-1.27,0.87
0,-1.2,0.84
0.06,-1.1,0.81
0.12,-1.07,0.78
0.16,-1.05,0.75
0.18,-1.03,0.71
0.18,-1.02,0.69
0.16,-0.97,0.68
0.15,-0.89,0.67
0.16,-0.82,0.68
0.17,-0.76,0.7
0.18,-0.72,0.69
0.18,-0.7,0.66
0.17,-0.64,0.62
0.17,-0.59,0.58
0.19,-0.52,0.54
0.23,-0.45,0.53
0.25,-0.42,0.58
0.21,-0.41,0.66
0.15,-0.38,0.69
0.13,-0.38,0.62
0.17,-0.32,0.5
0.22,-0.23,0.45
0.21,-0.18,0.51
0.15,-0.16,0.59
0.14,-0.13,0.55
0.17,-0.1,0.47
0.15,-0.07,0.44
0.14,-0.03,0.46
0.15,0.02,0.48
0.13,0.05,0.48
0.12,0.06,0.46
0.13,0.06,0.45
0.15,0.06,0.42
0.14,0.06,0.4
0.13,0.1,0.39
0.14,0.14,0.39
0.15,0.17,0.38
0.13,0.19,0.41
0.14,0.15,0.45
0.15,0.12,0.47
0.17,0.13,0.5
0.17,0.13,0.55
0.16,0.13,0.6
0.14,0.14,0.64
0.11,0.15,0.69
0.1,0.15,0.71
0.11,0.13,0.73
0.12,0.1,0.78
0.1,0.08,0.85
0.07,0.12,0.92
0.07,0.16,0.94
0.09,0.13,0.98
0.11,0.08,1.02
0.11,0.06,1.08
0.11,0.09,1.11
0.12,0.11,1.11
0.13,0.12,1.09
0.12,0.12,1.08
0.14,0.11,1.1
0.17,0.09,1.14
0.19,0.07,1.15
0.18,0.05,1.14
0.17,0.04,1.11
0.16,0.03,1.09
0.17,0.02,1.06
0.19,0.02,1.02
0.2,0.02,0.97
0.22,0.01,0.91
0.22,0,0.85
0.21,0,0.79
0.21,-0.01,0.74
0.2,-0.02,0.69
0.18,-0.02,0.63
0.18,-0.01,0.58
0.2,-0.03,0.55
0.2,-0.05,0.52
0.18,-0.06,0.48
0.2,-0.07,0.43
0.2,-0.09,0.36
0.21,-0.11,0.28
0.21,-0.15,0.24
0.18,-0.2,0.29
0.14,-0.23,0.36
0.15,-0.23,0.41
0.21,-0.23,0.41
0.27,-0.24,0.42
0.3,-0.28,0.41
0.28,-0.33,0.36
0.23,-0.4,0.32
0.19,-0.49,0.36
0.21,-0.51,0.42
0.3,-0.51,0.49
0.39,-0.58,0.55
0.42,-0.67,0.56
0.41,-0.75,0.53
0.37,-0.82,0.52
0.31,-0.9,0.56
0.27,-0.92,0.65
0.3,-0.86,0.7
0.41,-0.86,0.72
0.5,-0.95,0.71
0.52,-1.06,0.71
0.37,-1.14,0.75
0.35,-1.15,0.76
0.35,-1.17,0.79
0.37,-1.18,0.86
0.41,-1.17,0.92
0.47,-1.18,0.93
0.49,-1.2,0.89
0.47,-1.21,0.83
0.44,-1.19,0.84
0.42,-1.19,0.93
0.41,-1.22,0.99
0.42,-1.26,1.03
0.45,-1.31,1.04
0.46,-1.36,0.99
0.44,-1.4,0.89
0.38,-1.38,0.81
0.3,-1.34,0.8
0.28,-1.3,0.83
0.29,-1.27,0.87
0.29,-1.27,0.93
0.28,-1.29,0.97
0.26,-1.31,0.97
0.23,-1.32,0.95
0.2,-1.33,0.92
0.18,-1.31,0.91
0.13,-1.27,0.93
0.11,-1.24,0.87
0.15,-1.26,0.77
0.18,-1.29,0.7
0.16,-1.33,0.71
0.14,-1.36,0.74
0.16,-1.33,0.74
0.15,-1.31,0.72
0.12,-1.29,0.67
0.06,-1.26,0.61
0.01,-1.22,0.56
-0.01,-1.15,0.53
-0.04,-1.08,0.49
-0.03,-1.02,0.43
0.02,-0.96,0.39
0.06,-0.88,0.39
0.13,-0.86,0.48
0.04,-0.81,0.59
-0.2,-0.72,0.58
-0.26,-0.68,0.52
-0.16,-0.69,0.49
-0.05,-0.67,0.48
0.05,-0.65,0.42
0.17,-0.66,0.37
0.27,-0.63,0.36
0.38,-0.63,0.36
0.47,-0.63,0.37
0.52,-0.63,0.39
0.62,-0.61,0.39
0.63,-0.6,0.37
0.61,-0.6,0.35
0.59,-0.6,0.34
0.57,-0.6,0.36
0.56,-0.61,0.38
0.56,-0.6,0.41
0.57,-0.6,0.42
0.57,-0.59,0.41
0.58,-0.57,0.4
0.58,-0.57,0.38
0.57,-0.58,0.38
0.55,-0.6,0.39
0.52,-0.6,0.41
0.47,-0.61,0.42
0.44,-0.63,0.43
0.4,-0.66,0.44
0.35,-0.68,0.44
0.29,-0.7,0.44
0.22,-0.73,0.45
0.19,-0.78,0.46
0.21,-0.83,0.46
0.2,-0.89,0.51
0.14,-0.97,0.61
0.07,-1.03,0.67
0.03,-1.08,0.64
-0.06,-1.1,0.62
-0.11,-1.15,0.62
-0.17,-1.21,0.65
-0.2,-1.27,0.73
-0.09,-1.29,0.79
-0.04,-1.28,0.84
-0.08,-1.23,0.85
-0.14,-1.24,0.85
-0.19,-1.27,0.85
-0.2,-1.25,0.82
-0.19,-1.25,0.8
-0.19,-1.27,0.79
-0.2,-1.26,0.82
-0.14,-1.26,0.85
-0.1,-1.29,0.88
-0.03,-1.3,0.91
0,-1.31,0.89
-0.05,-1.34,0.85
-0.07,-1.36,0.84
-0.04,-1.37,0.86
0.01,-1.37,0.89
0.02,-1.37,0.93
0.03,-1.38,0.92
0.02,-1.37,0.9
0.03,-1.38,0.9
0.03,-1.39,0.99
0.14,-1.39,0.95
0.18,-1.35,0.89
0.18,-1.31,0.85
0.16,-1.28,0.84
0.16,-1.3,0.84
0.2,-1.34,0.84
0.23,-1.33,0.86
0.23,-1.26,0.87
0.22,-1.17,0.86
0.2,-1.13,0.85
0.2,-1.12,0.83
0.22,-1.09,0.81
0.18,-1.04,0.79
0.15,-0.98,0.76
0.19,-0.92,0.7
0.23,-0.86,0.68
0.24,-0.84,0.7
0.23,-0.84,0.71
0.24,-0.8,0.7
0.24,-0.72,0.67
0.26,-0.63,0.63
0.27,-0.56,0.6
0.25,-0.53,0.59
0.22,-0.5,0.56
0.23,-0.45,0.53
0.23,-0.41,0.48
0.24,-0.33,0.48
0.23,-0.29,0.48
0.27,-0.2,0.5
0.3,-0.16,0.55
0.3,-0.18,0.57
0.32,-0.17,0.54
0.3,-0.12,0.5
0.26,-0.05,0.46
0.25,0.02,0.39
0.26,0.07,0.35
0.29,0.11,0.33
0.31,0.11,0.3
0.29,0.06,0.3
0.32,0.02,0.29
0.32,0.05,0.29
0.29,0.08,0.26
0.29,0.13,0.22
0.28,0.17,0.24
0.3,0.16,0.28
0.31,0.15,0.33
0.29,0.14,0.37
0.28,0.13,0.38
0.25,0.13,0.39
0.21,0.13,0.41
0.18,0.13,0.44
0.17,0.15,0.51
0.14,0.16,0.54
0.13,0.16,0.55
0.14,0.16,0.55
0.15,0.15,0.55
0.13,0.12,0.57
0.12,0.11,0.59
0.14,0.1,0.6
0.17,0.09,0.58
0.19,0.07,0.55
0.19,0.03,0.49
0.19,-0.01,0.42
0.18,-0.07,0.37
0.18,-0.13,0.37
0.19,-0.13,0.39
0.24,-0.12,0.39
0.29,-0.11,0.4
0.31,-0.15,0.37
0.29,-0.24,0.34
0.24,-0.36,0.36
0.19,-0.41,0.4
0.19,-0.43,0.43
0.24,-0.47,0.46
0.28,-0.51,0.52
0.28,-0.53,0.56
0.28,-0.55,0.56
0.24,-0.6,0.61
0.15,-0.76,0.65
0.16,-0.79,0.7
0.22,-0.8,0.73
0.3,-0.82,0.71
0.33,-0.87,0.66
0.33,-0.9,0.62
0.34,-0.95,0.62
0.32,-1.05,0.64
0.29,-1.11,0.73
0.32,-1.08,0.79
0.37,-1.05,0.79
0.38,-1.1,0.77
0.35,-1.18,0.74
0.32,-1.23,0.74
0.32,-1.27,0.79
0.32,-1.32,0.88
0.31,-1.37,0.98
0.3,-1.37,1.03
0.32,-1.32,1.03
0.31,-1.31,1.03
0.31,-1.32,1.01
0.29,-1.33,1.03
0.24,-1.31,1.07
0.22,-1.33,1.11
0.22,-1.36,1.12
0.23,-1.38,1.14
0.24,-1.37,1.11
0.2,-1.35,1.13
0.16,-1.33,1.17
0.16,-1.33,1.15
0.19,-1.33,1.08
0.19,-1.36,1.04
0.16,-1.39,0.97
0.15,-1.42,0.89
0.09,-1.42,0.85
0,-1.41,0.83
-0.07,-1.39,0.77
-0.12,-1.37,0.71
-0.17,-1.37,0.63
-0.21,-1.31,0.58
-0.22,-1.24,0.56
-0.2,-1.23,0.46
-0.21,-1.22,0.38
-0.21,-1.2,0.35
-0.16,-1.18,0.35
-0.13,-1.11,0.36
-0.08,-1.04,0.36
-0.03,-0.98,0.35
-0.05,-0.95,0.39
-0.11,-1.11,0.38
-0.38,-1.02,0.25
-0.67,-0.76,0.17
-0.51,-0.68,0.06
-0.15,-0.7,0.01
0.11,-0.72,0.17
0.14,-0.72,0.31
0.33,-0.76,0.39
0.52,-0.8,0.46
0.6,-0.79,0.51
0.63,-0.78,0.52
0.65,-0.78,0.5
0.64,-0.76,0.49
0.63,-0.74,0.48
0.61,-0.71,0.5
0.58,-0.68,0.54
0.56,-0.65,0.57
0.55,-0.64,0.58
0.55,-0.63,0.57
0.54,-0.62,0.55
0.53,-0.62,0.55
0.52,-0.63,0.53
0.51,-0.64,0.51
0.5,-0.66,0.52
0.48,-0.68,0.54
0.46,-0.7,0.55
0.43,-0.72,0.56
0.41,-0.73,0.55
0.4,-0.75,0.55
0.39,-0.78,0.52
0.35,-0.79,0.5
0.32,-0.78,0.49
0.28,-0.79,0.49
0.25,-0.8,0.51
0.23,-0.82,0.54
0.22,-0.84,0.55
0.22,-0.86,0.54
0.2,-0.86,0.52
0.15,-0.87,0.51
0.13,-0.91,0.5
0.12,-0.96,0.51
0.13,-1.01,0.56
0.15,-1.06,0.65
0.15,-1.09,0.74
0.11,-1.12,0.79
0.09,-1.14,0.78
0.08,-1.16,0.77
0.01,-1.22,0.75
-0.03,-1.22,0.69
-0.02,-1.2,0.68
0.02,-1.22,0.74
0.06,-1.26,0.82
0.09,-1.27,0.88
0.14,-1.28,0.89
0.14,-1.28,0.84
0.1,-1.23,0.79
0.15,-1.23,0.85
0.21,-1.27,0.92
0.22,-1.33,0.96
0.19,-1.37,0.97
0.18,-1.39,0.95
0.17,-1.35,0.92
0.19,-1.31,0.9
0.23,-1.33,0.91
0.27,-1.36,0.93
0.29,-1.41,0.95
0.31,-1.45,0.95
0.32,-1.43,0.92
0.32,-1.39,0.86
0.33,-1.36,0.86
0.34,-1.3,0.86
0.33,-1.25,0.84
0.32,-1.22,0.82
0.32,-1.2,0.81
0.33,-1.18,0.79
0.35,-1.15,0.75
0.35,-1.11,0.72
0.35,-1.08,0.7
0.37,-1.03,0.66
0.38,-1,0.63
0.37,-0.98,0.62
0.36,-0.87,0.58
0.37,-0.79,0.55
0.37,-0.74,0.54
0.36,-0.74,0.57
0.36,-0.71,0.59
0.35,-0.62,0.6
0.34,-0.54,0.61
0.32,-0.48,0.62
0.32,-0.41,0.63
0.33,-0.39,0.66
0.32,-0.39,0.67
0.29,-0.34,0.68
0.25,-0.29,0.69
0.23,-0.29,0.68
0.23,-0.26,0.68
0.24,-0.25,0.67
0.23,-0.23,0.65
0.22,-0.19,0.59
0.21,-0.17,0.51
0.23,-0.14,0.42
0.27,-0.09,0.33
0.32,-0.04,0.3
0.36,-0.02,0.29
0.39,0.02,0.28
0.42,0.05,0.3
0.44,0.08,0.3
0.42,0.09,0.29
0.33,0.08,0.27
0.29,0.1,0.27
0.32,0.13,0.28
0.35,0.13,0.29
0.35,0.13,0.31
0.35,0.15,0.33
0.36,0.18,0.35
0.37,0.18,0.4
0.38,0.16,0.45
0.36,0.14,0.49
0.35,0.13,0.52
0.34,0.13,0.53
0.33,0.13,0.55
0.33,0.14,0.58
0.34,0.15,0.61
0.34,0.15,0.64
0.33,0.15,0.68
0.33,0.15,0.72
0.33,0.15,0.74
0.31,0.13,0.74
0.3,0.12,0.74
0.3,0.11,0.76
0.32,0.1,0.76
0.33,0.09,0.76
0.34,0.09,0.75
0.35,0.08,0.67
0.34,0.04,0.64
0.33,0.01,0.62
0.34,0,0.6
0.36,0,0.57
0.37,-0.03,0.54
0.37,-0.07,0.52
0.39,-0.09,0.49
0.4,-0.13,0.48
0.39,-0.16,0.5
0.4,-0.19,0.53
0.4,-0.22,0.55
0.39,-0.25,0.54
0.38,-0.29,0.5
0.39,-0.34,0.46
0.42,-0.4,0.41
0.46,-0.43,0.41
0.51,-0.41,0.45
0.62,-0.36,0.54
0.72,-0.36,0.61
0.7,-0.39,0.63
0.61,-0.42,0.62
0.52,-0.48,0.58
0.44,-0.53,0.54
0.38,-0.58,0.54
0.39,-0.58,0.57
0.52,-0.53,0.63
0.7,-0.6,0.63
0.67,-0.68,0.62
0.63,-0.75,0.6
0.57,-0.82,0.57
0.51,-0.89,0.59
0.5,-0.93,0.63
0.56,-0.95,0.64
0.62,-0.99,0.61
0.64,-1.05,0.58
0.63,-1.09,0.6
0.6,-1.1,0.65
0.59,-1.12,0.67
0.56,-1.15,0.68
0.51,-1.19,0.72
0.49,-1.23,0.76
0.52,-1.27,0.77
0.53,-1.3,0.78
0.49,-1.31,0.84
0.44,-1.28,0.93
0.41,-1.27,0.99
0.41,-1.29,1.02
0.42,-1.33,1.03
0.42,-1.37,1.04
0.43,-1.41,1.04
0.44,-1.43,1.04
0.44,-1.42,1.15
0.37,-1.26,1.19
0.41,-1.23,1.16
0.36,-1.18,1.13
0.31,-1.17,1.09
0.27,-1.24,1.05
0.24,-1.3,1.02
0.24,-1.33,1.01
0.25,-1.37,0.97
0.2,-1.41,0.92
0.16,-1.42,0.84
0.16,-1.36,0.73
0.13,-1.28,0.63
0.08,-1.22,0.55
0.01,-1.14,0.49
-0.04,-1.05,0.45
-0.04,-0.96,0.43
-0.02,-0.88,0.44
0.01,-0.82,0.43
0.05,-0.78,0.43
0.11,-0.72,0.42
0.14,-0.67,0.4
0.16,-0.64,0.38
0.17,-0.64,0.33
0.14,-0.61,0.34
0.18,-0.62,0.38
0.28,-0.64,0.45
0.32,-0.62,0.42
0.37,-0.6,0.37
0.41,-0.59,0.32
0.45,-0.59,0.3
0.48,-0.6,0.3
0.49,-0.6,0.32
0.5,-0.61,0.36
0.5,-0.61,0.39
0.48,-0.61,0.4
0.47,-0.61,0.39
0.47,-0.61,0.38
0.46,-0.62,0.35
0.46,-0.63,0.34
0.44,-0.65,0.36
0.43,-0.66,0.39
0.42,-0.68,0.42
0.38,-0.72,0.47
0.33,-0.77,0.51
0.31,-0.79,0.51
0.28,-0.8,0.5
0.2,-0.83,0.5
0.15,-0.87,0.51
0.16,-0.9,0.53
0.15,-0.94,0.59
0.12,-1,0.63
0.13,-1.04,0.67
0.1,-1.12,0.73
0.11,-1.15,0.72
0.05,-1.18,0.76
0.02,-1.19,0.81
0.01,-1.19,0.82
-0.02,-1.24,0.84
0,-1.28,0.87
0.05,-1.25,0.94
0.07,-1.28,1.01
0.02,-1.31,1.05
-0.05,-1.29,1.07
-0.07,-1.27,1.04
-0.06,-1.28,1.02
-0.04,-1.27,1.03
0.02,-1.27,1.07
0.08,-1.32,1.13
0.1,-1.38,1.16
0.12,-1.39,1.13
0.12,-1.39,1.06
0.14,-1.37,1.01
0.18,-1.36,1.02
0.21,-1.38,1.07
0.23,-1.39,1.09
0.23,-1.39,1.07
0.21,-1.4,1.04
0.19,-1.39,1
0.23,-1.32,0.9
0.31,-1.28,0.87
0.35,-1.26,0.86
0.35,-1.26,0.85
0.33,-1.24,0.82
0.32,-1.21,0.78
0.31,-1.17,0.74
0.33,-1.14,0.68
0.37,-1.06,0.64
0.39,-0.98,0.66
0.39,-0.96,0.69
0.4,-0.93,0.69
0.38,-0.87,0.68
0.35,-0.79,0.67
0.31,-0.74,0.65
0.3,-0.7,0.59
0.32,-0.65,0.53
0.35,-0.6,0.51
0.35,-0.57,0.53
0.34,-0.54,0.55
0.32,-0.49,0.53
0.32,-0.4,0.49
0.32,-0.32,0.44
0.32,-0.26,0.4
0.3,-0.25,0.36
0.3,-0.24,0.32
0.32,-0.22,0.3
0.3,-0.19,0.31
0.29,-0.12,0.3
0.29,0,0.26
0.28,0.09,0.22
0.28,0.12,0.2
0.29,0.12,0.18
0.3,0.07,0.16
0.33,0.09,0.21
0.35,0.11,0.23
0.32,0.13,0.22
0.32,0.19,0.25
0.34,0.19,0.27
0.34,0.16,0.31
0.34,0.15,0.34
0.35,0.13,0.36
0.35,0.13,0.37
0.33,0.14,0.39
0.33,0.16,0.42
0.34,0.15,0.45
0.34,0.12,0.48
0.34,0.1,0.5
0.34,0.1,0.51
0.35,0.1,0.52
0.36,0.1,0.53
0.35,0.1,0.55
0.33,0.07,0.55
0.31,0.06,0.54
0.3,0.03,0.54
0.29,0.02,0.53
0.29,0,0.51
0.29,-0.03,0.49
0.29,-0.06,0.48
0.29,-0.1,0.46
0.29,-0.14,0.46
0.29,-0.15,0.47
0.31,-0.16,0.49
0.33,-0.17,0.48
0.34,-0.2,0.44
0.35,-0.22,0.4
0.38,-0.25,0.38
0.41,-0.31,0.39
0.45,-0.38,0.4
0.47,-0.45,0.43
0.47,-0.51,0.44
0.44,-0.53,0.46
0.41,-0.54,0.48
0.43,-0.56,0.51
0.45,-0.58,0.53
0.47,-0.6,0.5
0.51,-0.65,0.45
0.54,-0.73,0.41
0.55,-0.85,0.58
0.58,-0.97,0.73
0.65,-0.95,0.77
0.64,-0.97,0.75
0.57,-1.01,0.7
0.51,-1.04,0.65
0.42,-1.04,0.68
0.38,-1.07,0.71
0.39,-1.16,0.74
0.44,-1.18,0.85
0.56,-1.13,0.94
0.72,-1.13,0.92
0.76,-1.18,0.88
0.66,-1.23,0.86
0.53,-1.27,0.87
0.43,-1.31,0.89
0.36,-1.35,0.93
0.32,-1.37,0.96
0.35,-1.35,0.97
0.4,-1.33,0.97
0.43,-1.32,0.96
0.41,-1.3,0.96
0.33,-1.27,0.99
0.26,-1.26,1.02
0.26,-1.27,1.03
0.24,-1.3,1.02
0.2,-1.32,0.99
0.2,-1.32,0.95
0.17,-1.28,0.94
0.09,-1.24,0.94
0.01,-1.2,0.91
-0.07,-1.18,0.88
-0.1,-1.2,0.84
-0.06,-1.27,0.79
-0.05,-1.29,0.75
-0.08,-1.29,0.78
0,-1.3,0.8
0.08,-1.23,0.76
0.03,-1.11,0.72
-0.1,-1.05,0.67
-0.23,-1.01,0.6
-0.25,-0.97,0.53
-0.23,-0.94,0.49
-0.2,-0.93,0.5
-0.16,-0.91,0.52
-0.09,-0.91,0.5
-0.08,-0.92,0.53
-0.2,-0.94,0.57
-0.36,-0.9,0.48
-0.28,-0.86,0.38
0,-0.85,0.3
0.21,-0.86,0.24
0.37,-0.88,0.15
0.51,-0.88,0.14
0.57,-0.86,0.17
0.59,-0.82,0.23
0.58,-0.78,0.28
0.63,-0.77,0.29
0.68,-0.76,0.27
0.68,-0.74,0.26
0.69,-0.72,0.26
0.71,-0.72,0.24
0.74,-0.72,0.22
0.75,-0.72,0.22
0.77,-0.73,0.23
0.78,-0.73,0.24
0.8,-0.73,0.25
0.8,-0.73,0.26
0.77,-0.74,0.28
0.74,-0.74,0.29
0.73,-0.74,0.28
0.72,-0.74,0.26
0.71,-0.74,0.25
0.71,-0.75,0.25
0.71,-0.76,0.26
0.69,-0.78,0.25
0.66,-0.78,0.24
0.63,-0.78,0.24
0.61,-0.79,0.23
0.56,-0.79,0.22
0.54,-0.79,0.21
0.54,-0.79,0.19
0.54,-0.79,0.18
0.55,-0.79,0.17
0.55,-0.79,0.15
0.55,-0.79,0.13
0.53,-0.79,0.11
0.53,-0.79,0.1
0.52,-0.78,0.08
0.49,-0.78,0.07
0.47,-0.78,0.06
0.45,-0.8,0.06
0.42,-0.84,0.06
0.38,-0.88,0.06
0.36,-0.93,0.08
0.33,-0.97,0.11
0.3,-0.99,0.15
0.28,-1.01,0.17
0.24,-1.03,0.19
0.19,-1.06,0.2
0.11,-1.11,0.17
0.08,-1.16,0.14
0.12,-1.21,0.11
0.17,-1.24,0.13
0.17,-1.26,0.19
0.07,-1.32,0.3
0.05,-1.32,0.32
0.05,-1.31,0.34
0.06,-1.27,0.34
0.04,-1.28,0.33
0.02,-1.31,0.39
0.05,-1.32,0.5
0.08,-1.31,0.6
0.07,-1.29,0.69
0.06,-1.31,0.77
0.03,-1.36,0.8
0.01,-1.42,0.77
0.03,-1.49,0.72
0.06,-1.54,0.72
0.09,-1.59,0.82
0.13,-1.6,0.93
0.15,-1.6,1
0.15,-1.58,1
0.18,-1.52,0.96
0.18,-1.43,0.95
0.18,-1.37,0.98
0.22,-1.41,1.02
0.27,-1.47,1.06
0.31,-1.53,1.08
0.29,-1.51,1.05
0.27,-1.39,0.97
0.26,-1.26,0.88
0.28,-1.28,0.9
0.31,-1.27,0.89
0.34,-1.22,0.86
0.36,-1.17,0.83
0.36,-1.15,0.79
0.36,-1.13,0.74
0.37,-1.09,0.67
0.4,-1.01,0.61
0.44,-0.9,0.61
0.45,-0.82,0.63
0.44,-0.77,0.62
0.41,-0.73,0.58
0.41,-0.71,0.53
0.41,-0.69,0.48
0.39,-0.65,0.43
0.39,-0.55,0.39
0.41,-0.44,0.39
0.38,-0.37,0.42
0.38,-0.32,0.43
0.38,-0.29,0.39
0.33,-0.26,0.34
0.29,-0.22,0.34
0.25,-0.19,0.34
0.25,-0.14,0.32
0.27,-0.1,0.33
0.28,-0.04,0.24
0.2,0,0.22
0.21,0.06,0.23
0.21,0.09,0.23
0.19,0.1,0.23
0.16,0.1,0.25
0.17,0.13,0.25
0.2,0.16,0.24
0.24,0.2,0.25
0.28,0.21,0.29
0.31,0.19,0.34
0.31,0.18,0.36
0.32,0.18,0.38
0.33,0.16,0.4
0.34,0.12,0.43
0.33,0.1,0.46
0.32,0.1,0.48
0.3,0.11,0.5
0.29,0.09,0.53
0.3,0.07,0.55
0.31,0.06,0.58
0.34,0.05,0.59
0.35,0.04,0.59
0.33,0.03,0.59
0.33,0.02,0.59
0.33,0.02,0.59
0.32,0,0.52
0.34,-0.05,0.47
0.33,-0.11,0.44
0.33,-0.15,0.42
0.35,-0.19,0.4
0.35,-0.21,0.4
0.35,-0.19,0.39
0.35,-0.17,0.36
0.35,-0.19,0.32
0.33,-0.26,0.27
0.28,-0.4,0.26
0.23,-0.52,0.31
0.21,-0.56,0.39
0.25,-0.56,0.46
0.31,-0.57,0.48
0.32,-0.59,0.48
0.32,-0.6,0.43
0.3,-0.65,0.38
0.27,-0.74,0.39
0.27,-0.83,0.46
0.34,-0.92,0.56
0.41,-0.97,0.62
0.44,-0.96,0.61
0.45,-0.95,0.57
0.46,-0.95,0.54
0.44,-1,0.56
0.43,-1.1,0.69
0.48,-1.14,0.75
0.57,-1.17,0.78
0.64,-1.22,0.81
0.64,-1.27,0.85
0.61,-1.29,0.89
0.59,-1.3,0.92
0.55,-1.32,0.93
0.52,-1.33,0.93
0.52,-1.35,0.92
0.53,-1.37,0.9
0.54,-1.39,0.89
0.53,-1.38,0.88
0.52,-1.35,0.9
0.5,-1.32,0.94
0.48,-1.3,0.99
0.47,-1.3,0.97
0.47,-1.31,0.92
0.41,-1.33,0.86
0.35,-1.34,0.82
0.31,-1.33,0.81
0.24,-1.29,0.84
0.23,-1.23,0.9
0.28,-1.21,0.9
0.31,-1.24,0.88
0.27,-1.26,0.85
0.25,-1.27,0.76
0.24,-1.32,0.77
0.25,-1.33,0.75
0.23,-1.35,0.7
0.17,-1.35,0.65
0.14,-1.33,0.59
0.12,-1.31,0.54
0.1,-1.3,0.48
0.07,-1.24,0.46
0.05,-1.16,0.46
0.05,-1.12,0.44
0.06,-1.04,0.43
0.05,-0.96,0.43
0.03,-0.91,0.41
0.05,-0.86,0.34
0.07,-0.8,0.28
0.07,-0.75,0.27
0.07,-0.72,0.29
0.11,-0.7,0.31
0.1,-0.69,0.34
0.09,-0.69,0.39
0.1,-0.68,0.42
0.08,-0.66,0.43
0.12,-0.66,0.39
0.2,-0.67,0.35
0.28,-0.68,0.35
0.38,-0.7,0.35
0.54,-0.73,0.39
0.6,-0.75,0.43
0.62,-0.75,0.45
0.6,-0.74,0.44
0.59,-0.73,0.41
0.58,-0.72,0.38
0.58,-0.71,0.39
0.58,-0.68,0.42
0.54,-0.65,0.44
0.5,-0.65,0.44
0.48,-0.68,0.4
0.49,-0.68,0.42
0.5,-0.69,0.47
0.48,-0.72,0.51
0.43,-0.74,0.51
0.36,-0.75,0.49
0.28,-0.79,0.52
0.2,-0.85,0.54
0.11,-0.91,0.57
0.07,-0.96,0.62
0.04,-1,0.65
0.05,-1.07,0.66
0.06,-1.12,0.67
0.06,-1.13,0.69
0.06,-1.16,0.69
0.03,-1.2,0.67
-0.06,-1.21,0.67
-0.09,-1.24,0.67
-0.02,-1.25,0.71
0,-1.23,0.79
-0.02,-1.27,0.83
-0.03,-1.27,0.84
0,-1.24,0.83
-0.01,-1.23,0.83
-0.05,-1.24,0.81
-0.05,-1.25,0.8
-0.02,-1.26,0.82
0,-1.29,0.87
0.06,-1.33,0.9
0.08,-1.35,0.92
0.09,-1.35,0.91
0.15,-1.35,0.85
0.2,-1.36,0.8
0.19,-1.35,0.83
0.2,-1.37,0.88
0.24,-1.37,0.9
0.28,-1.34,0.86
0.31,-1.32,0.84
0.3,-1.32,0.88
0.3,-1.31,0.9
0.3,-1.28,0.89
0.3,-1.25,0.86
0.29,-1.16,0.85
0.3,-1.12,0.84
0.3,-1.1,0.85
0.28,-1.08,0.89
0.26,-1.07,0.9
0.26,-1.04,0.87
0.26,-1,0.81
0.25,-0.95,0.76
0.25,-0.94,0.73
0.22,-0.94,0.74
0.2,-0.9,0.72
0.21,-0.8,0.7
0.22,-0.71,0.7
0.23,-0.66,0.68
0.24,-0.63,0.64
0.24,-0.61,0.64
0.23,-0.59,0.64
0.22,-0.58,0.61
0.21,-0.55,0.56
0.18,-0.5,0.51
0.18,-0.45,0.46
0.22,-0.38,0.42
0.25,-0.34,0.42
0.29,-0.29,0.43
0.34,-0.21,0.42
0.36,-0.2,0.41
0.36,-0.17,0.32
0.38,-0.12,0.33
0.41,-0.06,0.34
0.41,-0.03,0.35
0.4,-0.02,0.38
0.39,0.03,0.41
0.35,0.05,0.42
0.29,0.04,0.38
0.26,0.05,0.39
0.23,0.07,0.42
0.22,0.07,0.45
0.21,0.06,0.46
0.22,0.07,0.48
0.2,0.07,0.48
0.17,0.09,0.46
0.16,0.1,0.44
0.14,0.09,0.47
0.13,0.09,0.49
0.15,0.12,0.5
0.18,0.14,0.49
0.18,0.15,0.49
0.19,0.13,0.48
0.19,0.1,0.47
0.18,0.1,0.45
0.18,0.08,0.44
0.19,0.06,0.44
0.2,0.06,0.45
0.23,0.05,0.43
0.25,0.03,0.4
0.26,0,0.36
0.26,-0.05,0.33
0.24,-0.12,0.36
0.23,-0.16,0.39
0.26,-0.17,0.39
0.29,-0.19,0.36
0.29,-0.23,0.34
0.28,-0.27,0.31
0.29,-0.3,0.28
0.3,-0.37,0.29
0.29,-0.47,0.36
0.25,-0.55,0.47
0.26,-0.56,0.56
0.33,-0.51,0.61
0.37,-0.52,0.61
0.37,-0.59,0.56
0.34,-0.67,0.47
0.3,-0.78,0.4
0.26,-0.87,0.39
0.22,-0.93,0.43
0.23,-0.97,0.5
0.32,-0.98,0.56
0.41,-1.01,0.56
0.45,-1.1,0.59
0.41,-1.13,0.66
0.37,-1.19,0.73
0.38,-1.23,0.81
0.42,-1.23,0.85
0.45,-1.25,0.82
0.49,-1.32,0.77
0.5,-1.37,0.76
0.46,-1.37,0.81
0.44,-1.34,0.9
0.45,-1.32,0.95
0.46,-1.31,0.99
0.47,-1.32,1.02
0.47,-1.35,1
0.48,-1.39,0.95
0.47,-1.42,0.89
0.45,-1.44,0.84
0.41,-1.47,0.79
0.37,-1.49,0.78
0.33,-1.45,0.82
0.34,-1.43,0.86
0.37,-1.43,0.86
0.34,-1.44,0.82
0.31,-1.43,0.77
0.27,-1.45,0.74
0.2,-1.47,0.69
0.17,-1.44,0.69
0.06,-1.41,0.75
0.02,-1.39,0.83
0.06,-1.34,0.79
0.07,-1.33,0.65
0.04,-1.36,0.58
0.07,-1.31,0.55
0.07,-1.25,0.57
0.05,-1.21,0.58
0.03,-1.18,0.61
0.04,-1.16,0.6
0.06,-1.11,0.55
-0.01,-1.05,0.44
-0.1,-0.95,0.47
-0.49,-0.86,0.59
-0.76,-0.81,0.58
-0.48,-0.76,0.53
-0.2,-0.73,0.43
-0.09,-0.75,0.37
0.06,-0.79,0.33
0.23,-0.79,0.27
0.3,-0.79,0.23
0.42,-0.81,0.2
0.56,-0.83,0.2
0.63,-0.81,0.23
0.66,-0.78,0.27
0.67,-0.75,0.27
0.67,-0.68,0.27
0.68,-0.65,0.27
0.7,-0.62,0.28
0.7,-0.6,0.29
0.69,-0.59,0.3
0.7,-0.59,0.31
0.71,-0.59,0.32
0.7,-0.59,0.34
0.7,-0.59,0.34
0.7,-0.6,0.34
0.69,-0.61,0.35
0.68,-0.62,0.36
0.67,-0.64,0.37
0.67,-0.65,0.37
0.66,-0.67,0.38
0.64,-0.68,0.38
0.61,-0.69,0.38
0.58,-0.7,0.37
0.55,-0.72,0.36
0.5,-0.73,0.38
0.42,-0.74,0.4
0.34,-0.75,0.41
0.31,-0.77,0.44
0.31,-0.81,0.47
0.29,-0.85,0.53
0.25,-0.93,0.6
0.15,-0.99,0.62
0.09,-1.05,0.66
0.05,-1.09,0.69
-0.01,-1.12,0.7
-0.15,-1.17,0.72
-0.15,-1.22,0.74
-0.12,-1.23,0.74
-0.09,-1.25,0.8
-0.02,-1.27,0.85
-0.06,-1.3,0.87
-0.03,-1.36,0.9
0.09,-1.32,0.89
0.12,-1.28,0.86
0.08,-1.32,0.86
0.06,-1.32,0.9
0.08,-1.37,0.94
0.09,-1.43,0.99
0.07,-1.44,1.02
0.05,-1.47,1
0.04,-1.49,0.99
0.05,-1.5,1
0.07,-1.53,0.99
0.06,-1.54,1.03
0.08,-1.56,1.03
0.1,-1.57,0.99
0.12,-1.57,0.94
0.2,-1.48,0.98
0.23,-1.45,0.98
0.25,-1.41,0.95
0.25,-1.37,0.91
0.25,-1.33,0.85
0.25,-1.3,0.78
0.26,-1.28,0.73
0.28,-1.26,0.72
0.29,-1.2,0.7
0.3,-1.13,0.64
0.32,-1.06,0.58
0.35,-1,0.54
0.36,-0.95,0.52
0.38,-0.91,0.5
0.39,-0.88,0.48
0.4,-0.86,0.46
0.38,-0.82,0.46
0.34,-0.71,0.45
0.31,-0.57,0.47
0.3,-0.45,0.49
0.32,-0.39,0.48
0.37,-0.35,0.44
0.35,-0.35,0.45
0.29,-0.35,0.47
0.25,-0.31,0.47
0.23,-0.27,0.48
0.18,-0.11,0.45
0.19,-0.05,0.43
0.2,-0.05,0.45
0.21,-0.09,0.48
0.19,-0.12,0.5
0.16,-0.1,0.48
0.15,-0.03,0.44
0.14,0.03,0.41
0.18,0.05,0.4
0.22,0.07,0.41
0.23,0.07,0.44
0.24,0.03,0.45
0.22,0.04,0.45
0.21,0.11,0.47
0.21,0.14,0.47
0.23,0.14,0.45
0.22,0.12,0.42
0.19,0.07,0.37
0.16,0.04,0.32
0.16,0.04,0.29
0.15,0.04,0.3
0.13,0.05,0.34
0.13,0.05,0.36
0.15,0.05,0.38
0.15,0.04,0.4
0.14,0.02,0.39
0.15,0,0.35
0.14,-0.03,0.32
0.12,-0.07,0.3
0.12,-0.11,0.31
0.13,-0.15,0.33
0.14,-0.2,0.34
0.14,-0.25,0.33
0.13,-0.28,0.29
0.13,-0.29,0.26
0.13,-0.31,0.27
0.15,-0.36,0.29
0.18,-0.43,0.31
0.16,-0.49,0.32
0.12,-0.59,0.29
0.11,-0.7,0.28
0.17,-0.75,0.3
0.22,-0.8,0.38
0.26,-0.84,0.46
0.26,-0.87,0.54
0.24,-0.91,0.54
0.26,-0.93,0.57
0.3,-0.95,0.68
0.35,-1.03,0.74
0.36,-1.11,0.75
0.36,-1.19,0.71
0.37,-1.29,0.64
0.31,-1.36,0.64
0.28,-1.35,0.7
0.3,-1.31,0.77
0.38,-1.3,0.8
0.42,-1.33,0.85
0.44,-1.4,0.86
0.46,-1.47,0.81
0.42,-1.51,0.77
0.33,-1.53,0.78
0.28,-1.54,0.8
0.29,-1.52,0.82
0.31,-1.49,0.86
0.35,-1.49,0.9
0.39,-1.52,0.91
0.39,-1.54,0.9
0.36,-1.53,0.92
0.34,-1.51,0.94
0.35,-1.51,0.95
0.36,-1.5,0.95
0.33,-1.5,0.95
0.34,-1.5,0.88
0.34,-1.5,0.83
0.32,-1.5,0.86
0.29,-1.47,0.86
0.26,-1.48,0.82
0.16,-1.51,0.78
0.16,-1.49,0.66
0.12,-1.44,0.61
0.09,-1.46,0.61
0.04,-1.45,0.59
-0.07,-1.48,0.58
-0.09,-1.5,0.57
-0.03,-1.39,0.52
0,-1.23,0.46
0.12,-1.34,0.44
-0.1,-1.14,0.41
-0.55,-0.85,0.54
-0.61,-0.79,0.74
-0.47,-0.62,0.78
-0.24,-0.54,0.71
0.02,-0.52,0.59
0.19,-0.56,0.47
0.29,-0.58,0.38
0.35,-0.6,0.32
0.44,-0.61,0.3
0.55,-0.6,0.3
0.63,-0.59,0.32
0.68,-0.58,0.33
0.73,-0.57,0.33
0.75,-0.56,0.31
0.78,-0.54,0.3
0.8,-0.52,0.28
0.8,-0.5,0.24
0.76,-0.5,0.24
0.74,-0.48,0.26
0.71,-0.48,0.29
0.67,-0.49,0.32
0.65,-0.51,0.34
0.64,-0.53,0.36
0.63,-0.55,0.38
0.62,-0.57,0.4
0.63,-0.6,0.42
0.65,-0.62,0.44
0.65,-0.64,0.45
0.65,-0.65,0.44
0.65,-0.66,0.44
0.65,-0.66,0.44
0.64,-0.65,0.45
0.65,-0.64,0.47
0.65,-0.63,0.49
0.65,-0.62,0.51
0.66,-0.61,0.52
0.67,-0.6,0.53
0.69,-0.59,0.55
0.72,-0.58,0.58
0.74,-0.56,0.6
0.75,-0.56,0.62
0.73,-0.55,0.63
0.74,-0.52,0.62
0.78,-0.51,0.59
0.78,-0.5,0.55
0.8,-0.5,0.51
0.8,-0.49,0.48
0.8,-0.48,0.46
0.8,-0.47,0.44
0.79,-0.47,0.42
0.8,-0.48,0.4
0.8,-0.48,0.41
0.8,-0.48,0.43
0.82,-0.46,0.45
0.83,-0.46,0.46
0.86,-0.46,0.46
0.89,-0.47,0.44
0.89,-0.5,0.41
0.88,-0.51,0.37
0.86,-0.51,0.36
0.82,-0.51,0.34
0.79,-0.51,0.31
0.73,-0.54,0.3
0.76,-0.57,0.26
0.83,-0.59,0.18
0.84,-0.64,0.17
0.88,-0.71,0.19
0.93,-0.76,0.21
0.92,-0.79,0.22
0.86,-0.78,0.22
0.82,-0.75,0.2
0.81,-0.72,0.18
0.78,-0.68,0.17
0.73,-0.64,0.15
0.69,-0.62,0.14
0.67,-0.62,0.14
0.68,-0.63,0.14
0.72,-0.67,0.14
0.76,-0.69,0.12
0.78,-0.69,0.11
0.78,-0.67,0.1
0.74,-0.65,0.1
0.69,-0.63,0.12
0.66,-0.62,0.16
0.65,-0.61,0.18
0.65,-0.6,0.18
0.64,-0.6,0.17
0.62,-0.59,0.15
0.61,-0.59,0.13
0.6,-0.59,0.13
0.58,-0.6,0.13
0.57,-0.61,0.13
0.58,-0.63,0.12
0.61,-0.65,0.11
0.63,-0.67,0.1
0.63,-0.71,0.1
0.64,-0.72,0.1
0.63,-0.73,0.1
0.61,-0.74,0.1
0.61,-0.75,0.11
0.58,-0.77,0.11
0.57,-0.78,0.12
0.56,-0.8,0.12
0.55,-0.82,0.12
0.53,-0.83,0.1
0.53,-0.84,0.08
0.52,-0.87,0.08
0.51,-0.9,0.07
0.49,-0.94,0.05
0.47,-0.96,0.04
0.45,-0.97,0.03
0.44,-0.98,0.01
0.43,-0.99,0.01
0.41,-1,0
0.39,-1.04,-0.01
0.38,-1.1,0
0.39,-1.15,-0.02
0.4,-1.21,-0.04
0.4,-1.3,-0.03
0.39,-1.36,-0.04
0.37,-1.34,-0.06
0.34,-1.18,-0.03
0.33,-1.09,-0.03
0.33,-1.02,0
0.35,-0.95,0.03
0.37,-0.88,0.05
0.36,-0.88,0.05
0.3,-0.99,0.09
0.3,-1.06,0.11
0.34,-1.11,0.09
0.33,-1.22,0.09
0.33,-1.28,0.07
0.34,-1.31,0.06
0.35,-1.31,0.06
0.38,-1.27,0.08
0.4,-1.2,0.11
0.41,-1.13,0.15
0.43,-1.07,0.17
0.46,-1,0.2
0.49,-0.94,0.22
0.53,-0.9,0.22
0.57,-0.88,0.2
0.59,-0.85,0.18
0.62,-0.83,0.17
0.62,-0.82,0.19
0.65,-0.82,0.22
0.69,-0.8,0.22
0.69,-0.8,0.22
0.74,-0.76,0.17
0.76,-0.73,0.15
0.81,-0.66,0.12
0.83,-0.65,0.14
0.85,-0.65,0.2
0.89,-0.63,0.18
0.92,-0.62,0.17
0.94,-0.62,0.18
0.92,-0.62,0.16
0.9,-0.61,0.13
0.92,-0.61,0.11
0.97,-0.64,0.08
1.02,-0.67,0.08
1.03,-0.67,0.15
1.03,-0.69,0.24
0.99,-0.68,0.3
0.9,-0.65,0.35
0.82,-0.65,0.39
0.78,-0.62,0.41
0.78,-0.6,0.43
0.79,-0.57,0.43
0.78,-0.54,0.4
0.79,-0.52,0.39
0.83,-0.5,0.38
0.84,-0.48,0.38
0.74,-0.44,0.36
0.68,-0.42,0.37
0.66,-0.4,0.37
0.66,-0.41,0.39
0.65,-0.42,0.4
0.68,-0.43,0.4
0.7,-0.45,0.38
0.7,-0.44,0.34
0.72,-0.43,0.3
0.69,-0.41,0.27
0.65,-0.39,0.25
0.64,-0.38,0.26
0.66,-0.39,0.29
0.7,-0.39,0.36
0.75,-0.39,0.42
0.83,-0.4,0.46
0.85,-0.41,0.44
0.83,-0.44,0.42
0.85,-0.44,0.43
0.9,-0.44,0.46
0.88,-0.45,0.5
0.87,-0.43,0.53
0.84,-0.43,0.57
0.8,-0.39,0.59
0.76,-0.36,0.56
0.72,-0.34,0.51
0.72,-0.13,0.54
0.63,-0.19,0.56
0.64,-0.19,0.6
0.73,-0.11,0.59
0.74,-0.1,0.58
0.73,-0.04,0.58
0.7,-0.01,0.6
0.7,0.01,0.59
0.72,0.04,0.6
0.76,0.08,0.63
0.76,0.12,0.7
0.67,0.12,0.75
0.6,0.11,0.76
0.62,0.15,0.76
0.64,0.22,0.78
0.62,0.23,0.81
0.61,0.24,0.85
0.64,0.25,0.89
0.67,0.26,0.91
0.7,0.28,0.93
0.7,0.29,0.96
0.66,0.27,1
0.64,0.28,1.01
0.62,0.3,1
0.58,0.29,0.98
0.55,0.3,0.96
0.52,0.36,0.9
0.46,0.38,0.87
0.39,0.37,0.85
0.39,0.39,0.83
0.4,0.4,0.81
0.39,0.41,0.78
0.38,0.42,0.77
0.37,0.42,0.77
0.36,0.41,0.79
0.34,0.4,0.82
0.34,0.4,0.85
0.36,0.41,0.86
0.39,0.41,0.87
0.43,0.41,0.88
0.44,0.38,0.89
0.41,0.36,0.92
0.38,0.35,0.93
0.38,0.35,0.92
0.4,0.33,0.9
0.39,0.32,0.9
0.39,0.31,0.9
0.38,0.31,0.88
0.38,0.31,0.87
0.38,0.33,0.86
0.38,0.34,0.86
0.38,0.34,0.87
0.4,0.33,0.88
0.41,0.34,0.87
0.4,0.33,0.89
0.41,0.35,0.87
0.41,0.36,0.84
0.4,0.37,0.85
0.4,0.37,0.86
0.38,0.37,0.86
0.37,0.37,0.88
0.37,0.36,0.87
0.36,0.37,0.87
0.35,0.37,0.88
0.36,0.37,0.87
0.37,0.37,0.85
0.36,0.37,0.85
0.35,0.37,0.86
0.35,0.37,0.87
0.34,0.38,0.87
0.35,0.37,0.87
0.35,0.37,0.86
0.35,0.37,0.86
0.36,0.38,0.85
0.37,0.37,0.84
0.39,0.38,0.84
0.38,0.38,0.84
0.37,0.38,0.82
0.39,0.38,0.81
0.41,0.38,0.81
0.42,0.38,0.82
0.42,0.38,0.84
0.4,0.38,0.84
0.39,0.39,0.84
0.38,0.39,0.83
0.38,0.39,0.83
0.39,0.38,0.83
0.38,0.38,0.84
0.37,0.38,0.85
0.37,0.38,0.85
0.37,0.37,0.87
0.37,0.37,0.87
0.37,0.37,0.88
0.37,0.36,0.88
0.37,0.36,0.88
0.36,0.36,0.87
0.36,0.36,0.87
0.36,0.37,0.86
0.36,0.37,0.85
0.38,0.38,0.83
0.38,0.37,0.82
0.37,0.37,0.83
0.35,0.38,0.84
0.35,0.37,0.86
0.35,0.37,0.87
0.37,0.37,0.86
0.39,0.37,0.85
0.38,0.37,0.84
