Acc_x,Acc_y,Acc_z
0.94,-1.31,0.4
0.69,-1.27,0.41
0.45,-1.28,0.42
0.54,-1.3,0.34
0.56,-1.21,0.35
0.46,-1.14,0.38
0.37,-1.12,0.37
0.31,-1.07,0.38
0.27,-1.01,0.4
0.27,-0.96,0.4
0.32,-0.91,0.38
0.33,-0.86,0.36
0.3,-0.82,0.32
0.29,-0.77,0.3
0.28,-0.74,0.31
0.25,-0.71,0.28
0.23,-0.69,0.31
0.17,-0.69,0.38
0.13,-0.69,0.42
0.25,-0.67,0.39
0.38,-0.65,0.34
0.39,-0.7,0.24
0.37,-0.72,0.21
0.37,-0.73,0.2
0.42,-0.75,0.21
0.49,-0.8,0.22
0.54,-0.85,0.24
0.58,-0.88,0.25
0.64,-0.91,0.24
0.67,-0.95,0.23
0.64,-0.95,0.22
0.6,-0.96,0.24
0.58,-1.01,0.26
0.54,-1.07,0.29
0.52,-1.11,0.32
0.52,-1.14,0.34
0.58,-1.14,0.36
0.6,-1.18,0.36
0.56,-1.22,0.38
0.64,-1.19,0.41
0.75,-1.19,0.43
0.78,-1.24,0.49
0.77,-1.37,0.58
0.79,-1.47,0.66
0.83,-1.46,0.75
0.77,-1.48,0.75
0.6,-1.48,0.7
0.47,-1.42,0.71
0.38,-1.43,0.74
0.34,-1.47,0.79
0.34,-1.51,0.89
0.36,-1.51,0.99
0.42,-1.51,1.08
0.39,-1.58,1.08
0.35,-1.61,1.07
0.38,-1.58,1.08
0.4,-1.55,1.05
0.4,-1.54,1.04
0.38,-1.57,1.06
0.37,-1.57,1.07
0.36,-1.54,1.03
0.35,-1.52,0.99
0.33,-1.53,0.97
0.31,-1.51,0.97
0.3,-1.48,0.96
0.3,-1.47,0.93
0.34,-1.45,0.88
0.38,-1.4,0.83
0.39,-1.36,0.79
0.4,-1.32,0.75
0.41,-1.27,0.74
0.41,-1.19,0.72
0.41,-1.1,0.67
0.43,-1.01,0.6
0.47,-0.85,0.58
0.5,-0.72,0.55
0.52,-0.6,0.48
0.46,-0.56,0.41
0.4,-0.56,0.39
0.36,-0.52,0.37
0.36,-0.44,0.3
0.39,-0.36,0.25
0.34,-0.28,0.24
0.29,-0.19,0.24
0.33,-0.09,0.21
0.35,-0.05,0.19
0.25,-0.11,0.17
0.18,-0.1,0.13
0.22,0.02,0.09
0.25,0.1,0.05
0.23,0.1,0.03
0.22,0.11,0.03
0.2,0.17,0.02
0.17,0.21,0.05
0.11,0.22,0.13
0.05,0.28,0.18
0.02,0.32,0.16
0.01,0.31,0.18
-0.03,0.31,0.22
-0.07,0.29,0.21
-0.09,0.26,0.21
-0.12,0.29,0.26
-0.12,0.31,0.32
-0.1,0.3,0.38
-0.08,0.29,0.42
-0.08,0.27,0.44
-0.08,0.23,0.44
-0.09,0.22,0.45
-0.09,0.23,0.47
-0.06,0.24,0.48
-0.04,0.24,0.47
-0.02,0.22,0.44
0,0.17,0.4
0.03,0.11,0.37
0.04,0.06,0.34
0.05,0.02,0.35
0.07,0,0.38
0.12,-0.01,0.38
0.17,-0.05,0.35
0.19,-0.07,0.33
0.22,-0.08,0.32
0.24,-0.12,0.33
0.28,-0.18,0.37
0.34,-0.22,0.41
0.37,-0.27,0.4
0.36,-0.34,0.41
0.28,-0.4,0.43
0.27,-0.45,0.47
0.28,-0.54,0.49
0.32,-0.63,0.49
0.36,-0.63,0.49
0.37,-0.63,0.45
0.38,-0.74,0.42
0.41,-0.83,0.5
0.47,-0.84,0.6
0.55,-0.83,0.61
0.61,-0.9,0.57
0.68,-1.04,0.59
0.7,-1.09,0.59
0.63,-1.08,0.54
0.58,-1.09,0.5
0.59,-1.1,0.53
0.7,-1.09,0.62
0.86,-1.06,0.68
1.01,-1.13,0.68
1.11,-1.31,0.62
1.1,-1.44,0.53
0.97,-1.48,0.45
0.82,-1.51,0.41
0.8,-1.52,0.49
0.92,-1.44,0.66
1.08,-1.32,0.63
1.32,-1.41,0.56
1.34,-1.66,0.55
1.22,-1.8,0.65
1.07,-1.7,0.76
0.98,-1.54,0.81
0.94,-1.43,0.86
0.98,-1.36,0.85
1.06,-1.34,0.8
1.08,-1.33,0.77
1.08,-1.31,0.7
1.04,-1.3,0.64
0.94,-1.32,0.61
0.87,-1.37,0.58
0.81,-1.35,0.58
0.92,-1.26,0.6
1.08,-1.24,0.5
0.83,-1.41,0.46
0.73,-1.43,0.52
0.83,-1.29,0.5
0.76,-1.29,0.47
0.69,-1.33,0.46
0.6,-1.32,0.43
0.48,-1.24,0.38
0.33,-1.15,0.32
0.21,-1.06,0.28
0.19,-0.98,0.28
0.2,-0.83,0.29
0.22,-0.77,0.29
0.23,-0.69,0.26
0.33,-0.7,0.33
0.16,-0.73,0.49
0.02,-0.7,0.47
0.36,-0.63,0.38
0.59,-0.57,0.38
0.66,-0.54,0.33
0.54,-0.46,0.21
0.36,-0.47,0.07
0.38,-0.55,-0.08
0.38,-0.6,-0.17
0.37,-0.61,-0.17
0.4,-0.6,-0.11
0.44,-0.62,-0.07
0.48,-0.64,-0.04
0.53,-0.66,-0.02
0.58,-0.7,0
0.62,-0.73,0
0.62,-0.75,0.01
0.6,-0.78,0.01
0.55,-0.83,0.01
0.5,-0.86,0.03
0.45,-0.87,0.07
0.43,-0.91,0.1
0.41,-0.97,0.12
0.49,-1,0.11
0.58,-1.07,0.1
0.69,-1.12,0.1
0.82,-1.11,0.09
0.83,-1.13,0.09
0.75,-1.18,0.13
0.54,-1.18,0.15
0.46,-1.16,0.25
0.67,-1.18,0.31
0.69,-1.23,0.31
0.58,-1.26,0.35
0.59,-1.26,0.37
0.68,-1.25,0.35
0.71,-1.19,0.37
0.65,-1.18,0.48
0.64,-1.24,0.52
0.72,-1.25,0.51
0.82,-1.22,0.56
0.77,-1.18,0.66
0.74,-1.17,0.7
0.75,-1.2,0.71
0.75,-1.23,0.74
0.78,-1.25,0.76
0.73,-1.22,0.8
0.67,-1.21,0.86
0.63,-1.25,0.92
0.65,-1.35,1
0.66,-1.41,1.1
0.6,-1.41,1.09
0.55,-1.35,1.05
0.53,-1.32,1.01
0.49,-1.36,1.01
0.41,-1.37,1
0.38,-1.37,1.01
0.37,-1.35,1.04
0.35,-1.36,1.04
0.36,-1.37,1.03
0.39,-1.35,1
0.41,-1.33,0.93
0.46,-1.31,0.86
0.51,-1.26,0.84
0.45,-1.24,0.84
0.37,-1.2,0.83
0.38,-1.15,0.82
0.37,-1.13,0.83
0.34,-1.09,0.83
0.34,-1.02,0.77
0.35,-0.94,0.72
0.3,-0.9,0.7
0.26,-0.88,0.65
0.31,-0.79,0.62
0.37,-0.72,0.64
0.31,-0.57,0.62
0.29,-0.52,0.6
0.22,-0.52,0.54
0.17,-0.49,0.47
0.19,-0.42,0.41
0.2,-0.35,0.35
0.21,-0.28,0.31
0.23,-0.22,0.32
0.25,-0.16,0.33
0.22,-0.14,0.31
0.14,-0.14,0.27
0.07,-0.1,0.23
0.07,-0.03,0.14
0.14,0.06,0.06
0.17,0.18,0.03
0.2,0.26,0.04
0.23,0.27,0.1
0.21,0.29,0.13
0.13,0.27,0.1
0,0.26,0.07
-0.07,0.3,0.05
-0.09,0.33,0.02
-0.07,0.34,0.03
0,0.35,0.08
0.04,0.35,0.13
0.04,0.35,0.22
0.04,0.3,0.23
0.01,0.26,0.24
-0.01,0.24,0.25
-0.02,0.24,0.28
0,0.25,0.31
0,0.25,0.34
0,0.26,0.39
0.01,0.25,0.42
0.02,0.24,0.42
0.01,0.21,0.42
0,0.16,0.44
0.03,0.13,0.47
0.05,0.1,0.5
0.07,0.09,0.51
0.09,0.09,0.5
0.11,0.08,0.47
0.12,0.04,0.44
0.14,-0.03,0.45
0.16,-0.11,0.47
0.18,-0.19,0.51
0.21,-0.23,0.56
0.26,-0.22,0.55
0.29,-0.2,0.52
0.28,-0.18,0.49
0.3,-0.18,0.43
0.3,-0.26,0.42
0.38,-0.64,0.53
0.48,-0.74,0.59
0.48,-0.75,0.57
0.45,-0.69,0.51
0.42,-0.58,0.41
0.36,-0.55,0.33
0.33,-0.58,0.42
0.44,-0.67,0.58
0.65,-0.8,0.67
0.77,-0.92,0.66
0.76,-1.02,0.6
0.69,-1.05,0.5
0.58,-1.07,0.42
0.43,-1.13,0.38
0.32,-1.22,0.44
0.41,-1.19,0.68
0.69,-1.08,0.8
0.92,-1.08,0.71
1.03,-1.22,0.6
1.04,-1.38,0.47
0.98,-1.49,0.36
0.85,-1.57,0.37
0.83,-1.56,0.54
0.93,-1.47,0.77
1.04,-1.36,0.86
1.14,-1.31,0.8
1.18,-1.52,0.71
0.98,-1.6,0.71
0.83,-1.59,0.74
0.72,-1.54,0.81
0.71,-1.51,0.9
0.81,-1.48,0.92
0.94,-1.43,0.87
1.04,-1.41,0.81
1.07,-1.45,0.75
1.03,-1.49,0.69
0.93,-1.48,0.63
0.8,-1.45,0.62
0.68,-1.41,0.65
0.65,-1.35,0.65
0.69,-1.31,0.57
0.73,-1.3,0.58
0.94,-1.35,0.44
0.95,-1.33,0.35
0.61,-1.35,0.44
0.51,-1.45,0.33
0.59,-1.39,0.25
0.55,-1.29,0.23
0.42,-1.28,0.2
0.28,-1.25,0.18
0.25,-1.16,0.2
0.28,-1.04,0.2
0.29,-0.87,0.15
0.36,-0.8,0.14
0.33,-0.74,0.13
0.3,-0.69,0.13
0.3,-0.65,0.11
0.3,-0.6,0.12
0.28,-0.58,0.13
0.3,-0.57,0.12
0.29,-0.56,0.1
0.24,-0.54,0.11
0.25,-0.54,0.11
0.25,-0.55,0.1
0.26,-0.57,0.09
0.31,-0.6,0.07
0.35,-0.61,0.06
0.37,-0.64,0.06
0.41,-0.68,0.08
0.45,-0.72,0.11
0.49,-0.74,0.13
0.53,-0.77,0.15
0.57,-0.81,0.15
0.58,-0.86,0.15
0.57,-0.91,0.16
0.54,-0.91,0.19
0.51,-0.93,0.24
0.51,-1.01,0.28
0.56,-1.09,0.3
0.67,-1.1,0.35
0.69,-1.13,0.36
0.67,-1.18,0.36
0.67,-1.2,0.4
0.56,-1.22,0.5
0.57,-1.21,0.57
0.75,-1.16,0.56
0.7,-1.25,0.54
0.55,-1.4,0.58
0.61,-1.41,0.6
0.69,-1.38,0.61
0.68,-1.38,0.71
0.69,-1.42,0.76
0.7,-1.49,0.76
0.65,-1.51,0.77
0.58,-1.49,0.78
0.56,-1.48,0.78
0.56,-1.46,0.82
0.58,-1.43,0.95
0.56,-1.45,1
0.54,-1.5,0.91
0.58,-1.51,0.88
0.58,-1.49,0.88
0.59,-1.47,0.88
0.63,-1.5,0.85
0.65,-1.55,0.93
0.59,-1.59,0.9
0.54,-1.54,0.89
0.51,-1.46,0.9
0.49,-1.43,0.9
0.49,-1.44,0.89
0.5,-1.41,0.89
0.5,-1.34,0.87
0.5,-1.31,0.85
0.5,-1.3,0.82
0.55,-1.26,0.76
0.54,-1.2,0.71
0.53,-1.14,0.71
0.55,-1.06,0.74
0.51,-0.99,0.78
0.45,-0.92,0.79
0.37,-0.88,0.75
0.3,-0.85,0.65
0.29,-0.83,0.59
0.29,-0.76,0.51
0.33,-0.64,0.38
0.33,-0.56,0.34
0.35,-0.45,0.39
0.46,-0.37,0.4
0.41,-0.35,0.39
0.26,-0.3,0.39
0.22,-0.25,0.19
0.15,-0.18,0.12
0.16,-0.12,0.11
0.17,-0.04,0.08
0.18,0.01,0.06
0.21,0.07,0.06
0.23,0.13,0.05
0.23,0.11,0.04
0.19,0.1,0.06
0.14,0.13,0.04
0.13,0.13,0.02
0.11,0.15,0.04
0.11,0.21,0.08
0.1,0.27,0.12
0.08,0.3,0.14
0.09,0.3,0.19
0.1,0.26,0.26
0.1,0.23,0.32
0.11,0.2,0.36
0.08,0.18,0.39
0.05,0.2,0.43
0.05,0.25,0.49
0.04,0.26,0.52
0.04,0.26,0.53
0.07,0.25,0.54
0.08,0.2,0.55
0.07,0.15,0.61
0.13,0.14,0.61
0.15,0.16,0.58
0.16,0.18,0.55
0.17,0.16,0.5
0.18,0.12,0.44
0.16,0.08,0.42
0.16,0.05,0.43
0.19,0.02,0.42
0.2,-0.05,0.39
0.18,-0.11,0.37
0.16,-0.14,0.34
0.16,-0.16,0.28
0.14,-0.18,0.22
0.13,-0.19,0.21
0.17,-0.22,0.26
0.26,-0.3,0.34
0.36,-0.42,0.4
0.44,-0.53,0.4
0.44,-0.57,0.34
0.38,-0.54,0.22
0.31,-0.49,0.13
0.25,-0.56,0.07
0.28,-0.79,0.26
0.45,-0.87,0.61
0.69,-0.83,0.72
0.82,-0.9,0.6
0.6,-0.9,0.26
0.56,-0.92,0.18
0.57,-1.03,0.3
0.63,-1.15,0.59
0.79,-1.16,0.79
0.91,-1.19,0.78
0.98,-1.33,0.69
1.04,-1.45,0.61
1.03,-1.48,0.53
0.94,-1.46,0.52
0.91,-1.44,0.64
0.94,-1.37,0.79
0.97,-1.25,0.86
1.01,-1.25,0.81
1.06,-1.43,0.71
1.06,-1.6,0.63
0.99,-1.62,0.6
0.88,-1.58,0.64
0.81,-1.5,0.79
0.83,-1.41,0.9
0.88,-1.38,0.86
0.89,-1.45,0.8
0.89,-1.57,0.74
0.89,-1.67,0.67
0.83,-1.62,0.63
0.72,-1.47,0.66
0.67,-1.33,0.79
0.76,-1.21,0.74
0.7,-1.09,0.66
0.72,-1.11,0.56
0.72,-1.16,0.48
0.68,-1.2,0.45
0.7,-1.27,0.44
0.76,-1.25,0.53
0.9,-1.28,0.45
0.71,-1.37,0.4
0.34,-1.38,0.49
0.36,-1.31,0.4
0.44,-1.16,0.31
0.35,-1.08,0.31
0.2,-1.03,0.3
0.11,-0.98,0.29
0.13,-0.94,0.29
0.17,-0.86,0.3
0.19,-0.8,0.31
0.17,-0.75,0.33
0.13,-0.71,0.34
0.15,-0.69,0.32
0.18,-0.67,0.28
0.17,-0.68,0.23
0.17,-0.69,0.21
0.21,-0.68,0.2
0.27,-0.72,0.17
0.37,-0.74,0.16
0.4,-0.76,0.14
0.43,-0.77,0.12
0.46,-0.79,0.1
0.5,-0.8,0.09
0.54,-0.82,0.08
0.56,-0.84,0.08
0.58,-0.85,0.08
0.61,-0.85,0.08
0.63,-0.86,0.09
0.62,-0.87,0.12
0.55,-0.91,0.15
0.49,-0.95,0.17
0.52,-0.96,0.19
0.56,-0.96,0.23
0.57,-0.99,0.27
0.56,-1.06,0.33
0.59,-1.09,0.39
0.68,-1.12,0.39
0.7,-1.14,0.39
0.6,-1.18,0.47
0.56,-1.25,0.56
0.58,-1.29,0.56
0.57,-1.29,0.57
0.54,-1.38,0.59
0.6,-1.47,0.66
0.67,-1.4,0.72
0.65,-1.4,0.75
0.68,-1.42,0.73
0.65,-1.44,0.72
0.65,-1.38,0.77
0.62,-1.37,0.82
0.56,-1.41,0.84
0.58,-1.45,0.85
0.61,-1.53,0.85
0.63,-1.6,0.81
0.65,-1.61,0.77
0.62,-1.62,0.77
0.63,-1.61,0.82
0.6,-1.55,0.9
0.56,-1.52,0.88
0.62,-1.52,0.86
0.6,-1.55,0.9
0.59,-1.56,0.88
0.59,-1.56,0.82
0.56,-1.55,0.81
0.53,-1.49,0.77
0.51,-1.43,0.73
0.52,-1.38,0.72
0.51,-1.36,0.73
0.5,-1.31,0.72
0.5,-1.26,0.64
0.44,-1.16,0.62
0.46,-1.13,0.57
0.49,-1.11,0.55
0.51,-1.02,0.54
0.54,-0.87,0.52
0.52,-0.73,0.45
0.47,-0.61,0.38
0.4,-0.54,0.36
0.33,-0.57,0.35
0.25,-0.59,0.33
0.18,-0.54,0.29
0.2,-0.47,0.25
0.23,-0.4,0.23
0.27,-0.29,0.21
0.29,-0.16,0.18
0.29,-0.09,0.15
0.3,-0.07,0.18
0.28,-0.04,0.18
0.26,0.01,0.14
0.21,0.02,0.11
0.19,0.05,0.09
0.19,0.09,0.09
0.17,0.14,0.1
0.19,0.19,0.09
0.23,0.21,0.1
0.22,0.18,0.17
0.22,0.21,0.23
0.22,0.26,0.27
0.19,0.32,0.27
0.17,0.35,0.28
0.16,0.33,0.3
0.16,0.28,0.32
0.15,0.23,0.36
0.15,0.21,0.41
0.17,0.21,0.47
0.19,0.25,0.54
0.18,0.3,0.62
0.18,0.3,0.66
0.16,0.26,0.67
0.12,0.24,0.68
0.09,0.24,0.66
0.08,0.23,0.64
0.07,0.21,0.63
0.07,0.19,0.63
0.08,0.19,0.6
0.07,0.19,0.57
0.06,0.18,0.55
0.07,0.16,0.55
0.1,0.14,0.53
0.13,0.12,0.48
0.14,0.09,0.41
0.13,0.05,0.38
0.16,0.03,0.39
0.19,0,0.36
0.21,-0.04,0.34
0.22,-0.08,0.31
0.24,-0.15,0.28
0.24,-0.26,0.27
0.23,-0.34,0.32
0.26,-0.35,0.39
0.3,-0.31,0.42
0.33,-0.29,0.39
0.35,-0.29,0.35
0.37,-0.37,0.29
0.39,-0.53,0.26
0.37,-0.69,0.33
0.38,-0.81,0.47
0.38,-0.81,0.58
0.4,-0.77,0.59
0.45,-0.76,0.52
0.45,-0.67,0.45
0.44,-0.63,0.37
0.46,-0.8,0.36
0.58,-1.07,0.49
0.75,-1.27,0.61
0.82,-1.35,0.66
0.74,-1.3,0.67
0.62,-1.16,0.69
0.59,-1.18,0.52
0.48,-1.29,0.46
0.54,-1.43,0.59
0.74,-1.54,0.82
0.9,-1.54,0.89
0.94,-1.45,0.85
0.9,-1.36,0.79
0.84,-1.32,0.72
0.73,-1.35,0.64
0.63,-1.41,0.65
0.59,-1.48,0.79
0.66,-1.52,0.87
0.75,-1.55,0.86
0.83,-1.58,0.88
0.87,-1.53,0.9
0.85,-1.46,0.86
0.76,-1.37,0.8
0.66,-1.32,0.75
0.58,-1.32,0.76
0.55,-1.37,0.83
0.58,-1.4,0.84
0.67,-1.41,0.81
0.77,-1.43,0.79
0.77,-1.44,0.75
0.73,-1.43,0.71
0.67,-1.4,0.67
0.58,-1.3,0.77
0.83,-1.26,0.68
0.72,-1.3,0.51
0.33,-1.29,0.69
0.21,-1.23,0.76
0.32,-1.14,0.68
0.29,-1.04,0.6
0.18,-0.98,0.54
0.07,-0.95,0.45
0.04,-0.89,0.38
0.03,-0.82,0.37
-0.01,-0.78,0.37
0.02,-0.75,0.37
0.12,-0.71,0.35
0.19,-0.68,0.33
0.2,-0.67,0.3
0.21,-0.67,0.28
0.27,-0.68,0.23
0.34,-0.68,0.18
0.39,-0.69,0.16
0.39,-0.71,0.14
0.36,-0.73,0.13
0.36,-0.74,0.13
0.4,-0.76,0.12
0.42,-0.78,0.1
0.42,-0.81,0.08
0.43,-0.82,0.08
0.48,-0.87,0.08
0.48,-0.9,0.1
0.48,-0.91,0.12
0.5,-0.91,0.13
0.49,-0.94,0.15
0.48,-0.97,0.16
0.51,-0.98,0.19
0.52,-1.01,0.26
0.44,-1.06,0.34
0.36,-1.09,0.41
0.38,-1.11,0.43
0.44,-1.1,0.46
0.44,-1.11,0.51
0.45,-1.12,0.63
0.53,-1.13,0.69
0.51,-1.22,0.68
0.41,-1.33,0.73
0.44,-1.37,0.78
0.51,-1.37,0.77
0.44,-1.35,0.79
0.39,-1.31,0.84
0.46,-1.32,0.82
0.54,-1.33,0.83
0.59,-1.31,0.85
0.65,-1.34,0.86
0.71,-1.4,0.88
0.64,-1.48,0.91
0.6,-1.53,0.93
0.59,-1.54,0.96
0.55,-1.49,0.96
0.54,-1.49,0.96
0.54,-1.54,0.96
0.52,-1.54,1
0.47,-1.55,1.03
0.43,-1.54,1
0.42,-1.52,0.97
0.41,-1.51,0.97
0.41,-1.47,0.93
0.41,-1.46,0.92
0.43,-1.49,0.91
0.41,-1.49,0.88
0.39,-1.44,0.86
0.4,-1.39,0.8
0.39,-1.37,0.74
0.38,-1.33,0.68
0.35,-1.28,0.63
0.35,-1.22,0.62
0.38,-1.18,0.61
0.42,-1.14,0.58
0.47,-1.06,0.51
0.51,-0.97,0.43
0.51,-0.87,0.35
0.44,-0.74,0.37
0.41,-0.67,0.36
0.4,-0.56,0.32
0.36,-0.47,0.27
0.29,-0.44,0.26
0.25,-0.4,0.26
0.26,-0.32,0.24
0.25,-0.22,0.2
0.27,-0.13,0.15
0.31,-0.05,0.13
0.31,-0.01,0.12
0.3,-0.04,0.11
0.28,-0.06,0.11
0.24,-0.04,0.07
0.19,0.06,0.03
0.14,0.12,0.01
0.13,0.16,0.01
0.17,0.2,0.01
0.18,0.19,0.03
0.17,0.2,0.07
0.18,0.23,0.13
0.18,0.27,0.19
0.17,0.27,0.23
0.16,0.26,0.27
0.14,0.24,0.3
0.12,0.25,0.34
0.09,0.21,0.38
0.09,0.21,0.46
0.11,0.22,0.52
0.11,0.21,0.55
0.1,0.21,0.57
0.1,0.2,0.56
0.12,0.19,0.54
0.12,0.17,0.53
0.13,0.16,0.52
0.15,0.15,0.49
0.17,0.12,0.46
0.18,0.09,0.44
0.16,0.06,0.43
0.17,0.04,0.42
0.19,0.03,0.42
0.19,0,0.42
0.2,-0.03,0.42
0.21,-0.04,0.4
0.22,-0.07,0.35
0.23,-0.12,0.29
0.24,-0.2,0.26
0.25,-0.27,0.34
0.32,-0.27,0.46
0.41,-0.24,0.49
0.44,-0.26,0.45
0.43,-0.3,0.36
0.44,-0.48,0.15
0.35,-0.65,0.18
0.39,-0.81,0.39
0.54,-0.77,0.57
0.64,-0.71,0.54
0.62,-0.78,0.41
0.52,-0.77,0.33
0.5,-0.76,0.21
0.49,-0.9,0.11
0.48,-1.07,0.3
0.62,-1.15,0.62
0.86,-1.15,0.78
0.96,-1.14,0.73
0.9,-1.13,0.55
0.81,-1.08,0.4
0.71,-1.07,0.33
0.64,-1.2,0.32
0.62,-1.35,0.44
0.73,-1.48,0.66
0.94,-1.51,0.78
1.07,-1.44,0.71
1.11,-1.38,0.6
1.12,-1.35,0.53
1.06,-1.38,0.47
0.96,-1.44,0.48
0.87,-1.44,0.58
0.81,-1.35,0.68
0.81,-1.36,0.63
0.88,-1.44,0.61
0.97,-1.55,0.6
1.02,-1.58,0.58
1.01,-1.51,0.57
0.98,-1.4,0.6
0.97,-1.31,0.61
0.95,-1.26,0.63
0.92,-1.21,0.63
0.89,-1.2,0.58
0.85,-1.24,0.53
0.84,-1.32,0.5
0.83,-1.37,0.49
0.85,-1.37,0.5
0.94,-1.32,0.55
1,-1.35,0.52
0.82,-1.42,0.51
0.56,-1.43,0.5
0.49,-1.41,0.38
0.44,-1.33,0.3
0.29,-1.27,0.27
0.13,-1.26,0.27
0.05,-1.22,0.3
0.1,-1.12,0.33
0.21,-1.03,0.33
0.26,-0.88,0.27
0.24,-0.83,0.32
0.23,-0.77,0.29
0.27,-0.7,0.22
0.24,-0.66,0.22
0.24,-0.63,0.19
0.27,-0.61,0.17
0.25,-0.61,0.14
0.23,-0.62,0.13
0.24,-0.61,0.13
0.25,-0.62,0.13
0.28,-0.65,0.14
0.33,-0.67,0.13
0.37,-0.69,0.13
0.42,-0.71,0.14
0.48,-0.73,0.14
0.52,-0.76,0.14
0.56,-0.79,0.13
0.59,-0.84,0.12
0.58,-0.9,0.15
0.51,-0.92,0.18
0.51,-0.91,0.21
0.56,-0.92,0.23
0.58,-0.94,0.26
0.59,-0.97,0.29
0.63,-1.03,0.28
0.66,-1.1,0.38
0.6,-1.18,0.44
0.48,-1.21,0.46
0.46,-1.2,0.46
0.51,-1.18,0.46
0.44,-1.17,0.47
0.48,-1.19,0.49
0.61,-1.25,0.53
0.67,-1.32,0.55
0.7,-1.32,0.59
0.63,-1.29,0.62
0.49,-1.31,0.68
0.41,-1.31,0.78
0.41,-1.33,0.83
0.44,-1.35,0.81
0.47,-1.32,0.81
0.52,-1.31,0.83
0.59,-1.35,0.85
0.64,-1.39,0.86
0.66,-1.39,0.88
0.62,-1.4,0.87
0.55,-1.41,0.9
0.49,-1.47,0.93
0.46,-1.49,1.01
0.47,-1.46,1.04
0.49,-1.48,0.98
0.5,-1.5,0.86
0.48,-1.44,0.8
0.49,-1.37,0.82
0.58,-1.41,0.8
0.59,-1.39,0.81
0.54,-1.31,0.81
0.55,-1.29,0.76
0.56,-1.27,0.75
0.53,-1.26,0.75
0.56,-1.22,0.74
0.57,-1.15,0.71
0.56,-1.09,0.68
0.54,-1.03,0.64
0.51,-0.97,0.59
0.45,-0.92,0.59
0.4,-0.88,0.63
0.37,-0.82,0.65
0.37,-0.73,0.61
0.33,-0.67,0.58
0.29,-0.64,0.56
0.3,-0.58,0.51
0.31,-0.54,0.44
0.28,-0.47,0.41
0.28,-0.4,0.4
0.28,-0.35,0.38
0.31,-0.25,0.33
0.32,-0.17,0.24
0.26,-0.17,0.19
0.22,-0.11,0.14
0.21,-0.05,0.13
0.2,0.01,0.11
0.21,0.08,0.05
0.21,0.14,0.03
0.23,0.18,-0.02
0.24,0.17,-0.05
0.25,0.14,-0.06
0.25,0.13,-0.01
0.26,0.17,0.01
0.28,0.21,-0.02
0.29,0.25,-0.01
0.27,0.28,0.05
0.28,0.3,0.12
0.31,0.29,0.21
0.32,0.25,0.3
0.31,0.22,0.36
0.29,0.21,0.4
0.28,0.23,0.43
0.3,0.24,0.47
0.3,0.21,0.49
0.26,0.16,0.52
0.23,0.13,0.57
0.21,0.13,0.6
0.18,0.14,0.6
0.14,0.14,0.61
0.16,0.14,0.58
0.17,0.14,0.53
0.16,0.12,0.5
0.17,0.1,0.48
0.21,0.06,0.45
0.23,-0.01,0.4
0.23,-0.09,0.36
0.22,-0.14,0.33
0.21,-0.16,0.3
0.2,-0.15,0.24
0.19,-0.16,0.21
0.21,-0.19,0.27
0.28,-0.22,0.35
0.38,-0.29,0.36
0.43,-0.42,0.3
0.4,-0.52,0.23
0.36,-0.55,0.2
0.36,-0.57,0.23
0.36,-0.57,0.32
0.4,-0.54,0.43
0.5,-0.54,0.48
0.61,-0.64,0.48
0.68,-0.8,0.46
0.67,-0.9,0.45
0.63,-0.97,0.42
0.54,-1.03,0.47
0.54,-1.02,0.61
0.61,-0.98,0.71
0.71,-0.99,0.71
0.82,-1.06,0.62
0.92,-1.16,0.49
0.93,-1.27,0.4
0.88,-1.37,0.39
0.88,-1.47,0.57
0.99,-1.46,0.78
1.07,-1.3,0.85
1.07,-1.11,0.84
1.08,-1.02,0.83
1.08,-1.05,0.8
0.99,-1.16,0.74
0.87,-1.31,0.69
0.79,-1.4,0.65
0.74,-1.42,0.64
0.75,-1.4,0.67
0.82,-1.34,0.75
0.94,-1.27,0.77
1.02,-1.21,0.72
1.05,-1.16,0.69
1.07,-1.16,0.66
1.03,-1.25,0.6
0.94,-1.33,0.55
0.81,-1.33,0.53
0.62,-1.31,0.52
0.58,-1.29,0.49
0.56,-1.24,0.45
0.6,-1.18,0.44
0.69,-1.12,0.4
0.74,-1.14,0.33
0.72,-1.19,0.29
0.69,-1.16,0.34
0.73,-1.11,0.41
0.81,-1.15,0.38
0.66,-1.27,0.37
0.29,-1.3,0.49
0.2,-1.28,0.55
0.33,-1.22,0.47
0.38,-1.2,0.39
0.35,-1.17,0.38
0.24,-1.13,0.39
0.14,-1.07,0.43
0.06,-1.02,0.47
0.07,-0.95,0.49
0.14,-0.87,0.47
0.18,-0.8,0.42
0.18,-0.73,0.4
0.12,-0.68,0.39
0.1,-0.65,0.36
0.19,-0.63,0.3
0.17,-0.62,0.28
0.19,-0.63,0.26
0.22,-0.64,0.25
0.27,-0.65,0.24
0.32,-0.68,0.24
0.34,-0.7,0.23
0.38,-0.74,0.22
0.41,-0.77,0.21
0.46,-0.79,0.19
0.49,-0.81,0.19
0.5,-0.84,0.2
0.51,-0.88,0.2
0.54,-0.91,0.19
0.58,-0.94,0.2
0.61,-0.94,0.25
0.63,-0.92,0.32
0.65,-0.94,0.35
0.64,-1.01,0.39
0.59,-1.06,0.43
0.61,-1.08,0.45
0.58,-1.13,0.47
0.46,-1.15,0.54
0.46,-1.13,0.64
0.56,-1.15,0.7
0.63,-1.14,0.7
0.6,-1.09,0.74
0.47,-1.33,0.8
0.54,-1.23,0.88
0.54,-1.19,0.92
0.46,-1.29,0.96
0.4,-1.34,1.02
0.38,-1.36,1.08
0.38,-1.4,1.06
0.36,-1.42,1.03
0.32,-1.43,1.06
0.32,-1.43,1.09
0.32,-1.43,1.1
0.32,-1.46,1.09
0.33,-1.49,1.06
0.34,-1.51,1.03
0.36,-1.53,1.01
0.38,-1.56,0.98
0.4,-1.58,0.94
0.42,-1.56,0.92
0.4,-1.5,0.91
0.38,-1.45,0.89
0.39,-1.45,0.88
0.36,-1.45,0.83
0.34,-1.45,0.82
0.34,-1.45,0.81
0.37,-1.41,0.77
0.38,-1.35,0.68
0.36,-1.22,0.64
0.36,-1.16,0.63
0.38,-1.11,0.63
0.41,-1.06,0.65
0.43,-0.99,0.65
0.44,-0.91,0.59
0.45,-0.84,0.52
0.42,-0.8,0.49
0.39,-0.77,0.49
0.35,-0.71,0.46
0.34,-0.62,0.41
0.34,-0.53,0.37
0.36,-0.44,0.35
0.39,-0.37,0.33
0.35,-0.3,0.32
0.32,-0.24,0.29
0.33,-0.22,0.22
0.32,-0.15,0.24
0.29,-0.1,0.23
0.27,-0.09,0.2
0.29,-0.06,0.24
0.29,-0.03,0.23
0.27,0.01,0.17
0.26,0.07,0.15
0.24,0.11,0.17
0.22,0.13,0.19
0.21,0.14,0.21
0.23,0.18,0.21
0.22,0.22,0.21
0.23,0.25,0.23
0.24,0.25,0.27
0.23,0.25,0.31
0.22,0.24,0.33
0.19,0.23,0.34
0.17,0.23,0.35
0.15,0.24,0.36
0.11,0.25,0.42
0.11,0.28,0.48
0.14,0.29,0.51
0.15,0.27,0.52
0.14,0.24,0.51
0.12,0.21,0.5
0.12,0.19,0.48
0.11,0.15,0.47
0.1,0.11,0.48
0.11,0.08,0.48
0.12,0.07,0.46
0.12,0.08,0.44
0.14,0.08,0.41
0.17,0.06,0.38
0.19,0.02,0.37
0.22,-0.02,0.36
0.25,-0.12,0.35
0.28,-0.15,0.36
0.31,-0.14,0.36
0.33,-0.16,0.35
0.33,-0.19,0.38
0.33,-0.24,0.41
0.35,-0.31,0.4
0.36,-0.42,0.39
0.39,-0.51,0.46
0.44,-0.5,0.53
0.46,-0.45,0.5
0.46,-0.44,0.41
0.43,-0.47,0.33
0.4,-0.59,0.32
0.37,-0.77,0.49
0.44,-0.9,0.73
0.57,-0.91,0.79
0.61,-0.81,0.67
0.56,-0.69,0.56
0.51,-0.66,0.48
0.49,-0.75,0.39
0.47,-0.9,0.37
0.43,-1.05,0.56
0.53,-1.14,0.8
0.73,-1.11,0.82
0.83,-1.07,0.69
0.85,-1.1,0.52
0.76,-1.17,0.47
0.69,-1.28,0.46
0.63,-1.34,0.53
0.64,-1.4,0.65
0.78,-1.49,0.79
0.94,-1.52,0.85
1.04,-1.47,0.83
1.06,-1.42,0.77
1,-1.43,0.7
0.89,-1.44,0.7
0.76,-1.41,0.73
0.69,-1.36,0.78
0.64,-1.34,0.81
0.65,-1.32,0.82
0.69,-1.3,0.81
0.74,-1.27,0.8
0.79,-1.23,0.78
0.82,-1.17,0.75
0.81,-1.14,0.72
0.75,-1.16,0.69
0.68,-1.21,0.66
0.62,-1.23,0.64
0.57,-1.23,0.6
0.5,-1.23,0.59
0.46,-1.22,0.58
0.44,-1.22,0.7
0.77,-1.15,0.7
0.74,-1.21,0.55
0.39,-1.24,0.64
0.22,-1.24,0.73
0.28,-1.22,0.68
0.28,-1.2,0.6
0.15,-1.18,0.55
0.01,-1.13,0.52
-0.06,-1.07,0.49
-0.08,-1.01,0.47
-0.06,-0.93,0.47
-0.03,-0.87,0.47
0,-0.84,0.45
0.02,-0.79,0.42
0.03,-0.75,0.38
0.05,-0.73,0.32
0.09,-0.72,0.3
0.13,-0.71,0.31
0.14,-0.73,0.31
0.19,-0.75,0.31
0.21,-0.79,0.34
0.23,-0.85,0.36
0.28,-0.89,0.37
0.32,-0.91,0.4
0.33,-0.98,0.45
0.3,-1.03,0.56
0.33,-1.16,0.54
0.25,-1.21,0.56
0.14,-1.2,0.63
0.16,-1.22,0.71
0.28,-1.26,0.72
0.3,-1.29,0.71
0.31,-1.18,0.77
0.38,-1.15,0.81
0.43,-1.21,0.83
0.4,-1.25,0.83
0.39,-1.27,0.83
0.42,-1.26,0.85
0.41,-1.29,0.9
0.41,-1.32,0.96
0.41,-1.37,0.98
0.39,-1.41,0.97
0.39,-1.39,1
0.4,-1.39,1.02
0.43,-1.4,0.95
0.44,-1.41,0.95
0.43,-1.42,1.03
0.4,-1.45,1.06
0.37,-1.53,1
0.34,-1.52,0.97
0.29,-1.47,0.97
0.28,-1.46,0.95
0.25,-1.43,0.96
0.26,-1.43,0.92
0.31,-1.45,0.88
0.3,-1.41,0.87
0.28,-1.35,0.84
0.29,-1.35,0.8
0.28,-1.31,0.8
0.31,-1.25,0.77
0.33,-1.21,0.71
0.35,-1.17,0.68
0.38,-1.13,0.69
0.43,-1.07,0.68
0.47,-1,0.64
0.44,-0.97,0.62
0.45,-0.93,0.58
0.46,-0.83,0.5
0.42,-0.76,0.43
0.38,-0.71,0.41
0.4,-0.67,0.38
0.4,-0.64,0.35
0.36,-0.57,0.37
0.4,-0.41,0.41
0.41,-0.33,0.37
0.35,-0.31,0.3
0.35,-0.22,0.31
0.35,-0.16,0.24
0.26,-0.13,0.1
0.29,-0.04,0.11
0.26,0.02,0.12
0.2,0.04,0.1
0.19,0.07,0.05
0.19,0.09,0.03
0.22,0.14,0.06
0.29,0.2,0.09
0.34,0.25,0.06
0.33,0.24,0.04
0.34,0.23,0.05
0.31,0.22,0.09
0.28,0.19,0.14
0.3,0.2,0.18
0.3,0.23,0.21
0.28,0.23,0.27
0.28,0.21,0.36
0.32,0.2,0.44
0.33,0.19,0.46
0.31,0.19,0.46
0.29,0.19,0.46
0.27,0.17,0.47
0.24,0.14,0.49
0.23,0.13,0.53
0.24,0.14,0.56
0.25,0.14,0.56
0.26,0.11,0.5
0.27,0.09,0.48
0.27,0.06,0.48
0.31,0.02,0.46
0.32,-0.03,0.43
0.3,-0.05,0.42
0.29,-0.05,0.39
0.27,-0.07,0.36
0.23,-0.1,0.35
0.22,-0.14,0.35
0.23,-0.19,0.36
0.24,-0.23,0.35
0.27,-0.29,0.32
0.28,-0.36,0.28
0.26,-0.4,0.27
0.22,-0.39,0.31
0.23,-0.44,0.37
0.27,-0.51,0.42
0.32,-0.53,0.46
0.37,-0.55,0.48
0.4,-0.57,0.45
0.4,-0.65,0.36
0.37,-0.76,0.29
0.33,-0.89,0.34
0.35,-0.98,0.51
0.43,-0.98,0.62
0.51,-0.95,0.56
0.58,-1,0.52
0.56,-1.09,0.46
0.52,-1.2,0.41
0.49,-1.32,0.42
0.47,-1.43,0.49
0.54,-1.53,0.68
0.69,-1.54,0.83
0.79,-1.49,0.8
0.78,-1.42,0.73
0.72,-1.39,0.71
0.65,-1.48,0.68
0.54,-1.59,0.64
0.4,-1.67,0.69
0.31,-1.73,0.87
0.34,-1.72,1.06
0.44,-1.63,1.12
0.5,-1.48,1.11
0.54,-1.36,1.08
0.54,-1.32,1.05
0.47,-1.31,1.02
0.38,-1.3,1.02
0.31,-1.29,1.02
0.26,-1.28,1
0.26,-1.3,0.98
0.29,-1.3,0.97
0.34,-1.28,0.89
0.39,-1.22,0.85
0.38,-1.18,0.84
0.33,-1.18,0.85
0.27,-1.19,0.86
0.34,-1.09,0.94
0.49,-1.11,0.97
0.44,-1.21,0.98
0.29,-1.21,1.04
0.23,-1.2,1.02
0.11,-1.21,0.89
-0.06,-1.2,0.7
-0.19,-1.14,0.55
-0.25,-1.07,0.43
-0.24,-1.01,0.38
-0.22,-0.97,0.37
-0.14,-0.94,0.41
-0.09,-0.9,0.43
-0.09,-0.86,0.41
-0.07,-0.83,0.4
0.03,-0.8,0.38
0.13,-0.78,0.35
0.15,-0.77,0.33
0.18,-0.76,0.26
0.22,-0.77,0.2
0.25,-0.77,0.19
0.3,-0.79,0.18
0.33,-0.83,0.19
0.36,-0.84,0.2
0.36,-0.85,0.21
0.36,-0.87,0.22
0.36,-0.89,0.25
0.37,-0.92,0.27
0.38,-0.95,0.3
0.37,-0.95,0.34
0.36,-0.97,0.39
0.34,-1.01,0.45
0.32,-1.02,0.51
0.28,-1.04,0.55
0.24,-1.11,0.56
0.19,-1.16,0.6
0.14,-1.16,0.66
0.12,-1.12,0.7
0.07,-1.12,0.75
-0.02,-1.16,0.84
-0.1,-1.17,0.93
-0.12,-1.14,1
-0.12,-1.11,1.05
-0.13,-1.12,1.07
-0.13,-1.16,1.13
-0.13,-1.23,1.2
-0.14,-1.29,1.25
-0.14,-1.34,1.22
-0.18,-1.4,1.21
-0.21,-1.43,1.21
-0.22,-1.48,1.2
-0.19,-1.55,1.17
-0.15,-1.61,1.14
-0.09,-1.62,1.11
-0.03,-1.61,1.11
0,-1.63,1.15
0.01,-1.62,1.18
0.03,-1.61,1.13
0.04,-1.61,1.06
0.02,-1.6,1.01
0.01,-1.57,0.99
0.04,-1.53,0.97
0.08,-1.5,0.93
0.11,-1.5,0.91
0.15,-1.48,0.89
0.18,-1.44,0.86
0.2,-1.39,0.83
0.21,-1.33,0.8
0.24,-1.27,0.72
0.25,-1.2,0.65
0.22,-1.14,0.64
0.16,-1.1,0.64
0.14,-1.03,0.6
0.12,-0.97,0.49
0.14,-0.82,0.43
0.17,-0.7,0.38
0.24,-0.52,0.38
0.34,-0.41,0.39
0.35,-0.42,0.36
0.3,-0.38,0.25
0.26,-0.33,0.14
0.2,-0.27,0.16
0.15,-0.16,0.18
0.18,-0.15,0.09
0.2,-0.16,0.03
0.2,-0.05,0.05
0.27,0.05,0.04
0.32,0.1,-0.01
0.31,0.11,-0.01
0.31,0.16,0.01
0.33,0.21,-0.02
0.3,0.18,-0.01
0.26,0.21,0.02
0.24,0.24,0.03
0.21,0.25,0.06
0.17,0.28,0.09
0.15,0.28,0.14
0.18,0.28,0.2
0.22,0.29,0.28
0.22,0.3,0.36
0.17,0.23,0.43
0.01,0.2,0.46
-0.03,0.19,0.52
-0.04,0.19,0.59
-0.02,0.19,0.67
0.02,0.2,0.71
0.05,0.21,0.71
0.05,0.21,0.7
0.04,0.2,0.7
0.06,0.19,0.7
0.1,0.16,0.69
0.11,0.11,0.69
0.12,0.09,0.7
0.15,0.1,0.69
0.17,0.1,0.66
0.19,0.07,0.62
0.19,0.05,0.56
0.19,0.03,0.51
0.17,0,0.49
0.17,-0.02,0.51
0.2,-0.05,0.53
0.23,-0.09,0.51
0.23,-0.12,0.46
0.24,-0.15,0.39
0.25,-0.17,0.32
0.24,-0.19,0.3
0.25,-0.28,0.43
0.44,-0.35,0.43
0.45,-0.46,0.39
0.41,-0.54,0.35
0.35,-0.59,0.34
0.31,-0.65,0.32
0.28,-0.72,0.33
0.25,-0.79,0.43
0.31,-0.84,0.52
0.41,-0.91,0.56
0.47,-0.98,0.59
0.5,-0.98,0.56
0.43,-0.96,0.55
0.35,-0.99,0.52
0.33,-1.09,0.53
0.34,-1.2,0.7
0.41,-1.24,0.84
0.49,-1.24,0.87
0.5,-1.25,0.79
0.45,-1.27,0.69
0.43,-1.33,0.62
0.41,-1.38,0.58
0.43,-1.39,0.63
0.53,-1.44,0.78
0.7,-1.47,0.95
0.88,-1.48,0.97
0.94,-1.49,0.85
0.78,-1.41,0.86
0.7,-1.4,0.82
0.6,-1.43,0.78
0.51,-1.46,0.84
0.5,-1.47,0.96
0.57,-1.48,1.06
0.69,-1.47,1.08
0.78,-1.39,1.06
0.78,-1.3,1
0.71,-1.26,0.95
0.64,-1.25,0.93
0.56,-1.24,0.91
0.47,-1.21,0.87
0.38,-1.21,0.85
0.33,-1.28,0.8
0.33,-1.34,0.76
0.33,-1.3,0.77
0.47,-1.17,0.88
0.77,-1.13,0.97
0.66,-1.24,0.95
0.32,-1.28,1.01
0.24,-1.28,1.03
0.17,-1.28,0.9
0,-1.22,0.71
-0.17,-1.1,0.52
-0.26,-0.93,0.47
-0.18,-0.89,0.49
-0.14,-0.9,0.46
-0.17,-0.88,0.45
-0.13,-0.81,0.44
0.05,-0.74,0.44
0.13,-0.77,0.34
0.18,-0.79,0.28
0.28,-0.77,0.25
0.35,-0.78,0.19
0.34,-0.8,0.15
0.35,-0.81,0.15
0.4,-0.82,0.13
0.4,-0.82,0.12
0.4,-0.82,0.14
0.37,-0.82,0.13
0.36,-0.84,0.14
0.37,-0.84,0.14
0.38,-0.85,0.14
0.38,-0.85,0.14
0.38,-0.87,0.16
0.39,-0.88,0.19
0.39,-0.9,0.22
0.39,-0.92,0.26
0.39,-0.94,0.31
0.37,-0.98,0.36
0.36,-1.01,0.46
0.28,-0.98,0.46
0.23,-0.99,0.51
0.23,-1.02,0.58
0.21,-1.06,0.71
0.19,-1.07,0.8
0.15,-1.11,0.83
0.11,-1.13,0.91
0.04,-1.13,0.93
0.03,-1.14,0.94
0.03,-1.15,0.95
0.05,-1.2,1.01
0.1,-1.23,1.11
0.11,-1.25,1.15
0.13,-1.29,1.18
0.16,-1.34,1.17
0.15,-1.37,1.13
0.12,-1.38,1.11
0.11,-1.4,1.15
0.11,-1.4,1.23
0.16,-1.42,1.29
0.19,-1.47,1.26
0.19,-1.51,1.19
0.17,-1.54,1.13
0.16,-1.57,1.09
0.15,-1.58,1.11
0.19,-1.57,1.1
0.26,-1.54,1.06
0.28,-1.5,1.04
0.3,-1.47,0.98
0.32,-1.45,0.9
0.31,-1.43,0.83
0.31,-1.42,0.8
0.34,-1.39,0.78
0.37,-1.34,0.75
0.37,-1.27,0.72
0.35,-1.2,0.68
0.33,-1.15,0.65
0.34,-1.1,0.62
0.39,-1.03,0.58
0.4,-0.95,0.54
0.38,-0.87,0.54
0.34,-0.81,0.58
0.31,-0.76,0.6
0.27,-0.71,0.58
0.27,-0.65,0.55
0.29,-0.56,0.54
0.31,-0.45,0.48
0.34,-0.34,0.4
0.38,-0.29,0.32
0.42,-0.26,0.25
0.38,-0.24,0.13
0.36,-0.26,0.03
0.33,-0.02,0.16
0.3,0.03,0.11
0.26,0.01,0.12
0.22,0.05,0.09
0.18,0.1,0.03
0.14,0.15,0.01
0.15,0.19,-0.01
0.16,0.2,-0.02
0.18,0.19,-0.01
0.18,0.21,0.03
0.18,0.24,0.07
0.2,0.24,0.11
0.21,0.25,0.14
0.21,0.26,0.16
0.19,0.26,0.18
0.17,0.25,0.21
0.16,0.23,0.24
0.16,0.2,0.28
0.17,0.17,0.36
0.19,0.19,0.46
0.19,0.21,0.53
0.18,0.21,0.58
0.17,0.2,0.62
0.18,0.2,0.62
0.18,0.19,0.59
0.15,0.15,0.56
0.13,0.12,0.53
0.15,0.11,0.52
0.15,0.09,0.49
0.16,0.06,0.44
0.16,0.04,0.37
0.14,0.02,0.35
0.16,-0.03,0.36
0.21,-0.07,0.36
0.25,-0.11,0.35
0.26,-0.17,0.32
0.27,-0.24,0.31
0.31,-0.3,0.3
0.36,-0.32,0.26
0.4,-0.29,0.22
0.41,-0.29,0.26
0.46,-0.34,0.34
0.53,-0.42,0.36
0.53,-0.52,0.31
0.47,-0.59,0.25
0.43,-0.66,0.22
0.4,-0.79,0.26
0.4,-0.88,0.36
0.47,-0.91,0.47
0.58,-0.86,0.52
0.65,-0.85,0.51
0.66,-0.94,0.49
0.63,-1.12,0.51
0.59,-1.2,0.52
0.6,-1.27,0.63
0.65,-1.22,0.74
0.7,-1.14,0.78
0.7,-1.16,0.83
0.71,-1.27,0.86
0.71,-1.34,0.83
0.65,-1.37,0.77
0.62,-1.4,0.75
0.65,-1.42,0.8
0.67,-1.42,0.93
0.73,-1.32,1.04
0.8,-1.23,1.02
0.83,-1.27,0.95
0.79,-1.39,0.93
0.7,-1.48,0.93
0.61,-1.48,0.9
0.52,-1.43,0.89
0.45,-1.37,0.91
0.42,-1.35,0.9
0.41,-1.31,0.93
0.45,-1.22,0.99
0.53,-1.15,0.94
0.55,-1.14,0.85
0.52,-1.16,0.79
0.5,-1.18,0.72
0.45,-1.18,0.69
0.4,-1.15,0.66
0.33,-1.1,0.64
0.31,-1.09,0.62
0.3,-1.11,0.64
0.28,-1.03,0.77
0.39,-0.9,0.91
0.47,-0.95,0.97
0.23,-1.08,1.03
0.02,-1.14,1.06
0.07,-1.17,0.94
0.03,-1.2,0.76
-0.14,-1.16,0.61
-0.25,-1.06,0.54
-0.28,-0.99,0.53
-0.22,-0.99,0.55
-0.14,-0.99,0.55
-0.12,-0.97,0.51
-0.08,-0.93,0.45
-0.01,-0.92,0.39
0.07,-0.92,0.32
0.16,-0.94,0.26
0.23,-0.93,0.22
0.27,-0.92,0.21
0.3,-0.89,0.21
0.35,-0.89,0.21
0.41,-0.91,0.21
0.4,-0.92,0.25
0.38,-0.92,0.3
0.37,-0.91,0.33
0.35,-0.91,0.34
0.31,-0.92,0.36
0.28,-0.95,0.4
0.28,-1,0.44
0.28,-1.06,0.5
0.26,-1.1,0.56
0.26,-1.12,0.62
0.25,-1.11,0.64
0.23,-1.1,0.6
0.24,-1.08,0.61
0.22,-1.08,0.67
0.19,-1.07,0.77
0.2,-1.06,0.88
0.2,-1.09,0.92
0.17,-1.11,0.93
0.13,-1.16,0.92
0.09,-1.19,0.9
0.05,-1.18,0.94
0.03,-1.19,1.02
0.03,-1.21,1.11
0.05,-1.24,1.18
0.05,-1.28,1.22
-0.06,-1.39,1.16
-0.1,-1.43,1.15
-0.14,-1.46,1.23
-0.1,-1.48,1.29
-0.02,-1.47,1.25
0.03,-1.46,1.21
0.03,-1.47,1.16
0.03,-1.46,1.12
0.03,-1.47,1.07
0.03,-1.48,1.04
0.06,-1.49,1.03
0.1,-1.49,1.01
0.15,-1.47,0.94
0.18,-1.42,0.87
0.2,-1.4,0.81
0.23,-1.37,0.75
0.28,-1.31,0.71
0.3,-1.25,0.7
0.28,-1.2,0.7
0.26,-1.14,0.65
0.25,-1.05,0.6
0.25,-0.97,0.58
0.26,-0.91,0.57
0.29,-0.87,0.53
0.3,-0.8,0.45
0.29,-0.73,0.39
0.23,-0.61,0.3
0.27,-0.54,0.25
0.32,-0.43,0.29
0.32,-0.34,0.35
0.32,-0.24,0.37
0.32,-0.16,0.36
0.31,-0.11,0.29
0.29,-0.08,0.22
0.26,-0.09,0.18
0.25,-0.09,0.14
0.25,-0.04,0.14
0.24,0.03,0.14
0.26,0.1,0.12
0.3,0.15,0.13
0.31,0.16,0.15
0.28,0.15,0.16
0.24,0.17,0.16
0.18,0.2,0.18
0.16,0.23,0.21
0.16,0.26,0.24
0.16,0.26,0.28
0.17,0.26,0.32
0.19,0.25,0.36
0.18,0.25,0.41
0.16,0.26,0.46
0.14,0.27,0.49
0.12,0.23,0.56
0.13,0.2,0.63
0.16,0.19,0.68
0.15,0.2,0.7
0.13,0.21,0.71
0.11,0.2,0.72
0.11,0.19,0.74
0.12,0.18,0.76
0.15,0.18,0.77
0.18,0.17,0.77
0.2,0.17,0.76
0.19,0.16,0.73
0.17,0.14,0.7
0.16,0.12,0.67
0.18,0.11,0.63
0.19,0.09,0.58
0.19,0.08,0.51
0.21,0.06,0.47
0.23,0.04,0.44
0.24,0.02,0.41
0.23,-0.02,0.4
0.24,-0.04,0.39
0.26,-0.07,0.36
0.26,-0.1,0.33
0.25,-0.12,0.3
0.23,-0.17,0.27
0.23,-0.27,0.23
0.25,-0.32,0.24
0.28,-0.38,0.28
0.32,-0.45,0.29
0.33,-0.55,0.3
0.33,-0.64,0.27
0.33,-0.71,0.23
0.32,-0.76,0.27
0.35,-0.81,0.38
0.42,-0.84,0.47
0.52,-0.83,0.51
0.56,-0.86,0.49
0.54,-0.95,0.47
0.5,-1.03,0.44
0.43,-1.14,0.43
0.36,-1.26,0.51
0.39,-1.34,0.67
0.49,-1.32,0.78
0.57,-1.25,0.8
0.62,-1.22,0.8
0.65,-1.28,0.78
0.62,-1.38,0.75
0.56,-1.43,0.75
0.5,-1.44,0.81
0.5,-1.44,0.96
0.59,-1.4,1.07
0.68,-1.37,1.05
0.72,-1.48,1.05
0.66,-1.48,1.02
0.61,-1.42,1
0.55,-1.38,0.99
0.49,-1.39,0.97
0.51,-1.37,0.96
0.57,-1.34,0.94
0.63,-1.31,0.91
0.66,-1.29,0.87
0.66,-1.24,0.84
0.65,-1.19,0.83
0.59,-1.2,0.78
0.46,-1.26,0.74
0.29,-1.29,0.74
0.18,-1.24,0.76
0.19,-1.25,0.73
0.34,-1.22,0.81
0.68,-1.03,1.02
0.91,-0.96,1.28
0.59,-1.05,1.27
0.27,-1.05,1.31
0.25,-1.12,1.42
0.28,-1.21,1.12
0.04,-0.86,0.85
-0.25,-0.87,0.56
-0.3,-1.31,0.47
-0.12,-1.16,0.65
-0.18,-0.93,0.66
-0.15,-0.88,0.54
0.07,-0.93,0.36
0.29,-0.96,0.19
0.42,-0.93,0.1
0.45,-0.89,0.05
0.4,-0.87,0.04
0.36,-0.9,0.04
0.37,-0.93,0.04
0.39,-0.93,0.03
0.39,-0.92,0.04
0.37,-0.9,0.05
0.36,-0.9,0.07
0.36,-0.91,0.09
0.34,-0.91,0.11
0.34,-0.91,0.13
0.36,-0.9,0.13
0.37,-0.89,0.14
0.36,-0.89,0.2
0.35,-0.89,0.28
0.38,-0.91,0.33
0.42,-0.94,0.37
0.38,-0.98,0.44
0.32,-1.03,0.53
0.28,-1.1,0.63
0.23,-1.08,0.64
0.23,-1.07,0.72
0.28,-1.06,0.84
0.31,-1.06,0.87
0.36,-1.12,0.97
0.39,-1.18,1.02
0.31,-1.17,1.01
0.26,-1.14,1.04
0.23,-1.17,1.12
0.23,-1.21,1.2
0.2,-1.22,1.19
0.13,-1.26,1.17
0.08,-1.31,1.21
0.04,-1.37,1.22
0.06,-1.39,1.21
0.11,-1.37,1.19
0.12,-1.4,1.16
0.14,-1.45,1.15
0.17,-1.48,1.11
0.18,-1.49,1.07
0.18,-1.47,1.04
0.19,-1.46,1.05
0.21,-1.48,1.06
0.23,-1.48,1.07
0.26,-1.5,1.06
0.28,-1.52,0.98
0.26,-1.56,0.96
0.24,-1.52,0.93
0.23,-1.43,0.89
0.21,-1.29,0.86
0.24,-1.2,0.84
0.28,-1.19,0.82
0.33,-1.22,0.78
0.39,-1.21,0.7
0.41,-1.12,0.64
0.4,-1.03,0.6
0.4,-0.96,0.54
0.39,-0.89,0.47
0.38,-0.83,0.41
0.36,-0.77,0.36
0.35,-0.72,0.31
0.36,-0.63,0.25
0.37,-0.52,0.2
0.4,-0.39,0.19
0.42,-0.28,0.15
0.41,-0.2,0.08
0.41,-0.13,0.01
0.41,-0.09,-0.04
0.38,-0.07,-0.1
0.36,-0.05,-0.15
0.35,-0.02,-0.16
0.3,0.01,-0.17
0.26,0.2,-0.21
0.39,0.27,-0.15
0.38,0.26,-0.05
0.33,0.24,0.03
0.28,0.22,0.07
0.22,0.21,0.1
0.18,0.22,0.15
0.17,0.23,0.22
0.14,0.21,0.3
0.1,0.2,0.39
0.11,0.22,0.45
0.12,0.22,0.48
0.11,0.21,0.5
0.08,0.19,0.54
0.07,0.17,0.58
0.07,0.17,0.61
0.08,0.17,0.62
0.08,0.18,0.62
0.09,0.17,0.61
0.1,0.15,0.6
0.12,0.13,0.59
0.13,0.11,0.58
0.14,0.09,0.58
0.16,0.08,0.59
0.19,0.05,0.57
0.21,0.03,0.54
0.22,0.02,0.46
0.22,-0.02,0.4
0.21,-0.06,0.36
0.2,-0.08,0.32
0.23,-0.11,0.3
0.26,-0.16,0.28
0.27,-0.22,0.24
0.27,-0.27,0.21
0.27,-0.34,0.18
0.26,-0.4,0.16
0.26,-0.48,0.17
0.29,-0.57,0.2
0.36,-0.66,0.22
0.41,-0.7,0.22
0.46,-0.71,0.21
0.51,-0.79,0.23
0.56,-0.87,0.32
0.6,-0.89,0.46
0.66,-0.85,0.52
0.64,-0.83,0.48
0.59,-0.9,0.45
0.59,-1,0.51
0.62,-1.08,0.6
0.67,-1.14,0.65
0.72,-1.18,0.7
0.75,-1.16,0.76
0.75,-1.13,0.7
0.71,-1.34,0.67
0.71,-1.43,0.66
0.68,-1.51,0.68
0.68,-1.54,0.77
0.74,-1.48,0.85
0.82,-1.36,0.85
0.85,-1.26,0.81
0.85,-1.23,0.77
0.81,-1.28,0.71
0.77,-1.39,0.64
0.74,-1.5,0.64
0.74,-1.58,0.66
0.72,-1.61,0.68
0.68,-1.55,0.74
0.66,-1.41,0.8
0.69,-1.28,0.83
0.69,-1.23,0.82
0.65,-1.24,0.8
0.64,-1.28,0.77
0.66,-1.3,0.77
0.66,-1.29,0.81
0.66,-1.21,0.91
0.67,-1.13,0.99
0.64,-1.1,0.99
0.58,-1.01,1.12
0.72,-0.94,1.28
0.7,-1.29,1.23
0.44,-1.53,1.05
0.22,-1.6,0.8
0.03,-1.49,0.57
-0.16,-1.34,0.51
-0.27,-1.24,0.51
-0.27,-1.21,0.51
-0.17,-1.14,0.53
-0.12,-1.05,0.52
-0.08,-0.99,0.47
0.01,-0.94,0.39
0.09,-0.87,0.31
0.14,-0.81,0.26
0.21,-0.75,0.23
0.26,-0.72,0.19
0.32,-0.71,0.14
0.35,-0.71,0.11
0.32,-0.71,0.11
0.31,-0.72,0.1
0.34,-0.72,0.09
0.35,-0.71,0.09
0.35,-0.71,0.09
0.37,-0.74,0.1
0.38,-0.76,0.1
0.38,-0.79,0.1
0.38,-0.81,0.1
0.39,-0.85,0.12
0.41,-0.88,0.17
0.44,-0.91,0.25
0.46,-0.93,0.34
0.47,-0.96,0.39
0.45,-0.99,0.45
0.42,-1.02,0.51
0.37,-1.03,0.55
0.33,-1.04,0.59
0.28,-1.04,0.63
0.24,-1.05,0.71
0.2,-1.09,0.83
0.2,-1.11,0.92
0.23,-1.12,0.95
0.22,-1.11,0.99
0.21,-1.1,1.06
0.22,-1.13,1.1
0.23,-1.18,1.13
0.24,-1.22,1.15
0.23,-1.25,1.14
0.21,-1.27,1.12
0.24,-1.28,1.14
0.3,-1.3,1.17
0.34,-1.35,1.19
0.37,-1.41,1.19
0.37,-1.44,1.11
0.32,-1.45,1.12
0.31,-1.47,1.14
0.34,-1.49,1.14
0.35,-1.5,1.12
0.34,-1.5,1.11
0.33,-1.47,1.09
0.31,-1.43,1.02
0.29,-1.4,0.98
0.29,-1.38,0.96
0.33,-1.36,0.94
0.37,-1.34,0.93
0.42,-1.34,0.88
0.44,-1.35,0.79
0.43,-1.32,0.73
0.44,-1.27,0.67
0.45,-1.2,0.61
0.46,-1.15,0.56
0.47,-1.13,0.55
0.49,-1.08,0.52
0.52,-1,0.48
0.51,-0.9,0.45
0.49,-0.83,0.4
0.48,-0.76,0.34
0.47,-0.7,0.3
0.46,-0.61,0.29
0.45,-0.51,0.29
0.45,-0.33,0.31
0.44,-0.27,0.28
0.39,-0.24,0.24
0.32,-0.18,0.21
0.28,-0.1,0.19
0.27,-0.05,0.15
0.25,-0.04,0.13
0.25,-0.03,0.13
0.25,0.01,0.15
0.24,0.08,0.15
0.23,0.14,0.13
0.21,0.16,0.12
0.18,0.15,0.15
0.19,0.17,0.16
0.21,0.19,0.15
0.21,0.21,0.15
0.21,0.23,0.17
0.2,0.24,0.2
0.21,0.25,0.22
0.21,0.24,0.25
0.19,0.22,0.27
0.18,0.2,0.28
0.17,0.16,0.29
0.14,0.14,0.31
0.12,0.15,0.34
0.13,0.17,0.37
0.13,0.17,0.42
0.12,0.15,0.43
0.12,0.14,0.44
0.13,0.13,0.42
0.13,0.1,0.4
0.12,0.05,0.36
0.12,0.01,0.34
0.13,-0.04,0.3
0.11,-0.07,0.27
0.09,-0.08,0.25
0.1,-0.09,0.27
0.15,-0.13,0.33
0.21,-0.19,0.38
0.26,-0.25,0.37
0.29,-0.3,0.34
0.29,-0.33,0.3
0.26,-0.38,0.3
0.23,-0.43,0.36
0.35,-0.67,0.48
0.35,-0.67,0.48
0.35,-0.73,0.44
0.33,-0.82,0.45
0.36,-0.91,0.53
0.45,-0.99,0.72
0.61,-0.99,0.76
0.59,-1.01,0.73
0.53,-1.04,0.63
0.44,-1.08,0.55
0.36,-1.19,0.54
0.32,-1.34,0.67
0.41,-1.4,0.86
0.56,-1.34,0.95
0.7,-1.29,0.95
0.78,-1.28,0.9
0.74,-1.3,0.84
0.62,-1.34,0.81
0.5,-1.36,0.81
0.39,-1.37,0.81
0.34,-1.41,0.92
0.43,-1.39,1.07
0.56,-1.32,1.05
0.62,-1.32,1.01
0.63,-1.36,1.02
0.61,-1.39,1.02
0.55,-1.41,0.96
0.45,-1.4,0.91
0.37,-1.38,0.88
0.33,-1.37,0.84
0.33,-1.35,0.84
0.4,-1.29,0.91
0.53,-1.15,0.87
0.5,-1.12,0.82
0.45,-1.11,0.79
0.42,-1.1,0.78
0.37,-1.09,0.77
0.3,-1.1,0.74
0.26,-1.09,0.7
0.24,-1.06,0.67
0.21,-1.07,0.63
0.23,-1,0.71
0.36,-0.92,0.82
0.36,-0.99,0.91
0.22,-1.07,0.94
0.24,-1.05,0.88
0.26,-1.01,0.82
0.15,-1.02,0.69
0,-1.05,0.55
-0.05,-1.05,0.49
-0.01,-1.01,0.51
0.01,-0.99,0.51
0.05,-0.97,0.5
0.15,-0.96,0.48
0.24,-0.96,0.43
0.29,-0.93,0.38
0.29,-0.89,0.33
0.31,-0.88,0.27
0.34,-0.91,0.24
0.36,-0.93,0.22
0.35,-0.94,0.23
0.34,-0.93,0.24
0.37,-0.93,0.25
0.36,-0.95,0.27
0.33,-0.96,0.31
0.32,-0.95,0.32
0.31,-0.95,0.31
0.32,-0.97,0.32
0.35,-0.96,0.31
0.37,-0.97,0.31
0.32,-1.02,0.36
0.3,-1.05,0.44
0.33,-1.04,0.47
0.35,-1.01,0.48
0.35,-0.98,0.51
0.31,-1,0.53
0.28,-1.03,0.59
0.25,-1.04,0.66
0.25,-1.08,0.72
0.26,-1.11,0.8
0.26,-1.09,0.91
0.22,-1.03,0.99
0.19,-1.01,1.02
0.17,-1.04,1.05
-0.01,-1.12,1.15
-0.08,-1.18,1.2
-0.13,-1.26,1.22
-0.15,-1.32,1.24
-0.14,-1.34,1.25
-0.08,-1.35,1.23
-0.06,-1.36,1.2
-0.05,-1.39,1.16
-0.01,-1.43,1.12
0.03,-1.43,1.1
0.07,-1.4,1.13
0.11,-1.36,1.14
0.14,-1.36,1.1
0.14,-1.39,1.04
0.13,-1.41,1
0.13,-1.38,0.95
0.15,-1.37,0.92
0.17,-1.38,0.91
0.19,-1.36,0.91
0.22,-1.3,0.86
0.23,-1.24,0.83
0.21,-1.21,0.82
0.2,-1.19,0.79
0.2,-1.15,0.75
0.19,-1.11,0.74
0.19,-1.07,0.73
0.22,-0.96,0.61
0.22,-0.92,0.55
0.24,-0.83,0.51
0.26,-0.74,0.5
0.28,-0.66,0.5
0.31,-0.55,0.52
0.29,-0.5,0.51
0.26,-0.45,0.48
0.3,-0.28,0.48
0.38,-0.23,0.42
0.38,-0.29,0.34
0.35,-0.25,0.33
0.35,-0.16,0.3
0.33,-0.08,0.26
0.29,-0.04,0.24
0.24,-0.01,0.22
0.23,0.07,0.19
0.23,0.12,0.19
0.21,0.12,0.2
0.25,0.14,0.16
0.24,0.12,0.12
0.22,0.12,0.1
0.2,0.13,0.12
0.17,0.19,0.17
0.18,0.3,0.22
0.21,0.36,0.27
0.19,0.29,0.28
0.11,0.23,0.28
0.1,0.2,0.3
0.07,0.2,0.34
0.03,0.21,0.42
0.03,0.26,0.47
0.05,0.29,0.47
0.03,0.28,0.46
0.01,0.25,0.48
0.02,0.24,0.5
0.04,0.21,0.49
0.04,0.18,0.49
0.04,0.17,0.51
0.06,0.18,0.51
0.07,0.19,0.51
0.07,0.19,0.5
0.09,0.19,0.49
0.1,0.18,0.47
0.12,0.14,0.45
0.16,0.08,0.43
0.19,0.03,0.42
0.19,-0.01,0.4
0.21,-0.03,0.39
0.24,-0.06,0.37
0.28,-0.07,0.36
0.31,-0.05,0.35
0.33,-0.09,0.29
0.31,-0.21,0.27
0.3,-0.33,0.26
0.28,-0.44,0.25
0.26,-0.51,0.27
0.27,-0.52,0.29
0.29,-0.49,0.31
0.33,-0.47,0.3
0.39,-0.62,0.29
0.46,-0.83,0.35
0.51,-0.92,0.41
0.53,-0.95,0.43
0.5,-0.96,0.5
0.44,-0.93,0.56
0.42,-0.93,0.58
0.41,-1.02,0.58
0.38,-1.18,0.63
0.43,-1.33,0.7
0.52,-1.37,0.77
0.56,-1.28,0.77
0.59,-1.19,0.72
0.64,-1.21,0.72
0.7,-1.31,0.75
0.7,-1.38,0.78
0.62,-1.45,0.88
0.58,-1.49,1.05
0.6,-1.44,1.1
0.52,-1.36,1.06
0.51,-1.38,1.04
0.5,-1.38,1.04
0.41,-1.35,1.06
0.35,-1.32,1.08
0.4,-1.35,1.09
0.47,-1.45,1.17
0.55,-1.47,1.2
0.6,-1.38,1.14
0.57,-1.28,1.13
0.54,-1.2,1.11
0.49,-1.16,1.06
0.4,-1.15,0.99
0.29,-1.11,0.97
0.23,-1.07,0.95
0.25,-1.04,0.91
0.27,-1.02,0.88
0.28,-1.05,0.82
0.31,-1.09,0.78
0.32,-1.09,0.8
0.29,-1.04,0.83
0.26,-1.03,0.83
0.21,-1.05,0.81
0.13,-1.04,0.82
0.02,-1.03,0.87
-0.08,-1.01,0.86
-0.13,-1.01,0.79
-0.17,-0.99,0.76
-0.15,-0.96,0.76
-0.05,-0.94,0.73
0.05,-0.92,0.68
0.12,-0.92,0.62
0.18,-0.94,0.54
0.23,-0.95,0.49
0.28,-0.94,0.44
0.33,-0.93,0.41
0.36,-0.94,0.38
0.36,-0.95,0.37
0.33,-0.97,0.36
0.3,-0.97,0.33
0.31,-0.95,0.32
0.32,-0.96,0.3
0.32,-0.96,0.27
0.33,-0.94,0.27
0.33,-0.94,0.26
0.34,-0.96,0.25
0.34,-0.96,0.26
0.34,-0.96,0.26
0.33,-0.96,0.26
0.33,-0.95,0.29
0.34,-0.94,0.31
0.36,-0.95,0.31
0.3,-0.95,0.36
0.29,-0.94,0.39
0.31,-0.95,0.37
0.29,-0.96,0.39
0.28,-0.95,0.48
0.32,-0.96,0.57
0.37,-0.99,0.65
0.35,-1.02,0.74
0.33,-1.04,0.81
0.35,-1.04,0.82
0.28,-1,0.85
0.17,-0.98,0.95
0.14,-1.04,1.07
0.14,-1.11,1.14
0.08,-1.16,1.18
0.02,-1.19,1.19
-0.03,-1.23,1.25
-0.08,-1.23,1.32
-0.11,-1.2,1.33
-0.16,-1.18,1.34
-0.18,-1.22,1.34
-0.13,-1.27,1.34
-0.05,-1.31,1.31
-0.01,-1.33,1.29
0.03,-1.34,1.3
0.08,-1.33,1.3
0.19,-1.35,1.2
0.19,-1.39,1.16
0.15,-1.42,1.14
0.12,-1.41,1.11
0.1,-1.37,1.07
0.09,-1.33,1
0.1,-1.32,0.93
0.12,-1.3,0.87
0.17,-1.27,0.81
0.22,-1.27,0.74
0.24,-1.26,0.72
0.27,-1.19,0.7
0.3,-1.07,0.67
0.3,-0.95,0.67
0.3,-0.86,0.65
0.29,-0.85,0.59
0.26,-0.85,0.5
0.29,-0.79,0.45
0.28,-0.72,0.42
0.29,-0.65,0.42
0.35,-0.55,0.42
0.37,-0.44,0.41
0.38,-0.37,0.38
0.33,-0.33,0.32
0.28,-0.26,0.27
0.24,-0.19,0.23
0.21,-0.11,0.19
0.15,-0.06,0.17
0.15,0.01,0.16
0.14,0.07,0.16
0.13,0.11,0.18
0.14,0.14,0.17
0.12,0.16,0.14
0.11,0.17,0.11
0.1,0.19,0.12
0.11,0.23,0.12
0.13,0.26,0.13
0.13,0.27,0.16
0.11,0.28,0.21
0.11,0.3,0.24
0.14,0.31,0.23
0.16,0.28,0.23
0.16,0.26,0.25
0.15,0.23,0.28
0.13,0.2,0.3
0.11,0.18,0.34
0.08,0.17,0.38
0.07,0.17,0.4
0.08,0.17,0.41
0.07,0.17,0.41
0.06,0.17,0.4
0.07,0.16,0.36
0.08,0.1,0.28
0.1,0.05,0.26
0.12,0,0.24
0.13,-0.03,0.24
0.15,-0.04,0.25
0.19,-0.07,0.24
0.22,-0.11,0.21
0.24,-0.15,0.18
0.24,-0.23,0.19
0.25,-0.33,0.22
0.26,-0.42,0.23
0.27,-0.49,0.21
0.29,-0.56,0.17
0.33,-0.63,0.14
0.31,-0.66,0.19
0.32,-0.71,0.26
0.37,-0.82,0.34
0.39,-0.87,0.39
0.41,-0.94,0.42
0.45,-1.05,0.49
0.48,-1.13,0.59
0.47,-1.16,0.59
0.44,-1.16,0.49
0.39,-1.17,0.47
0.4,-1.18,0.61
0.48,-1.29,0.81
0.58,-1.42,0.93
0.62,-1.54,0.82
0.63,-1.57,0.79
0.6,-1.56,0.85
0.53,-1.57,0.95
0.46,-1.61,1.07
0.49,-1.6,1.18
0.58,-1.54,1.24
0.62,-1.5,1.28
0.6,-1.52,1.25
0.56,-1.56,1.21
0.45,-1.59,1.27
0.36,-1.51,1.33
0.31,-1.41,1.31
0.26,-1.37,1.24
0.28,-1.34,1.23
0.36,-1.29,1.21
0.46,-1.27,1.17
0.49,-1.27,1.12
0.48,-1.27,1.07
0.5,-1.25,1.04
0.51,-1.2,1.01
0.47,-1.13,0.98
0.44,-1.1,0.96
0.29,-1.05,1.06
0.35,-0.97,1.24
0.38,-1.03,1.4
0.03,-1.15,1.42
-0.07,-1.14,1.25
-0.17,-1.12,0.82
-0.13,-1.04,0.6
-0.06,-0.99,0.56
-0.05,-1,0.57
-0.07,-1,0.59
-0.05,-0.96,0.59
0.01,-0.94,0.53
0.11,-0.93,0.43
0.16,-0.9,0.36
0.16,-0.88,0.29
0.2,-0.89,0.24
0.26,-0.93,0.2
0.3,-0.96,0.16
0.31,-0.97,0.14
0.32,-0.95,0.13
0.31,-0.93,0.12
0.32,-0.92,0.11
0.34,-0.92,0.11
0.34,-0.92,0.12
0.34,-0.91,0.13
0.33,-0.91,0.14
0.3,-0.92,0.15
0.3,-0.94,0.16
0.34,-0.93,0.15
0.33,-0.92,0.16
0.34,-0.92,0.18
0.36,-0.92,0.19
0.34,-0.92,0.23
0.31,-0.92,0.3
0.32,-0.94,0.33
0.34,-0.98,0.36
0.32,-0.98,0.44
0.26,-0.96,0.54
0.25,-0.94,0.55
0.25,-0.94,0.53
0.24,-0.98,0.55
0.24,-1,0.63
0.28,-0.97,0.85
0.31,-0.94,1
0.36,-0.98,1.03
0.33,-1.04,1.04
0.17,-1.13,1.04
0.13,-1.16,1.1
0.18,-1.12,1.16
0.16,-1.13,1.22
0.09,-1.16,1.26
0.07,-1.19,1.3
0.04,-1.25,1.29
0.01,-1.26,1.25
0,-1.24,1.26
0.07,-1.32,1.25
0.12,-1.35,1.21
0.15,-1.35,1.18
0.17,-1.36,1.16
0.17,-1.37,1.15
0.18,-1.37,1.15
0.21,-1.39,1.14
0.24,-1.43,1.11
0.25,-1.49,1.08
0.24,-1.52,1.07
0.23,-1.48,1.05
0.23,-1.4,1.02
0.24,-1.37,1
0.26,-1.38,0.95
0.28,-1.39,0.88
0.28,-1.38,0.86
0.3,-1.34,0.84
0.33,-1.27,0.82
0.35,-1.19,0.81
0.34,-1.12,0.79
0.32,-1.04,0.76
0.3,-0.95,0.69
0.27,-0.89,0.61
0.23,-0.88,0.57
0.22,-0.84,0.52
0.23,-0.76,0.45
0.24,-0.59,0.31
0.26,-0.52,0.24
0.3,-0.42,0.18
0.33,-0.35,0.11
0.31,-0.31,0.06
0.29,-0.25,0.04
0.32,-0.16,0
0.33,-0.1,-0.03
0.31,-0.04,-0.03
0.27,0.04,-0.01
0.24,0.09,0
0.23,0.12,0.01
0.22,0.15,0.02
0.22,0.19,0.01
0.23,0.22,-0.01
0.26,0.23,-0.02
0.26,0.22,0.02
0.19,0.22,0.08
0.14,0.25,0.12
0.15,0.27,0.13
0.17,0.27,0.14
0.15,0.25,0.15
0.11,0.23,0.17
0.11,0.21,0.19
0.09,0.18,0.21
0.07,0.16,0.26
0.07,0.16,0.31
0.07,0.17,0.32
0.06,0.18,0.32
0.06,0.17,0.3
0.07,0.13,0.28
0.07,0.09,0.28
0.06,0.03,0.28
0.08,-0.03,0.26
0.1,-0.08,0.26
0.12,-0.11,0.27
0.13,-0.13,0.28
0.16,-0.14,0.28
0.19,-0.17,0.26
0.18,-0.22,0.24
0.18,-0.29,0.25
0.21,-0.37,0.27
0.25,-0.47,0.29
0.3,-0.6,0.31
0.37,-0.7,0.33
0.41,-0.71,0.35
0.39,-0.65,0.36
0.36,-0.68,0.38
0.37,-0.83,0.46
0.43,-0.92,0.55
0.5,-0.94,0.6
0.5,-0.97,0.6
0.47,-1.02,0.54
0.47,-1.15,0.58
0.46,-1.26,0.69
0.49,-1.29,0.76
0.53,-1.25,0.75
0.56,-1.24,0.72
0.6,-1.3,0.7
0.63,-1.41,0.66
0.63,-1.52,0.66
0.64,-1.59,0.77
0.68,-1.57,0.91
0.73,-1.44,0.92
0.76,-1.34,0.89
0.78,-1.37,0.86
0.74,-1.47,0.86
0.66,-1.52,0.88
0.6,-1.51,0.84
0.56,-1.49,0.86
0.52,-1.49,0.99
0.48,-1.46,1.07
0.5,-1.41,1.05
0.51,-1.39,1.01
0.48,-1.38,0.98
0.46,-1.36,0.97
0.42,-1.32,0.95
0.35,-1.25,0.96
0.28,-1.17,0.97
0.2,-1.09,0.95
0.29,-1.12,0.92
0.12,-1.18,1.65
0.34,-1.18,1.94
0.79,-1.35,1.94
0.8,-1.52,2.53
0.38,-1.13,2.14
-0.23,-0.93,1.35
-0.13,-1.08,1
0.26,-1.06,0.8
0.25,-0.97,0.61
0.13,-0.96,0.52
0.11,-1,0.48
0.26,-1.06,0.34
0.54,-1.03,0.13
0.58,-0.97,-0.03
0.38,-0.97,-0.07
0.24,-0.99,-0.04
0.23,-0.97,-0.02
0.27,-0.95,-0.01
0.29,-0.95,0.01
0.28,-0.93,0.03
0.26,-0.91,0.03
0.26,-0.91,0
0.29,-0.91,-0.04
0.32,-0.91,-0.05
0.34,-0.87,-0.03
0.35,-0.89,-0.04
0.37,-0.91,-0.07
0.39,-0.92,-0.08
0.36,-0.93,-0.06
0.33,-0.91,-0.05
0.34,-0.91,-0.05
0.38,-0.93,-0.06
0.41,-0.93,-0.05
0.43,-0.92,-0.04
0.45,-0.91,-0.03
0.46,-0.89,-0.03
0.47,-0.88,-0.03
0.48,-0.87,-0.04
0.48,-0.86,-0.03
0.47,-0.86,-0.02
0.46,-0.87,0
0.45,-0.89,0.01
0.45,-0.91,0.02
0.45,-0.93,0.04
0.46,-0.94,0.05
0.46,-0.95,0.04
0.45,-0.94,0.04
0.45,-0.92,0.05
0.46,-0.89,0.06
0.46,-0.88,0.09
0.45,-0.89,0.11
0.44,-0.9,0.13
0.44,-0.9,0.15
0.46,-0.9,0.16
0.46,-0.89,0.17
0.46,-0.9,0.18
0.47,-0.91,0.2
0.48,-0.91,0.21
0.47,-0.91,0.23
0.47,-0.9,0.24
0.48,-0.89,0.24
0.49,-0.88,0.24
0.51,-0.87,0.24
0.51,-0.88,0.23
0.51,-0.89,0.2
0.53,-0.89,0.19
0.56,-0.89,0.17
0.56,-0.89,0.17
0.55,-0.9,0.15
0.52,-0.91,0.14
0.5,-0.92,0.13
0.5,-0.92,0.12
0.48,-0.92,0.11
0.47,-0.92,0.1
0.46,-0.93,0.1
0.45,-0.94,0.09
0.44,-0.94,0.09
0.44,-0.95,0.1
0.43,-0.96,0.1
0.43,-0.97,0.09
0.42,-0.96,0.1
0.42,-0.96,0.09
0.41,-0.96,0.09
0.41,-0.96,0.09
0.41,-0.96,0.09
0.4,-0.97,0.08
0.41,-0.97,0.08
0.4,-0.97,0.09
0.39,-0.97,0.09
0.39,-0.98,0.1
0.38,-1,0.1
0.37,-1.01,0.11
0.36,-1.01,0.11
0.35,-1,0.11
0.34,-1,0.1
0.31,-1,0.1
0.3,-0.99,0.09
0.3,-0.98,0.1
0.31,-0.99,0.1
0.33,-1.05,0.1
0.33,-1.13,0.09
0.31,-1.2,0.08
0.29,-1.29,0.05
0.23,-1.27,0.04
0.22,-1.23,0.03
0.23,-1.17,0.03
0.24,-1.09,0.04
0.25,-1.01,0.06
0.26,-0.93,0.09
0.3,-0.86,0.11
0.33,-0.81,0.13
0.33,-0.77,0.15
0.29,-0.76,0.16
0.27,-0.75,0.15
0.24,-0.78,0.14
0.18,-0.84,0.1
0.15,-0.89,0.08
0.12,-0.93,0.08
0.08,-1,0.07
0.06,-1.07,0.09
0.06,-1.13,0.09
0.06,-1.17,0.1
0.08,-1.18,0.1
0.1,-1.18,0.1
0.12,-1.15,0.1
0.13,-1.1,0.11
0.14,-1.04,0.11
0.16,-0.98,0.11
0.17,-0.88,0.12
0.17,-0.84,0.12
0.15,-0.81,0.13
0.15,-0.79,0.14
0.15,-0.79,0.14
0.14,-0.8,0.15
0.14,-0.81,0.16
0.15,-0.83,0.16
0.16,-0.86,0.17
0.17,-0.89,0.18
0.17,-0.92,0.18
0.18,-0.95,0.18
0.19,-0.97,0.18
0.22,-1,0.18
0.24,-1.02,0.18
0.27,-1.02,0.19
0.29,-1,0.19
0.32,-0.98,0.19
0.34,-0.97,0.2
0.34,-0.97,0.21
0.34,-0.96,0.21
0.36,-0.95,0.21
0.37,-0.95,0.21
0.38,-0.94,0.21
0.39,-0.93,0.22
0.4,-0.9,0.21
0.41,-0.89,0.23
0.43,-0.89,0.22
0.45,-0.87,0.23
0.43,-0.85,0.24
0.41,-0.85,0.24
0.43,-0.84,0.24
0.43,-0.82,0.25
0.42,-0.81,0.25
0.41,-0.79,0.25
0.4,-0.78,0.26
0.38,-0.8,0.26
0.4,-0.85,0.27
0.42,-0.94,0.29
0.42,-1.05,0.29
0.4,-1.14,0.28
0.39,-1.2,0.28
0.36,-1.25,0.26
0.33,-1.29,0.24
0.29,-1.3,0.21
0.24,-1.27,0.17
0.21,-1.18,0.14
0.16,-1.09,0.15
0.15,-1.03,0.17
0.17,-1.01,0.18
0.18,-1.01,0.18
0.15,-1.02,0.17
0.12,-1.05,0.11
0.05,-1.11,0.07
0,-1.13,0.03
-0.07,-1.15,-0.01
-0.14,-1.16,-0.03
-0.19,-1.15,-0.05
-0.2,-1.12,-0.07
-0.2,-1.08,-0.09
-0.19,-1.04,-0.12
-0.2,-1.01,-0.13
-0.23,-0.97,-0.13
-0.24,-0.92,-0.12
-0.19,-0.89,-0.13
-0.15,-0.86,-0.14
-0.14,-0.85,-0.14
-0.11,-0.83,-0.15
-0.09,-0.82,-0.15
-0.08,-0.83,-0.15
-0.07,-0.84,-0.14
-0.07,-0.87,-0.13
-0.06,-0.91,-0.13
-0.04,-0.92,-0.12
-0.03,-0.94,-0.12
-0.01,-0.96,-0.13
0.03,-0.97,-0.13
0.08,-0.99,-0.13
0.11,-1.01,-0.15
0.17,-1.04,-0.16
0.18,-1.04,-0.15
0.2,-1.04,-0.14
0.21,-1.04,-0.12
0.23,-1.03,-0.11
0.23,-1.02,-0.1
0.21,-0.99,-0.08
0.2,-0.96,-0.08
0.22,-0.94,-0.08
0.23,-0.92,-0.08
0.25,-0.92,-0.07
0.29,-0.9,-0.07
0.31,-0.89,-0.06
0.3,-0.88,-0.05
0.31,-0.88,-0.04
0.33,-0.87,-0.02
0.35,-0.87,-0.01
0.33,-0.87,0.02
0.32,-0.88,0.04
0.33,-0.89,0.04
0.34,-0.91,0.05
0.33,-0.91,0.07
0.3,-0.92,0.09
0.29,-0.92,0.1
0.32,-0.93,0.13
0.34,-0.93,0.16
0.33,-0.97,0.19
0.3,-1,0.17
0.28,-1.01,0.14
0.27,-0.92,0.09
0.27,-0.87,0.09
0.31,-0.85,0.13
0.34,-0.84,0.18
0.35,-0.84,0.24
0.34,-0.85,0.29
0.34,-0.85,0.29
0.33,-0.86,0.25
0.34,-0.88,0.2
0.37,-0.92,0.15
0.43,-0.98,0.16
0.48,-1.03,0.22
0.53,-1.06,0.27
0.55,-1.08,0.31
0.52,-1.09,0.31
0.49,-1.07,0.27
0.5,-1.04,0.24
0.55,-1.01,0.22
0.58,-1,0.2
0.6,-0.97,0.2
0.59,-0.95,0.21
0.56,-0.97,0.24
0.58,-0.95,0.23
0.59,-0.97,0.19
0.59,-0.95,0.17
0.56,-0.96,0.16
0.58,-0.97,0.16
0.61,-0.95,0.15
0.61,-0.93,0.14
0.65,-0.91,0.13
0.69,-0.9,0.14
0.71,-0.92,0.13
0.7,-0.93,0.13
0.68,-0.94,0.14
0.67,-0.94,0.15
0.69,-0.93,0.16
0.69,-0.93,0.18
0.7,-0.92,0.19
0.74,-0.9,0.2
0.81,-0.88,0.22
0.86,-0.88,0.25
0.87,-0.87,0.27
0.86,-0.85,0.28
0.82,-0.82,0.3
0.81,-0.8,0.33
0.85,-0.8,0.37
0.89,-0.82,0.43
0.92,-0.82,0.47
0.92,-0.8,0.51
