Acc_x,Acc_y,Acc_z
0.4,-0.82,0.4
0.4,-0.81,0.4
0.41,-0.82,0.37
0.43,-0.82,0.36
0.46,-0.82,0.35
0.47,-0.83,0.39
0.44,-0.87,0.46
0.5,-0.88,0.48
0.6,-0.88,0.46
0.63,-0.89,0.41
0.68,-0.89,0.37
0.69,-0.88,0.35
0.62,-0.92,0.33
0.54,-0.97,0.33
0.53,-0.98,0.36
0.58,-1.02,0.4
0.55,-1.06,0.43
0.58,-1.02,0.44
0.59,-1,0.43
0.48,-1.05,0.46
0.37,-1.07,0.49
0.31,-1.07,0.54
0.3,-1.06,0.6
0.3,-1.08,0.61
0.31,-1.09,0.63
0.34,-1.1,0.66
0.35,-1.13,0.69
0.36,-1.15,0.75
0.4,-1.16,0.78
0.43,-1.2,0.8
0.44,-1.23,0.83
0.47,-1.22,0.84
0.5,-1.2,0.86
0.56,-1.19,0.88
0.58,-1.18,0.9
0.57,-1.13,0.89
0.58,-1.07,0.87
0.55,-1.06,0.85
0.53,-1.07,0.84
0.53,-1.08,0.82
0.52,-1.08,0.8
0.5,-1.06,0.79
0.49,-1.05,0.79
0.52,-1.06,0.8
0.55,-1.07,0.8
0.58,-1.07,0.8
0.59,-1.04,0.79
0.61,-1.03,0.77
0.63,-1.04,0.73
0.63,-0.98,0.69
0.62,-0.93,0.72
0.62,-0.91,0.73
0.62,-0.9,0.75
0.6,-0.88,0.74
0.59,-0.87,0.72
0.59,-0.87,0.73
0.59,-0.87,0.75
0.6,-0.86,0.74
0.61,-0.82,0.71
0.59,-0.76,0.67
0.56,-0.69,0.65
0.52,-0.66,0.7
0.49,-0.69,0.75
0.49,-0.71,0.8
0.5,-0.69,0.87
0.49,-0.66,0.94
0.46,-0.59,0.94
0.42,-0.5,0.87
0.38,-0.43,0.79
0.38,-0.39,0.73
0.39,-0.36,0.68
0.39,-0.35,0.65
0.37,-0.35,0.63
0.33,-0.34,0.62
0.3,-0.32,0.61
0.3,-0.24,0.54
0.31,-0.2,0.47
0.32,-0.16,0.42
0.32,-0.14,0.42
0.33,-0.15,0.46
0.32,-0.15,0.48
0.28,-0.11,0.51
0.25,-0.05,0.52
0.23,0.03,0.53
0.26,0.12,0.52
0.32,0.17,0.51
0.38,0.14,0.51
0.36,0.09,0.52
0.29,0.03,0.53
0.23,0.03,0.54
0.19,0.08,0.56
0.18,0.13,0.56
0.2,0.16,0.57
0.21,0.18,0.58
0.22,0.21,0.61
0.22,0.22,0.62
0.21,0.23,0.61
0.2,0.25,0.58
0.21,0.26,0.55
0.21,0.26,0.53
0.21,0.29,0.52
0.21,0.32,0.54
0.25,0.32,0.53
0.27,0.32,0.52
0.28,0.31,0.52
0.29,0.3,0.53
0.28,0.3,0.54
0.26,0.3,0.53
0.24,0.28,0.5
0.22,0.26,0.47
0.21,0.24,0.47
0.21,0.23,0.47
0.23,0.23,0.48
0.25,0.22,0.49
0.26,0.22,0.5
0.27,0.21,0.5
0.26,0.19,0.49
0.25,0.19,0.48
0.24,0.19,0.47
0.24,0.18,0.44
0.24,0.14,0.41
0.25,0.1,0.39
0.24,0.06,0.37
0.23,0.03,0.38
0.26,0.03,0.4
0.32,0.02,0.42
0.38,0.01,0.44
0.41,-0.01,0.41
0.39,-0.1,0.38
0.38,-0.15,0.4
0.4,-0.16,0.48
0.45,-0.15,0.57
0.5,-0.16,0.63
0.53,-0.18,0.62
0.54,-0.22,0.56
0.52,-0.28,0.53
0.53,-0.32,0.56
0.6,-0.29,0.63
0.72,-0.3,0.69
0.78,-0.36,0.73
0.75,-0.42,0.75
0.72,-0.46,0.74
0.7,-0.48,0.71
0.71,-0.46,0.72
0.76,-0.41,0.75
0.83,-0.39,0.78
0.87,-0.41,0.8
0.87,-0.46,0.78
0.86,-0.52,0.71
0.85,-0.58,0.67
0.83,-0.62,0.69
0.81,-0.65,0.74
0.81,-0.66,0.78
0.84,-0.65,0.8
0.93,-0.67,0.77
0.96,-0.7,0.7
0.98,-0.74,0.63
1,-0.79,0.6
0.99,-0.85,0.63
0.97,-0.89,0.67
0.94,-0.9,0.7
0.91,-0.87,0.74
0.9,-0.87,0.74
0.9,-0.88,0.72
0.86,-0.89,0.71
0.81,-0.9,0.71
0.78,-0.92,0.7
0.76,-0.93,0.68
0.75,-0.94,0.68
0.74,-0.95,0.68
0.72,-0.96,0.7
0.7,-0.97,0.72
0.68,-0.98,0.72
0.64,-0.99,0.73
0.6,-1,0.74
0.58,-1,0.72
0.58,-1,0.68
0.6,-0.98,0.64
0.62,-0.98,0.63
0.63,-1.01,0.64
0.61,-1.03,0.67
0.58,-1.03,0.68
0.59,-1.02,0.65
0.56,-1,0.6
0.5,-0.99,0.55
0.47,-0.98,0.51
0.45,-0.96,0.52
0.4,-0.94,0.53
0.35,-0.94,0.53
0.32,-0.95,0.51
0.3,-0.95,0.5
0.29,-0.97,0.49
0.28,-0.99,0.49
0.24,-1.03,0.49
0.19,-1.06,0.48
0.14,-1.06,0.46
0.07,-1.03,0.45
0.02,-0.98,0.45
0.01,-0.93,0.46
0.07,-0.91,0.47
0.14,-0.93,0.47
0.2,-0.95,0.45
0.26,-0.96,0.43
0.28,-0.97,0.39
0.29,-0.97,0.35
0.3,-0.93,0.28
0.29,-0.87,0.26
0.3,-0.88,0.25
0.31,-0.89,0.26
0.31,-0.9,0.26
0.31,-0.9,0.26
0.33,-0.91,0.26
0.37,-0.92,0.25
0.39,-0.92,0.23
0.4,-0.92,0.23
0.4,-0.91,0.25
0.4,-0.9,0.27
0.39,-0.92,0.29
0.35,-0.93,0.31
0.33,-0.93,0.31
0.33,-0.93,0.32
0.31,-0.94,0.34
0.32,-0.95,0.35
0.37,-0.95,0.38
0.38,-0.94,0.42
0.34,-0.93,0.47
0.3,-0.93,0.51
0.26,-0.92,0.56
0.21,-0.92,0.58
0.18,-0.93,0.59
0.18,-0.95,0.6
0.19,-0.96,0.62
0.18,-0.98,0.65
0.15,-0.99,0.66
0.1,-0.99,0.7
0.01,-0.98,0.74
-0.01,-1,0.76
0.02,-1.03,0.79
-0.05,-1.04,0.8
-0.1,-1.05,0.83
-0.12,-1.05,0.88
-0.13,-1.06,0.89
-0.13,-1.07,0.87
-0.14,-1.07,0.85
-0.18,-1.07,0.89
-0.23,-1.09,0.96
-0.24,-1.11,1
-0.2,-1.13,1.01
-0.19,-1.14,0.99
-0.21,-1.14,0.98
-0.23,-1.14,0.97
-0.24,-1.16,0.97
-0.21,-1.17,0.94
-0.16,-1.17,0.89
-0.15,-1.18,0.89
-0.17,-1.18,0.94
-0.17,-1.19,0.97
-0.13,-1.21,0.96
-0.04,-1.17,0.92
-0.02,-1.14,0.92
-0.02,-1.13,0.91
-0.01,-1.12,0.87
-0.01,-1.1,0.84
-0.01,-1.06,0.82
0,-1.01,0.82
0.02,-0.97,0.85
0.07,-0.95,0.85
0.09,-0.94,0.85
0.08,-0.94,0.85
0.07,-0.92,0.82
0.06,-0.87,0.79
0.06,-0.81,0.76
0.07,-0.77,0.74
0.08,-0.74,0.73
0.08,-0.71,0.74
0.08,-0.68,0.75
0.08,-0.64,0.76
0.08,-0.6,0.77
0.1,-0.57,0.75
0.14,-0.52,0.71
0.16,-0.48,0.69
0.16,-0.47,0.7
0.16,-0.46,0.69
0.14,-0.42,0.68
0.09,-0.28,0.62
0.13,-0.22,0.61
0.16,-0.19,0.63
0.18,-0.16,0.63
0.18,-0.13,0.62
0.18,-0.13,0.61
0.19,-0.11,0.6
0.18,-0.09,0.6
0.16,-0.06,0.6
0.12,-0.04,0.62
0.14,-0.05,0.61
0.19,-0.04,0.6
0.21,-0.03,0.58
0.22,-0.02,0.54
0.23,0.01,0.48
0.26,0.06,0.46
0.3,0.1,0.49
0.31,0.11,0.54
0.29,0.12,0.57
0.27,0.12,0.55
0.27,0.1,0.51
0.27,0.09,0.5
0.26,0.11,0.51
0.25,0.13,0.54
0.25,0.15,0.57
0.24,0.16,0.61
0.22,0.18,0.66
0.2,0.2,0.67
0.19,0.2,0.68
0.19,0.19,0.68
0.18,0.18,0.68
0.18,0.17,0.68
0.16,0.16,0.71
0.14,0.15,0.74
0.14,0.15,0.76
0.15,0.15,0.76
0.15,0.14,0.75
0.14,0.14,0.73
0.14,0.14,0.7
0.14,0.14,0.69
0.14,0.13,0.68
0.16,0.12,0.68
0.17,0.1,0.66
0.18,0.06,0.63
0.19,0.02,0.6
0.18,0.01,0.57
0.18,0.01,0.56
0.18,0,0.6
0.19,-0.01,0.62
0.21,-0.02,0.61
0.23,-0.04,0.59
0.23,-0.06,0.56
0.22,-0.14,0.54
0.21,-0.2,0.58
0.2,-0.22,0.64
0.23,-0.22,0.69
0.28,-0.23,0.72
0.3,-0.24,0.69
0.29,-0.28,0.61
0.28,-0.33,0.54
0.23,-0.41,0.53
0.16,-0.47,0.57
0.19,-0.44,0.66
0.29,-0.4,0.75
0.35,-0.38,0.79
0.37,-0.39,0.76
0.36,-0.43,0.71
0.32,-0.49,0.68
0.27,-0.56,0.67
0.27,-0.62,0.69
0.3,-0.65,0.74
0.37,-0.64,0.79
0.44,-0.67,0.82
0.47,-0.73,0.83
0.45,-0.79,0.83
0.37,-0.84,0.82
0.3,-0.87,0.8
0.28,-0.88,0.79
0.29,-0.86,0.92
0.43,-0.81,0.95
0.48,-0.83,0.93
0.47,-0.87,0.89
0.42,-0.9,0.86
0.37,-0.93,0.85
0.35,-0.95,0.85
0.35,-0.98,0.87
0.39,-1.01,0.86
0.44,-1.04,0.82
0.5,-1.07,0.78
0.55,-1.1,0.74
0.6,-1.13,0.72
0.6,-1.14,0.73
0.58,-1.14,0.73
0.56,-1.13,0.74
0.53,-1.11,0.76
0.49,-1.07,0.77
0.44,-1.01,0.77
0.43,-0.98,0.75
0.46,-0.99,0.77
0.48,-1.03,0.83
0.5,-1.09,0.88
0.51,-1.13,0.9
0.5,-1.15,0.92
0.46,-1.17,0.93
0.42,-1.17,0.93
0.33,-1.09,0.9
0.31,-1.05,0.87
0.28,-1.01,0.82
0.26,-0.99,0.77
0.22,-0.99,0.75
0.18,-0.98,0.75
0.15,-0.97,0.79
0.16,-0.97,0.8
0.16,-0.97,0.78
0.15,-0.97,0.77
0.13,-0.99,0.77
0.12,-1,0.73
0.12,-1,0.66
0.11,-0.98,0.6
0.05,-0.96,0.57
-0.01,-0.95,0.56
-0.03,-0.96,0.53
-0.03,-0.98,0.45
0.01,-0.99,0.35
0.11,-0.98,0.26
0.23,-0.96,0.19
0.31,-0.95,0.16
0.36,-0.95,0.13
0.38,-0.94,0.11
0.37,-0.92,0.09
0.37,-0.92,0.09
0.35,-0.88,0.14
0.35,-0.88,0.18
0.37,-0.88,0.21
0.38,-0.87,0.22
0.41,-0.87,0.22
0.42,-0.85,0.22
0.42,-0.85,0.24
0.43,-0.86,0.25
0.41,-0.89,0.28
0.39,-0.92,0.3
0.37,-0.95,0.31
0.36,-0.97,0.31
0.36,-0.97,0.31
0.36,-0.95,0.28
0.36,-0.94,0.24
0.36,-0.94,0.23
0.37,-0.93,0.24
0.37,-0.92,0.24
0.36,-0.92,0.25
0.33,-0.92,0.26
0.29,-0.93,0.28
0.27,-0.94,0.3
0.26,-0.94,0.32
0.25,-0.95,0.32
0.26,-0.94,0.32
0.26,-0.93,0.32
0.26,-0.96,0.35
0.26,-0.98,0.4
0.26,-0.98,0.45
0.25,-0.97,0.51
0.23,-0.97,0.55
0.2,-0.96,0.6
0.18,-0.97,0.63
0.16,-0.97,0.65
0.14,-0.98,0.63
0.14,-1.02,0.61
0.15,-1.04,0.63
0.17,-1.05,0.69
0.17,-1.03,0.73
0.16,-1.06,0.78
0.17,-1.07,0.83
0.16,-1.04,0.84
0.13,-1.05,0.83
0.08,-1.05,0.84
0.04,-1.06,0.86
0.04,-1.06,0.87
0.05,-1.05,0.89
0.03,-1.03,0.92
0.01,-1.03,0.93
0.01,-1.03,0.93
0.01,-1.05,0.94
0.04,-1.07,0.94
0.12,-1.07,0.97
0.13,-1.08,1.03
0.15,-1.1,1.07
0.15,-1.13,1.06
0.14,-1.13,1.03
0.12,-1.13,0.99
0.13,-1.14,0.95
0.14,-1.15,0.96
0.15,-1.15,1
0.18,-1.14,1
0.2,-1.11,0.99
0.21,-1.09,1
0.22,-1.09,1
0.21,-1.1,0.97
0.21,-1.11,0.93
0.21,-1.11,0.91
0.22,-1.09,0.89
0.22,-1.05,0.88
0.24,-1,0.89
0.26,-0.95,0.89
0.27,-0.92,0.89
0.27,-0.9,0.84
0.26,-0.88,0.79
0.24,-0.83,0.76
0.24,-0.78,0.74
0.25,-0.74,0.71
0.27,-0.68,0.69
0.27,-0.63,0.67
0.26,-0.59,0.66
0.26,-0.54,0.65
0.26,-0.48,0.63
0.26,-0.41,0.62
0.27,-0.36,0.6
0.25,-0.34,0.57
0.23,-0.31,0.57
0.24,-0.28,0.57
0.26,-0.23,0.58
0.26,-0.18,0.59
0.28,-0.14,0.57
0.29,-0.12,0.56
0.29,-0.1,0.55
0.27,-0.08,0.52
0.25,-0.06,0.47
0.24,-0.04,0.41
0.24,-0.01,0.38
0.24,0,0.39
0.23,0.01,0.39
0.23,0.04,0.36
0.25,0.07,0.33
0.27,0.09,0.3
0.28,0.1,0.3
0.27,0.11,0.34
0.27,0.15,0.37
0.25,0.15,0.37
0.23,0.16,0.36
0.2,0.17,0.38
0.16,0.17,0.41
0.15,0.17,0.44
0.16,0.16,0.48
0.17,0.14,0.53
0.16,0.13,0.57
0.16,0.13,0.59
0.15,0.14,0.61
0.14,0.16,0.64
0.14,0.17,0.68
0.13,0.17,0.69
0.13,0.16,0.7
0.12,0.15,0.69
0.13,0.14,0.67
0.13,0.11,0.64
0.12,0.07,0.66
0.14,0.06,0.7
0.2,0.07,0.72
0.24,0.08,0.73
0.26,0.07,0.71
0.26,0.05,0.68
0.26,0.01,0.63
0.25,-0.06,0.59
0.24,-0.17,0.57
0.24,-0.15,0.61
0.29,-0.13,0.65
0.35,-0.13,0.67
0.37,-0.15,0.67
0.36,-0.18,0.65
0.34,-0.22,0.62
0.29,-0.28,0.63
0.26,-0.31,0.67
0.3,-0.28,0.71
0.34,-0.29,0.72
0.36,-0.34,0.69
0.36,-0.39,0.64
0.34,-0.45,0.57
0.32,-0.49,0.52
0.33,-0.51,0.55
0.38,-0.51,0.68
0.47,-0.48,0.79
0.53,-0.47,0.83
0.51,-0.52,0.79
0.45,-0.59,0.71
0.42,-0.68,0.61
0.38,-0.76,0.53
0.36,-0.81,0.55
0.45,-0.77,0.67
0.61,-0.69,0.85
0.69,-0.71,0.96
0.6,-0.75,0.86
0.55,-0.83,0.78
0.51,-0.92,0.72
0.48,-0.98,0.69
0.45,-0.99,0.75
0.48,-0.97,0.85
0.55,-0.95,0.89
0.57,-0.96,0.87
0.56,-0.98,0.82
0.54,-1.01,0.78
0.48,-1.01,0.77
0.39,-1,0.78
0.34,-1.02,0.78
0.35,-1.03,0.79
0.38,-1.02,0.8
0.43,-1.03,0.77
0.49,-1.05,0.74
0.53,-1.08,0.72
0.54,-1.12,0.69
0.48,-1.12,0.67
0.37,-1.11,0.69
0.28,-1.1,0.71
0.26,-1.1,0.73
0.26,-1.09,0.72
0.27,-1.08,0.68
0.31,-1.09,0.63
0.39,-1.12,0.61
0.42,-1.15,0.6
0.4,-1.17,0.61
0.34,-1.16,0.63
0.26,-1.14,0.62
0.22,-1.13,0.6
0.19,-1.1,0.59
0.17,-1.09,0.58
0.15,-1.09,0.59
0.15,-1.09,0.6
0.15,-1.06,0.62
0.18,-1.05,0.65
0.2,-1.08,0.71
0.2,-1.04,0.8
0.22,-0.98,0.92
0.2,-1.01,1.04
0.12,-1.05,1.07
0.04,-1.08,0.94
-0.06,-1.08,0.75
-0.14,-1.06,0.59
-0.15,-1.04,0.49
-0.13,-1.02,0.43
-0.09,-1,0.41
-0.03,-0.99,0.37
0.05,-0.97,0.33
0.12,-0.95,0.21
0.22,-0.91,0.16
0.26,-0.89,0.13
0.29,-0.87,0.12
0.33,-0.86,0.13
0.35,-0.86,0.14
0.36,-0.88,0.16
0.36,-0.9,0.18
0.36,-0.93,0.19
0.36,-0.93,0.2
0.37,-0.93,0.21
0.37,-0.92,0.21
0.37,-0.92,0.21
0.38,-0.92,0.21
0.38,-0.92,0.22
0.38,-0.93,0.23
0.39,-0.95,0.23
0.39,-0.97,0.24
0.4,-0.97,0.25
0.4,-0.95,0.27
0.39,-0.94,0.28
0.38,-0.92,0.29
0.36,-0.92,0.3
0.34,-0.92,0.32
0.31,-0.91,0.35
0.29,-0.92,0.43
0.29,-0.93,0.46
0.26,-0.95,0.49
0.23,-0.95,0.54
0.21,-0.95,0.61
0.18,-0.95,0.67
0.16,-0.93,0.71
0.14,-0.95,0.71
0.09,-0.98,0.72
0.05,-1.01,0.72
0.03,-1.03,0.72
0.02,-1.03,0.75
0.02,-1.03,0.8
0.05,-1.03,0.84
0.09,-1.03,0.86
0.09,-1.03,0.89
0.08,-1.03,0.93
0.07,-1.04,0.95
0.06,-1.05,0.94
0.02,-1.07,0.93
0,-1.08,0.94
0,-1.1,0.95
0,-1.13,0.95
0.03,-1.15,0.96
0.04,-1.15,0.99
0.03,-1.14,1.01
0.04,-1.15,0.99
0.06,-1.13,0.96
0.11,-1.14,0.98
0.16,-1.15,0.98
0.17,-1.17,0.96
0.16,-1.17,0.94
0.16,-1.16,0.94
0.17,-1.14,0.94
0.18,-1.14,0.91
0.19,-1.13,0.91
0.2,-1.1,0.94
0.2,-1.08,0.94
0.21,-1.06,0.92
0.22,-1.04,0.9
0.23,-1.02,0.88
0.24,-0.97,0.88
0.25,-0.93,0.9
0.26,-0.9,0.91
0.26,-0.87,0.86
0.25,-0.84,0.78
0.22,-0.8,0.74
0.21,-0.76,0.75
0.22,-0.71,0.76
0.23,-0.67,0.76
0.23,-0.63,0.75
0.22,-0.6,0.73
0.2,-0.57,0.69
0.19,-0.53,0.62
0.21,-0.45,0.62
0.22,-0.42,0.64
0.21,-0.39,0.64
0.2,-0.35,0.63
0.18,-0.32,0.62
0.19,-0.28,0.6
0.22,-0.24,0.57
0.22,-0.21,0.59
0.2,-0.2,0.6
0.2,-0.18,0.58
0.21,-0.14,0.57
0.24,-0.09,0.56
0.25,-0.07,0.57
0.24,-0.05,0.59
0.23,-0.01,0.58
0.22,0.02,0.57
0.23,0.03,0.58
0.25,0.03,0.57
0.25,0.02,0.56
0.25,0.02,0.55
0.24,0.03,0.55
0.24,0.05,0.56
0.23,0.08,0.55
0.22,0.09,0.53
0.22,0.1,0.5
0.23,0.11,0.49
0.27,0.11,0.53
0.27,0.11,0.57
0.25,0.12,0.59
0.22,0.13,0.6
0.19,0.14,0.59
0.17,0.14,0.6
0.15,0.13,0.62
0.15,0.12,0.64
0.15,0.11,0.64
0.15,0.11,0.65
0.15,0.12,0.68
0.14,0.12,0.7
0.13,0.12,0.72
0.12,0.12,0.72
0.12,0.11,0.71
0.12,0.11,0.7
0.13,0.1,0.69
0.16,0.1,0.67
0.18,0.1,0.65
0.2,0.09,0.62
0.22,0.06,0.59
0.22,0.03,0.58
0.22,-0.02,0.58
0.24,-0.03,0.58
0.25,-0.04,0.58
0.26,-0.05,0.56
0.27,-0.06,0.47
0.34,-0.08,0.42
0.37,-0.12,0.39
0.38,-0.19,0.45
0.4,-0.24,0.56
0.45,-0.3,0.63
0.46,-0.35,0.62
0.43,-0.38,0.54
0.39,-0.41,0.45
0.34,-0.44,0.4
0.27,-0.5,0.45
0.26,-0.53,0.57
0.36,-0.52,0.69
0.46,-0.49,0.75
0.46,-0.5,0.7
0.43,-0.52,0.61
0.39,-0.56,0.55
0.32,-0.65,0.58
0.25,-0.74,0.71
0.26,-0.75,0.82
0.34,-0.7,0.85
0.45,-0.73,0.84
0.48,-0.79,0.81
0.43,-0.83,0.78
0.39,-0.9,0.78
0.36,-0.97,0.82
0.33,-0.96,0.96
0.35,-0.92,0.97
0.4,-0.92,0.95
0.4,-0.95,0.91
0.4,-1,0.86
0.41,-1.04,0.82
0.39,-1.07,0.84
0.36,-1.08,0.91
0.37,-1.06,0.97
0.39,-1.01,0.99
0.41,-1.01,0.97
0.41,-1.07,0.94
0.38,-1.14,0.9
0.34,-1.18,0.86
0.28,-1.17,0.85
0.24,-1.15,0.85
0.24,-1.12,0.84
0.24,-1.1,0.85
0.27,-1.07,0.85
0.33,-1.06,0.83
0.36,-1.06,0.81
0.37,-1.06,0.79
0.37,-1.06,0.78
0.32,-1.03,0.78
0.29,-1.01,0.79
0.3,-1,0.8
0.31,-1.04,0.76
0.26,-1.07,0.74
0.26,-1.09,0.72
0.26,-1.1,0.71
0.26,-1.1,0.7
0.25,-1.09,0.68
0.24,-1.07,0.67
0.25,-1.05,0.65
0.24,-1.03,0.63
0.23,-1.01,0.6
0.21,-0.99,0.57
0.22,-0.97,0.54
0.21,-0.96,0.51
0.21,-0.95,0.49
0.21,-0.96,0.47
0.19,-0.97,0.46
0.16,-0.97,0.44
0.16,-0.96,0.41
0.14,-0.94,0.4
0.12,-0.93,0.38
0.12,-0.93,0.37
0.13,-0.93,0.36
0.13,-0.93,0.34
0.13,-0.93,0.32
0.14,-0.92,0.32
0.16,-0.9,0.31
0.19,-0.89,0.31
0.23,-0.88,0.3
0.25,-0.89,0.29
0.26,-0.9,0.27
0.28,-0.92,0.26
0.3,-0.93,0.24
0.32,-0.93,0.24
0.34,-0.92,0.24
0.36,-0.9,0.24
0.37,-0.9,0.24
0.39,-0.9,0.23
0.41,-0.92,0.23
0.42,-0.94,0.23
0.42,-0.94,0.24
0.43,-0.95,0.25
0.41,-0.95,0.26
0.4,-0.94,0.27
0.39,-0.92,0.27
0.38,-0.9,0.29
0.37,-0.92,0.31
0.37,-0.93,0.32
0.36,-0.94,0.33
0.35,-0.96,0.35
0.33,-0.97,0.38
0.31,-0.99,0.4
0.29,-1.01,0.42
0.27,-1.04,0.49
0.21,-1.07,0.52
0.19,-1.07,0.56
0.18,-1.04,0.6
0.14,-1.02,0.64
0.11,-1,0.66
0.11,-0.99,0.68
0.11,-1.02,0.7
0.21,-0.96,0.59
0.2,-0.98,0.61
0.11,-1.13,0.77
0.17,-1.14,0.82
0.16,-1.1,0.87
0.15,-1.07,0.89
0.17,-1.06,0.87
0.17,-1.08,0.87
0.17,-1.1,0.88
0.19,-1.12,0.89
0.21,-1.15,0.9
0.23,-1.15,0.92
0.24,-1.14,0.92
0.24,-1.13,0.91
0.25,-1.13,0.87
0.28,-1.15,0.84
0.3,-1.15,0.83
0.29,-1.16,0.85
0.32,-1.15,0.86
0.37,-1.11,0.84
0.37,-1.09,0.82
0.39,-1.11,0.81
0.42,-1.13,0.83
0.47,-1.12,0.87
0.48,-1.1,0.87
0.45,-1.05,0.85
0.43,-1,0.82
0.41,-0.97,0.8
0.4,-0.97,0.8
0.39,-0.96,0.79
0.39,-0.94,0.77
0.4,-0.91,0.78
0.4,-0.88,0.77
0.42,-0.84,0.75
0.44,-0.8,0.74
0.44,-0.77,0.71
0.43,-0.74,0.68
0.42,-0.72,0.67
0.41,-0.69,0.67
0.41,-0.66,0.65
0.42,-0.61,0.62
0.42,-0.58,0.6
0.42,-0.56,0.6
0.43,-0.52,0.61
0.43,-0.47,0.62
0.44,-0.42,0.61
0.43,-0.39,0.6
0.42,-0.33,0.6
0.42,-0.27,0.59
0.44,-0.24,0.59
0.45,-0.21,0.58
0.45,-0.18,0.56
0.45,-0.14,0.55
0.42,-0.12,0.55
0.4,-0.09,0.52
0.4,-0.05,0.49
0.41,-0.04,0.49
0.41,-0.03,0.49
0.41,-0.01,0.49
0.42,0.01,0.46
0.44,0.02,0.43
0.46,0.04,0.42
0.47,0.07,0.43
0.47,0.09,0.43
0.47,0.11,0.42
0.44,0.12,0.42
0.41,0.13,0.42
0.4,0.15,0.42
0.4,0.15,0.39
0.4,0.15,0.35
0.39,0.15,0.27
0.39,0.18,0.24
0.39,0.18,0.24
0.38,0.16,0.25
0.37,0.15,0.27
0.37,0.16,0.28
0.37,0.17,0.29
0.36,0.17,0.3
0.36,0.18,0.32
0.35,0.18,0.33
0.33,0.17,0.34
0.33,0.15,0.34
0.32,0.12,0.35
0.32,0.1,0.36
0.31,0.09,0.35
0.3,0.07,0.34
0.29,0.04,0.33
0.31,0.03,0.33
0.35,0.02,0.35
0.41,-0.01,0.39
0.44,-0.06,0.44
0.43,-0.09,0.48
0.41,-0.13,0.45
0.37,-0.16,0.39
0.36,-0.2,0.33
0.36,-0.25,0.33
0.4,-0.29,0.41
0.64,-0.27,0.59
0.66,-0.3,0.63
0.59,-0.34,0.59
0.5,-0.38,0.51
0.42,-0.46,0.49
0.42,-0.54,0.57
0.51,-0.51,0.68
0.64,-0.47,0.73
0.74,-0.5,0.73
0.76,-0.55,0.71
0.72,-0.59,0.68
0.64,-0.65,0.66
0.55,-0.71,0.68
0.57,-0.75,0.75
0.66,-0.72,0.81
0.75,-0.67,0.79
0.8,-0.68,0.7
0.81,-0.74,0.62
0.76,-0.82,0.62
0.7,-0.89,0.63
0.68,-0.94,0.66
0.7,-0.95,0.72
0.75,-0.91,0.78
0.79,-0.9,0.78
0.79,-0.92,0.74
0.75,-0.94,0.71
0.67,-0.98,0.73
0.52,-1,0.73
0.45,-1.01,0.73
0.43,-1.02,0.76
0.48,-1.02,0.76
0.54,-1.04,0.76
0.58,-1.09,0.74
0.6,-1.14,0.71
0.64,-1.16,0.7
0.67,-1.18,0.68
0.66,-1.17,0.69
0.65,-1.16,0.69
0.63,-1.16,0.65
0.59,-1.14,0.62
0.56,-1.13,0.62
0.54,-1.13,0.64
0.55,-1.15,0.65
0.54,-1.17,0.65
0.51,-1.17,0.64
0.47,-1.14,0.62
0.44,-1.1,0.62
0.41,-1.08,0.62
0.37,-1.08,0.61
0.32,-1.07,0.62
0.28,-1.07,0.62
0.27,-1.08,0.63
0.27,-1.07,0.62
0.29,-1.07,0.6
0.29,-1.07,0.57
0.3,-1.07,0.52
0.3,-1.06,0.49
0.25,-1.05,0.46
0.17,-1.03,0.42
0.12,-1,0.38
0.09,-0.96,0.36
0.07,-0.92,0.37
0.07,-0.89,0.37
0.11,-0.89,0.35
0.14,-0.89,0.34
0.18,-0.9,0.31
0.21,-0.91,0.29
0.23,-0.92,0.28
0.25,-0.93,0.27
0.27,-0.94,0.26
0.31,-0.95,0.25
0.33,-0.96,0.24
0.34,-0.96,0.24
0.36,-0.97,0.23
0.38,-0.98,0.21
0.39,-0.97,0.2
0.41,-0.96,0.2
0.42,-0.94,0.2
0.42,-0.92,0.2
0.45,-0.92,0.2
0.43,-0.92,0.2
0.4,-0.94,0.23
0.37,-0.96,0.27
0.35,-0.95,0.31
0.34,-0.95,0.34
0.32,-0.97,0.35
0.3,-1,0.38
0.28,-1.03,0.42
0.28,-1.05,0.46
0.3,-1.06,0.47
0.34,-1.07,0.48
0.36,-1.07,0.52
0.36,-1.06,0.57
0.38,-1.07,0.58
0.39,-1.06,0.58
0.37,-1.05,0.62
0.35,-1.09,0.65
0.33,-1.12,0.66
0.31,-1.12,0.65
0.31,-1.13,0.68
0.32,-1.13,0.69
0.36,-1.11,0.68
0.37,-1.1,0.71
0.36,-1.11,0.73
0.39,-1.13,0.77
0.43,-1.11,0.82
0.45,-1.11,0.86
0.45,-1.11,0.87
0.42,-1.14,0.85
0.38,-1.21,0.83
0.38,-1.24,0.82
0.39,-1.23,0.83
0.4,-1.2,0.85
0.43,-1.15,0.86
0.44,-1.12,0.88
0.44,-1.1,0.87
0.44,-1.12,0.85
0.44,-1.13,0.83
0.43,-1.11,0.8
0.43,-1.1,0.77
0.44,-1.1,0.75
0.45,-1.1,0.73
0.46,-1.08,0.74
0.47,-1.04,0.75
0.5,-0.99,0.72
0.53,-0.94,0.68
0.55,-0.9,0.68
0.54,-0.9,0.68
0.52,-0.92,0.67
0.5,-0.92,0.67
0.47,-0.89,0.67
0.44,-0.73,0.66
0.45,-0.67,0.65
0.47,-0.63,0.66
0.44,-0.62,0.67
0.4,-0.62,0.71
0.36,-0.58,0.75
0.35,-0.52,0.75
0.36,-0.47,0.76
0.37,-0.43,0.75
0.37,-0.4,0.71
0.38,-0.37,0.7
0.38,-0.35,0.7
0.37,-0.34,0.68
0.33,-0.3,0.66
0.32,-0.24,0.64
0.33,-0.17,0.6
0.34,-0.14,0.57
0.33,-0.12,0.58
0.33,-0.11,0.57
0.33,-0.11,0.54
0.31,-0.09,0.52
0.32,-0.05,0.5
0.33,-0.02,0.46
0.35,0.02,0.39
0.34,0.03,0.38
0.31,0.04,0.36
0.32,0.11,0.34
0.32,0.14,0.32
0.35,0.15,0.32
0.35,0.13,0.32
0.34,0.09,0.3
0.32,0.08,0.3
0.3,0.11,0.31
0.31,0.17,0.31
0.34,0.2,0.32
0.38,0.21,0.32
0.38,0.2,0.33
0.37,0.19,0.36
0.36,0.18,0.39
0.34,0.18,0.39
0.33,0.17,0.4
0.32,0.17,0.4
0.33,0.17,0.42
0.34,0.17,0.44
0.34,0.16,0.45
0.33,0.15,0.47
0.32,0.15,0.48
0.31,0.15,0.48
0.32,0.14,0.46
0.32,0.13,0.42
0.31,0.1,0.37
0.29,0.04,0.39
0.31,-0.03,0.43
0.36,-0.03,0.44
0.4,-0.01,0.41
0.4,-0.02,0.37
0.39,-0.04,0.32
0.38,-0.09,0.25
0.35,-0.17,0.23
0.34,-0.24,0.27
0.41,-0.26,0.35
0.52,-0.27,0.38
0.58,-0.32,0.38
0.58,-0.36,0.36
0.57,-0.39,0.3
0.55,-0.45,0.23
0.51,-0.53,0.23
0.49,-0.64,0.32
0.57,-0.66,0.48
0.73,-0.59,0.59
0.85,-0.6,0.59
0.87,-0.69,0.53
0.79,-0.75,0.45
0.7,-0.81,0.41
0.6,-0.86,0.42
0.55,-0.93,0.49
0.62,-0.92,0.66
0.76,-0.83,0.81
0.89,-0.89,0.74
0.86,-0.96,0.65
0.81,-1.02,0.61
0.75,-1.08,0.61
0.71,-1.13,0.61
0.72,-1.17,0.7
0.81,-1.17,0.81
0.89,-1.14,0.83
0.89,-1.12,0.8
0.82,-1.09,0.8
0.74,-1.08,0.79
0.66,-1.07,0.79
0.59,-1.07,0.77
0.55,-1.09,0.74
0.57,-1.13,0.73
0.6,-1.17,0.73
0.65,-1.18,0.73
0.67,-1.15,0.75
0.66,-1.09,0.74
0.64,-1.03,0.71
0.61,-1.03,0.66
0.58,-1.07,0.63
0.55,-1.12,0.61
0.55,-1.15,0.59
0.56,-1.16,0.57
0.54,-1.17,0.58
0.53,-1.15,0.6
0.51,-1.13,0.58
0.49,-1.08,0.57
0.44,-1.07,0.56
0.39,-1.08,0.57
0.31,-1.08,0.56
0.23,-1.06,0.54
0.22,-1.02,0.54
0.26,-0.99,0.58
0.31,-0.99,0.61
0.37,-0.99,0.64
0.4,-0.98,0.67
0.43,-1.01,0.66
0.5,-1.04,0.63
0.53,-1.06,0.61
0.47,-1.08,0.59
0.33,-1.07,0.53
0.2,-1.04,0.43
0.09,-0.99,0.35
0.04,-0.97,0.3
0.05,-0.95,0.27
0.08,-0.93,0.23
0.12,-0.93,0.2
0.17,-0.92,0.16
0.21,-0.92,0.12
0.25,-0.92,0.08
0.27,-0.93,0.06
0.29,-0.94,0.06
0.31,-0.95,0.08
0.33,-0.95,0.09
0.35,-0.95,0.09
0.36,-0.95,0.1
0.35,-0.95,0.14
0.33,-0.93,0.18
0.32,-0.92,0.22
0.3,-0.92,0.27
0.3,-0.93,0.33
0.3,-0.96,0.37
0.31,-0.99,0.4
0.34,-1.03,0.44
0.36,-1.06,0.48
0.39,-1.08,0.51
0.41,-1.1,0.54
0.39,-1.11,0.56
0.35,-1.1,0.57
0.3,-1.1,0.59
0.27,-1.1,0.63
0.27,-1.09,0.66
0.27,-1.06,0.68
0.31,-1.06,0.73
0.35,-1.05,0.76
0.37,-1.04,0.75
0.34,-1.08,0.73
0.34,-1.09,0.71
0.41,-1.09,0.7
0.43,-1.13,0.72
0.37,-1.16,0.75
0.37,-1.16,0.77
0.38,-1.16,0.78
0.38,-1.15,0.79
0.41,-1.15,0.78
0.44,-1.2,0.77
0.45,-1.21,0.76
0.45,-1.23,0.75
0.44,-1.25,0.75
0.45,-1.22,0.74
0.44,-1.19,0.74
0.42,-1.17,0.75
0.43,-1.16,0.75
0.46,-1.15,0.75
0.48,-1.17,0.75
0.48,-1.18,0.76
0.48,-1.15,0.77
0.49,-1.08,0.75
0.49,-1.04,0.71
0.49,-1.04,0.72
0.49,-1.03,0.73
0.48,-1,0.73
0.47,-0.92,0.72
0.48,-0.89,0.71
0.48,-0.87,0.69
0.47,-0.86,0.67
0.46,-0.85,0.64
0.43,-0.83,0.62
0.4,-0.77,0.63
0.4,-0.7,0.63
0.44,-0.67,0.65
0.47,-0.65,0.69
0.47,-0.63,0.71
0.46,-0.6,0.7
0.44,-0.58,0.66
0.41,-0.53,0.62
0.39,-0.48,0.59
0.41,-0.45,0.57
0.41,-0.43,0.57
0.42,-0.39,0.59
0.4,-0.36,0.6
0.38,-0.33,0.59
0.36,-0.31,0.54
0.34,-0.27,0.5
0.34,-0.24,0.5
0.36,-0.21,0.5
0.38,-0.17,0.51
0.38,-0.13,0.51
0.36,-0.13,0.43
0.31,-0.09,0.41
0.29,-0.07,0.41
0.29,-0.04,0.41
0.29,0,0.42
0.29,0.03,0.45
0.29,0.08,0.48
0.32,0.12,0.48
0.32,0.14,0.46
0.3,0.15,0.41
0.3,0.16,0.37
0.29,0.15,0.38
0.3,0.14,0.41
0.32,0.14,0.42
0.33,0.15,0.43
0.33,0.15,0.44
0.33,0.15,0.43
0.32,0.15,0.41
0.33,0.15,0.39
0.34,0.15,0.38
0.35,0.15,0.38
0.37,0.15,0.38
0.39,0.15,0.39
0.4,0.14,0.4
0.4,0.12,0.41
0.39,0.11,0.43
0.38,0.1,0.44
0.37,0.09,0.44
0.36,0.07,0.44
0.35,0.05,0.42
0.37,0.02,0.39
0.39,-0.02,0.37
0.39,-0.04,0.39
0.41,-0.06,0.42
0.43,-0.07,0.46
0.43,-0.07,0.48
0.43,-0.08,0.46
0.42,-0.12,0.41
0.41,-0.19,0.39
0.4,-0.29,0.41
0.42,-0.34,0.47
0.46,-0.33,0.51
0.5,-0.3,0.53
0.52,-0.29,0.54
0.5,-0.3,0.52
0.46,-0.35,0.49
0.41,-0.45,0.51
0.41,-0.54,0.58
0.47,-0.58,0.66
0.56,-0.61,0.69
0.6,-0.63,0.7
0.61,-0.62,0.7
0.59,-0.63,0.7
0.46,-0.7,0.68
0.42,-0.77,0.7
0.42,-0.81,0.78
0.48,-0.82,0.84
0.56,-0.83,0.85
0.61,-0.86,0.81
0.61,-0.87,0.75
0.59,-0.89,0.71
0.54,-0.94,0.71
0.48,-0.99,0.77
0.48,-1,0.84
0.5,-0.99,0.85
0.51,-1.02,0.81
0.51,-1.08,0.77
0.48,-1.1,0.76
0.4,-1.07,0.78
0.35,-1.06,0.78
0.32,-1.06,0.76
0.32,-1.04,0.77
0.38,-1.02,0.76
0.45,-1.01,0.75
0.5,-1.02,0.73
0.51,-1.04,0.73
0.46,-1.04,0.75
0.41,-1.07,0.75
0.36,-1.1,0.71
0.28,-1.14,0.7
0.3,-1.16,0.69
0.34,-1.17,0.67
0.36,-1.17,0.64
0.38,-1.18,0.63
0.4,-1.19,0.66
0.39,-1.19,0.69
0.38,-1.17,0.7
0.37,-1.13,0.68
0.38,-1.1,0.65
0.36,-1.09,0.63
0.33,-1.08,0.62
0.32,-1.07,0.62
0.32,-1.07,0.62
0.33,-1.07,0.62
0.36,-1.07,0.61
0.37,-1.08,0.61
0.35,-1.08,0.6
0.31,-1.06,0.58
0.29,-1.06,0.55
0.27,-1.08,0.52
0.22,-1.09,0.51
0.2,-1.07,0.47
0.19,-1.07,0.43
0.16,-1.06,0.42
0.13,-1.05,0.37
0.12,-0.96,0.31
0.13,-0.92,0.26
0.13,-0.9,0.21
0.11,-0.9,0.18
0.12,-0.92,0.18
0.14,-0.92,0.18
0.14,-0.92,0.17
0.11,-0.93,0.16
0.11,-0.95,0.17
0.13,-0.96,0.21
0.14,-0.98,0.23
0.15,-0.98,0.24
0.17,-0.97,0.24
0.2,-0.97,0.23
0.23,-0.97,0.22
0.26,-0.96,0.22
0.28,-0.96,0.21
0.3,-0.95,0.22
0.31,-0.94,0.22
0.32,-0.94,0.21
0.33,-0.94,0.2
0.32,-0.94,0.22
0.3,-0.95,0.24
0.3,-0.97,0.25
0.3,-0.98,0.26
0.29,-1,0.27
0.3,-1.03,0.28
0.29,-1.04,0.29
0.28,-1.04,0.33
0.29,-1.05,0.4
0.31,-1.06,0.48
0.31,-1.06,0.53
0.26,-1.06,0.53
0.21,-1.05,0.52
0.18,-1.04,0.52
0.18,-1.05,0.54
0.21,-1.07,0.58
0.26,-1.09,0.6
0.31,-1.11,0.62
0.33,-1.11,0.65
0.34,-1.1,0.67
0.34,-1.11,0.67
0.35,-1.13,0.67
0.36,-1.15,0.68
0.36,-1.16,0.69
0.35,-1.15,0.68
0.35,-1.15,0.68
0.36,-1.15,0.69
0.38,-1.16,0.71
0.36,-1.18,0.71
0.37,-1.17,0.72
0.38,-1.16,0.71
0.38,-1.18,0.72
0.42,-1.18,0.74
0.41,-1.2,0.74
0.4,-1.16,0.73
0.42,-1.12,0.72
0.41,-1.13,0.73
0.41,-1.1,0.74
0.42,-1.09,0.78
0.4,-1.13,0.81
0.4,-1.12,0.82
0.39,-1.06,0.82
0.39,-1.01,0.83
0.41,-1.02,0.84
0.42,-1.06,0.87
0.41,-1.09,0.91
0.4,-1.05,0.92
0.36,-0.98,0.89
0.34,-0.88,0.86
0.35,-0.82,0.85
0.38,-0.81,0.84
0.38,-0.81,0.85
0.35,-0.8,0.85
0.34,-0.8,0.85
0.34,-0.79,0.84
0.35,-0.76,0.82
0.35,-0.72,0.77
0.33,-0.64,0.66
0.32,-0.62,0.62
0.35,-0.6,0.59
0.36,-0.57,0.57
0.37,-0.57,0.54
0.39,-0.57,0.49
0.4,-0.51,0.47
0.42,-0.46,0.49
0.43,-0.41,0.52
0.42,-0.36,0.54
0.4,-0.31,0.54
0.4,-0.26,0.53
0.39,-0.21,0.5
0.39,-0.16,0.45
0.39,-0.11,0.43
0.38,-0.08,0.47
0.35,-0.05,0.48
0.33,-0.01,0.48
0.32,0,0.44
0.31,0,0.39
0.31,0.02,0.36
0.32,0.05,0.33
0.34,0.08,0.3
0.36,0.09,0.28
0.37,0.12,0.26
0.39,0.15,0.25
0.42,0.17,0.28
0.43,0.17,0.29
0.44,0.17,0.27
0.43,0.16,0.27
0.41,0.16,0.27
0.4,0.16,0.28
0.4,0.15,0.3
0.39,0.12,0.32
0.37,0.11,0.33
0.34,0.1,0.34
0.33,0.11,0.35
0.34,0.11,0.38
0.35,0.11,0.41
0.36,0.11,0.45
0.38,0.11,0.48
0.4,0.12,0.51
0.4,0.11,0.55
0.37,0.09,0.56
0.34,0.06,0.55
0.32,0.04,0.52
0.31,0.02,0.51
0.33,0,0.51
0.37,-0.03,0.55
0.4,-0.06,0.59
0.42,-0.1,0.58
0.4,-0.13,0.57
0.38,-0.13,0.52
0.36,-0.18,0.52
0.34,-0.24,0.57
0.37,-0.24,0.6
0.43,-0.28,0.59
0.44,-0.34,0.56
0.43,-0.35,0.53
0.44,-0.36,0.49
0.43,-0.39,0.47
0.4,-0.44,0.52
0.41,-0.48,0.59
0.45,-0.5,0.62
0.45,-0.53,0.63
0.43,-0.56,0.6
0.43,-0.59,0.55
0.43,-0.63,0.51
0.41,-0.69,0.48
0.42,-0.76,0.52
0.45,-0.8,0.64
0.52,-0.77,0.73
0.62,-0.73,0.72
0.66,-0.75,0.68
0.63,-0.81,0.62
0.56,-0.9,0.56
0.5,-1,0.5
0.47,-1.09,0.5
0.49,-1.16,0.7
0.65,-1.13,0.77
0.68,-1.05,0.78
0.66,-1.01,0.74
0.62,-1.02,0.7
0.56,-1.05,0.68
0.5,-1.08,0.67
0.48,-1.13,0.69
0.46,-1.19,0.75
0.48,-1.23,0.83
0.53,-1.21,0.85
0.57,-1.2,0.84
0.55,-1.18,0.84
0.5,-1.16,0.86
0.44,-1.13,0.87
0.4,-1.13,0.84
0.36,-1.14,0.81
0.35,-1.15,0.8
0.38,-1.16,0.8
0.45,-1.17,0.8
0.48,-1.16,0.8
0.48,-1.13,0.81
0.5,-1.11,0.8
0.52,-1.11,0.76
0.49,-1.09,0.76
0.45,-1.08,0.76
0.43,-1.09,0.73
-0.3,-0.95,0.55
0.02,-0.9,0.39
0.23,-0.84,0.16
0.3,-0.86,0
0.35,-0.93,-0.14
0.42,-0.93,-0.23
0.46,-0.93,-0.24
0.47,-0.95,-0.21
0.47,-0.95,-0.18
0.5,-0.94,-0.16
0.5,-0.91,-0.14
0.43,-0.89,-0.1
0.35,-0.88,-0.06
0.34,-0.88,-0.05
0.36,-0.88,-0.05
0.35,-0.88,-0.05
0.36,-0.88,-0.05
0.38,-0.88,-0.04
0.41,-0.89,-0.01
0.43,-0.9,0.03
0.45,-0.91,0.07
0.46,-0.93,0.1
0.46,-0.94,0.12
0.45,-0.94,0.13
0.43,-0.94,0.15
0.41,-0.94,0.16
0.4,-0.94,0.17
0.38,-0.93,0.19
0.36,-0.94,0.22
0.34,-0.94,0.24
0.33,-0.94,0.26
0.34,-0.94,0.28
0.34,-0.94,0.32
0.33,-0.94,0.36
0.34,-0.94,0.4
0.34,-0.94,0.42
0.34,-0.95,0.43
0.33,-0.96,0.45
0.32,-0.96,0.47
0.32,-0.96,0.47
0.32,-0.97,0.47
0.31,-0.96,0.47
0.32,-0.96,0.45
0.32,-0.97,0.45
0.27,-0.98,0.47
0.29,-0.99,0.48
0.3,-0.97,0.48
0.29,-0.97,0.49
0.27,-0.97,0.49
0.29,-0.95,0.48
0.33,-0.96,0.49
0.34,-0.98,0.5
0.34,-1,0.5
0.33,-1.02,0.48
0.3,-1.04,0.48
0.31,-1.03,0.47
0.33,-1.05,0.44
0.3,-1.04,0.47
0.31,-1.02,0.52
0.35,-1.04,0.54
0.37,-1.04,0.54
0.37,-1.05,0.57
0.34,-1.07,0.6
0.33,-1.08,0.58
0.32,-1.07,0.55
0.34,-1.04,0.57
0.41,-1.02,0.67
0.46,-1.03,0.73
0.45,-1.04,0.73
0.4,-1.04,0.68
0.37,-1.07,0.69
0.37,-1.08,0.71
0.36,-1.06,0.73
0.37,-1.05,0.75
0.41,-1.05,0.74
0.41,-1.03,0.75
0.43,-1.03,0.75
0.46,-1.04,0.74
0.46,-1.03,0.73
0.44,-1.01,0.73
0.43,-1,0.74
0.44,-1,0.77
0.45,-0.99,0.8
0.46,-0.98,0.82
0.48,-0.97,0.86
0.5,-0.97,0.9
0.49,-1,0.92
0.46,-1,0.93
0.41,-0.93,0.92
0.41,-0.85,0.89
0.42,-0.78,0.88
0.44,-0.73,0.89
0.46,-0.71,0.9
0.46,-0.72,0.91
0.43,-0.76,0.87
0.41,-0.78,0.79
0.4,-0.72,0.79
0.41,-0.68,0.8
0.41,-0.63,0.79
0.41,-0.61,0.78
0.41,-0.58,0.76
0.44,-0.57,0.74
0.46,-0.58,0.71
0.48,-0.56,0.67
0.47,-0.54,0.66
0.45,-0.47,0.66
0.45,-0.39,0.67
0.45,-0.35,0.67
0.44,-0.35,0.65
0.44,-0.34,0.61
0.44,-0.3,0.54
0.45,-0.25,0.47
0.46,-0.21,0.47
0.47,-0.2,0.49
0.46,-0.2,0.49
0.42,-0.18,0.48
0.36,-0.13,0.44
0.35,-0.05,0.41
0.35,-0.01,0.42
0.37,0,0.44
0.35,0.01,0.46
0.33,0.04,0.45
0.33,0.12,0.4
0.33,0.16,0.39
0.3,0.17,0.4
0.29,0.15,0.4
0.29,0.14,0.41
0.27,0.17,0.43
0.26,0.19,0.43
0.25,0.2,0.41
0.27,0.22,0.38
0.29,0.23,0.35
0.3,0.22,0.32
0.31,0.21,0.31
0.31,0.19,0.33
0.32,0.18,0.34
0.33,0.18,0.34
0.32,0.18,0.36
0.32,0.18,0.37
0.32,0.18,0.39
0.32,0.18,0.39
0.31,0.18,0.39
0.29,0.17,0.37
0.29,0.14,0.36
0.28,0.12,0.38
0.29,0.12,0.39
0.31,0.11,0.37
0.34,0.08,0.31
0.35,-0.03,0.31
0.35,-0.09,0.34
0.39,-0.12,0.36
0.43,-0.11,0.39
0.46,-0.11,0.41
0.48,-0.11,0.39
0.5,-0.13,0.33
0.5,-0.21,0.27
0.47,-0.31,0.22
0.43,-0.41,0.22
0.41,-0.51,0.27
0.46,-0.55,0.36
0.58,-0.51,0.42
0.68,-0.49,0.44
0.69,-0.53,0.43
0.62,-0.6,0.36
0.54,-0.68,0.29
0.47,-0.76,0.25
0.43,-0.82,0.27
0.49,-0.85,0.42
0.63,-0.84,0.6
0.75,-0.82,0.68
0.76,-0.83,0.68
0.69,-0.87,0.67
0.61,-0.94,0.61
0.54,-1.01,0.51
0.57,-1.11,0.56
0.67,-1.15,0.64
0.77,-1.16,0.68
0.82,-1.16,0.74
0.8,-1.13,0.83
0.76,-1.09,0.86
0.69,-1.05,0.87
0.67,-1.03,0.88
0.69,-1.07,0.9
0.69,-1.18,0.89
0.68,-1.28,0.87
0.72,-1.36,0.85
0.8,-1.39,0.84
0.86,-1.38,0.83
0.87,-1.31,0.85
0.9,-1.23,0.88
0.94,-1.18,0.86
0.91,-1.14,0.82
0.82,-1.11,0.75
0.72,-1.09,0.66
0.64,-1.06,0.58
0.56,-1.05,0.54
0.48,-1.05,0.53
0.38,-1.05,0.54
0.34,-1.04,0.54
0.32,-1.07,0.53
0.26,-1.11,0.57
0.26,-1.09,0.57
0.26,-1.09,0.53
0.27,-1.08,0.5
0.29,-1.08,0.47
0.32,-1.1,0.45
0.37,-1.11,0.49
0.4,-1.12,0.57
0.46,-1.13,0.66
0.38,-1.1,0.72
0.27,-1.06,0.75
0.31,-1.04,0.8
0.36,-1.03,0.85
0.35,-1.01,0.85
0.28,-0.99,0.79
0.19,-0.99,0.68
0.15,-0.96,0.57
0.2,-0.92,0.48
0.21,-0.9,0.4
0.22,-0.9,0.33
0.26,-0.9,0.26
0.31,-0.9,0.21
0.33,-0.9,0.17
0.34,-0.91,0.13
0.36,-0.91,0.09
0.39,-0.91,0.06
0.41,-0.91,0.05
0.41,-0.9,0.04
0.41,-0.89,0.02
0.41,-0.88,0.02
0.4,-0.87,0.03
0.4,-0.88,0.04
0.4,-0.89,0.06
0.38,-0.9,0.07
0.37,-0.91,0.09
0.36,-0.92,0.11
0.36,-0.93,0.12
0.37,-0.93,0.13
0.37,-0.94,0.14
0.37,-0.94,0.14
0.38,-0.94,0.15
0.39,-0.95,0.16
0.39,-0.95,0.18
0.39,-0.95,0.23
0.38,-0.97,0.29
0.37,-0.99,0.32
0.35,-1,0.35
0.3,-0.99,0.38
0.27,-0.97,0.42
0.26,-0.96,0.46
0.26,-0.96,0.48
0.26,-0.97,0.51
0.26,-1.02,0.61
0.24,-1.07,0.65
0.24,-1.09,0.68
0.25,-1.08,0.66
0.25,-1.08,0.67
0.23,-1.06,0.72
0.24,-1.04,0.75
0.27,-1.03,0.79
0.29,-1.04,0.82
0.3,-1.08,0.89
0.33,-1.12,0.93
0.34,-1.15,0.91
0.31,-1.18,0.89
0.28,-1.17,0.88
0.27,-1.18,0.93
0.29,-1.18,0.95
0.31,-1.19,0.95
0.33,-1.23,0.98
0.35,-1.27,0.96
0.36,-1.27,0.92
0.37,-1.23,0.87
0.41,-1.18,0.85
0.48,-1.16,0.88
0.57,-1.2,0.94
0.61,-1.25,0.99
0.59,-1.29,1
0.54,-1.29,0.9
0.41,-1.27,0.85
0.35,-1.23,0.82
0.32,-1.19,0.79
0.31,-1.17,0.77
0.32,-1.15,0.77
0.34,-1.11,0.79
0.36,-1.09,0.79
0.38,-1.06,0.78
0.39,-1.02,0.77
0.38,-0.98,0.73
0.35,-0.93,0.68
0.3,-0.88,0.62
0.25,-0.85,0.59
0.25,-0.82,0.6
0.29,-0.76,0.62
0.33,-0.71,0.64
0.35,-0.68,0.63
0.35,-0.65,0.64
0.32,-0.61,0.63
0.28,-0.55,0.57
0.27,-0.48,0.5
0.29,-0.43,0.5
0.32,-0.4,0.56
0.33,-0.36,0.59
0.32,-0.34,0.6
0.28,-0.32,0.55
0.22,-0.22,0.52
0.23,-0.18,0.51
0.28,-0.17,0.55
0.31,-0.15,0.57
0.3,-0.14,0.55
0.26,-0.11,0.52
0.21,-0.06,0.49
0.18,-0.02,0.48
0.18,0.01,0.5
0.21,0.05,0.49
0.24,0.06,0.45
0.24,0.06,0.41
0.25,0.06,0.38
0.25,0.09,0.37
0.25,0.13,0.34
0.27,0.16,0.31
0.29,0.17,0.31
0.32,0.19,0.31
0.33,0.19,0.32
0.31,0.19,0.34
0.29,0.19,0.35
0.28,0.2,0.35
0.28,0.21,0.36
0.27,0.23,0.37
0.29,0.22,0.38
0.3,0.2,0.44
0.31,0.16,0.45
0.31,0.16,0.46
0.29,0.15,0.5
0.27,0.16,0.52
0.28,0.15,0.53
0.28,0.14,0.54
0.28,0.13,0.54
0.29,0.1,0.53
0.3,0.08,0.51
0.29,0.05,0.49
0.28,0.01,0.51
0.29,0,0.53
0.32,0.01,0.54
0.35,0.01,0.53
0.34,-0.02,0.5
0.33,-0.06,0.45
0.31,-0.12,0.4
0.3,-0.19,0.39
0.3,-0.26,0.42
0.34,-0.27,0.45
0.42,-0.24,0.49
0.51,-0.24,0.5
0.51,-0.28,0.48
0.45,-0.33,0.42
0.38,-0.4,0.36
0.33,-0.48,0.33
0.38,-0.58,0.45
0.54,-0.57,0.57
0.66,-0.61,0.64
0.64,-0.66,0.63
0.54,-0.71,0.56
0.47,-0.75,0.48
0.39,-0.79,0.44
0.32,-0.84,0.43
0.32,-0.88,0.52
0.45,-0.89,0.67
0.64,-0.91,0.76
0.75,-0.95,0.76
0.7,-1.01,0.72
0.58,-1.04,0.69
0.48,-1.06,0.67
0.42,-1.1,0.67
0.41,-1.14,0.69
0.46,-1.15,0.73
0.56,-1.16,0.77
0.65,-1.18,0.8
0.7,-1.2,0.83
0.73,-1.21,0.84
0.7,-1.23,0.81
0.65,-1.26,0.77
0.6,-1.31,0.74
0.55,-1.36,0.72
0.51,-1.38,0.72
0.54,-1.37,0.72
0.56,-1.35,0.72
0.55,-1.3,0.76
0.59,-1.23,0.78
0.64,-1.22,0.73
0.6,-1.25,0.7
0.55,-1.28,0.67
0.53,-1.31,0.62
0.5,-1.31,0.61
0.44,-1.24,0.63
0.42,-1.16,0.7
0.41,-1.14,0.72
0.38,-1.14,0.71
0.32,-1.14,0.74
0.27,-1.15,0.76
0.27,-1.16,0.77
0.32,-1.16,0.74
0.33,-1.17,0.7
0.25,-1.2,0.71
0.22,-1.22,0.68
0.21,-1.19,0.63
0.17,-1.14,0.59
0.14,-1.07,0.55
0.13,-1.03,0.5
0.11,-0.98,0.43
0.14,-0.91,0.42
0.17,-0.88,0.4
0.17,-0.86,0.37
0.17,-0.85,0.35
0.16,-0.85,0.34
0.18,-0.84,0.33
0.23,-0.84,0.32
0.28,-0.84,0.29
0.33,-0.86,0.26
0.37,-0.88,0.24
0.41,-0.89,0.23
0.43,-0.9,0.21
0.45,-0.89,0.2
0.45,-0.87,0.2
0.46,-0.86,0.19
0.46,-0.86,0.18
0.45,-0.88,0.17
0.45,-0.89,0.16
0.46,-0.9,0.15
0.45,-0.9,0.14
0.44,-0.89,0.15
0.45,-0.88,0.15
0.47,-0.88,0.16
0.47,-0.88,0.17
0.47,-0.89,0.17
0.45,-0.89,0.2
0.42,-0.91,0.24
0.41,-0.93,0.27
0.39,-0.96,0.29
0.37,-0.99,0.3
0.33,-1.01,0.33
0.3,-1.02,0.36
0.29,-1.01,0.39
0.32,-0.99,0.42
0.36,-0.99,0.44
0.4,-1.01,0.44
0.41,-1.04,0.44
0.4,-1.07,0.46
0.37,-1.08,0.49
0.32,-1.06,0.5
0.29,-1.03,0.51
0.27,-1.02,0.54
0.25,-1.05,0.57
0.25,-1.09,0.62
0.27,-1.12,0.66
0.29,-1.14,0.68
0.33,-1.12,0.69
0.38,-1.1,0.66
0.4,-1.08,0.67
0.38,-1.09,0.73
0.39,-1.1,0.8
0.38,-1.13,0.84
0.34,-1.17,0.85
0.29,-1.18,0.86
0.28,-1.2,0.88
0.28,-1.2,0.87
0.31,-1.2,0.87
0.37,-1.2,0.89
0.41,-1.21,0.9
0.42,-1.23,0.88
0.42,-1.28,0.85
0.4,-1.3,0.84
0.4,-1.25,0.83
0.42,-1.2,0.84
0.44,-1.19,0.88
0.46,-1.26,0.93
0.45,-1.34,0.95
0.41,-1.33,0.88
0.37,-1.24,0.79
0.35,-1.11,0.74
0.36,-1,0.74
0.38,-0.94,0.8
0.41,-0.93,0.84
0.42,-0.9,0.84
0.4,-0.86,0.8
0.39,-0.84,0.72
0.39,-0.83,0.65
0.4,-0.84,0.6
0.41,-0.82,0.54
0.43,-0.74,0.51
0.47,-0.66,0.48
0.53,-0.62,0.46
0.57,-0.62,0.44
0.58,-0.6,0.42
0.55,-0.56,0.42
0.5,-0.49,0.43
0.45,-0.41,0.41
0.42,-0.35,0.36
0.41,-0.32,0.3
0.42,-0.29,0.28
0.44,-0.24,0.31
0.46,-0.19,0.32
0.43,-0.17,0.31
0.37,-0.14,0.3
0.33,-0.12,0.26
0.32,-0.1,0.25
0.32,-0.06,0.25
0.33,-0.02,0.27
0.34,0.01,0.26
0.33,0.04,0.25
0.32,0.06,0.26
0.31,0.07,0.27
0.31,0.08,0.26
0.31,0.09,0.25
0.29,0.06,0.31
0.28,0.06,0.33
0.29,0.06,0.35
0.27,0.06,0.37
0.26,0.05,0.37
0.24,0.03,0.35
0.23,0.01,0.36
0.22,0.01,0.37
0.23,0.01,0.38
0.25,0,0.4
0.27,-0.01,0.43
0.28,-0.03,0.45
0.28,-0.06,0.46
0.29,-0.08,0.47
0.31,-0.1,0.47
0.32,-0.12,0.49
0.33,-0.14,0.49
0.33,-0.17,0.5
0.33,-0.19,0.51
0.34,-0.21,0.53
0.35,-0.21,0.54
0.37,-0.22,0.54
0.37,-0.26,0.54
0.36,-0.3,0.57
0.35,-0.32,0.59
0.37,-0.36,0.6
0.41,-0.4,0.64
0.48,-0.47,0.63
0.47,-0.5,0.59
0.44,-0.56,0.55
0.42,-0.63,0.54
0.42,-0.66,0.6
0.48,-0.65,0.69
0.56,-0.66,0.73
0.58,-0.68,0.75
0.54,-0.69,0.74
0.5,-0.71,0.67
0.48,-0.76,0.6
0.45,-0.83,0.57
0.47,-0.9,0.63
0.52,-0.91,0.72
0.6,-0.9,0.78
0.64,-0.93,0.78
0.62,-0.97,0.75
0.56,-0.98,0.7
0.47,-0.99,0.66
0.41,-1,0.63
0.4,-1.03,0.62
0.43,-1.04,0.67
0.5,-1.03,0.73
0.57,-1.01,0.77
0.61,-1,0.79
0.62,-1.02,0.75
0.5,-1.09,0.72
0.44,-1.15,0.7
0.4,-1.2,0.7
0.4,-1.21,0.71
0.44,-1.21,0.72
0.48,-1.21,0.74
0.51,-1.2,0.76
0.51,-1.19,0.78
0.48,-1.17,0.8
0.45,-1.16,0.8
0.43,-1.15,0.79
0.41,-1.13,0.78
0.4,-1.11,0.76
0.41,-1.12,0.73
0.41,-1.15,0.74
0.39,-1.16,0.76
0.39,-1.14,0.78
0.41,-1.12,0.8
0.41,-1.12,0.8
0.39,-1.13,0.78
0.37,-1.13,0.74
0.36,-1.13,0.69
0.35,-1.13,0.66
0.34,-1.12,0.66
0.34,-1.09,0.65
0.37,-1.06,0.61
0.38,-0.94,0.59
0.38,-0.9,0.55
0.37,-0.85,0.51
0.34,-0.82,0.47
0.29,-0.79,0.44
0.23,-0.78,0.4
0.19,-0.79,0.35
0.17,-0.8,0.32
0.17,-0.81,0.32
0.15,-0.82,0.34
0.16,-0.84,0.33
0.19,-0.86,0.3
0.24,-0.88,0.26
0.29,-0.89,0.23
0.35,-0.89,0.19
0.39,-0.89,0.17
0.41,-0.88,0.17
0.4,-0.88,0.16
0.41,-0.88,0.17
0.42,-0.87,0.19
0.42,-0.85,0.21
0.42,-0.84,0.24
0.44,-0.83,0.25
0.45,-0.83,0.26
0.46,-0.82,0.27
0.49,-0.82,0.28
0.5,-0.8,0.29
0.5,-0.79,0.29
0.5,-0.79,0.29
0.51,-0.79,0.29
0.51,-0.79,0.29
0.51,-0.8,0.29
0.5,-0.81,0.3
0.49,-0.83,0.3
0.5,-0.85,0.3
0.48,-0.87,0.31
0.46,-0.9,0.33
0.46,-0.91,0.33
0.41,-0.91,0.35
0.37,-0.93,0.36
0.35,-0.95,0.38
0.29,-0.95,0.39
0.22,-0.96,0.43
0.18,-0.98,0.47
0.14,-0.99,0.5
0.12,-1.01,0.51
0.11,-1.04,0.51
0.1,-1.07,0.52
0.1,-1.09,0.54
0.11,-1.08,0.57
0.1,-1.08,0.58
0.08,-1.08,0.65
0.04,-1.11,0.68
0,-1.14,0.72
0.02,-1.14,0.73
0.03,-1.12,0.75
0.04,-1.09,0.78
0.06,-1.07,0.83
0.09,-1.07,0.89
0.1,-1.11,0.93
0.07,-1.17,0.94
0.03,-1.22,0.94
-0.01,-1.24,0.92
0,-1.25,0.93
0.04,-1.27,0.97
0.09,-1.29,0.99
0.11,-1.29,0.99
0.1,-1.26,0.99
0.1,-1.28,0.97
0.11,-1.3,0.93
0.1,-1.27,0.91
0.1,-1.26,0.93
0.08,-1.25,0.99
0.06,-1.22,1
0.06,-1.2,0.98
0.01,-1.19,0.94
-0.03,-1.17,0.89
-0.04,-1.17,0.86
0.03,-1.22,0.84
0.11,-1.21,0.81
0.16,-1.18,0.77
0.21,-1.14,0.75
0.25,-1.1,0.74
0.28,-1.05,0.72
0.27,-1,0.7
0.25,-0.97,0.69
0.22,-0.95,0.67
0.22,-0.92,0.63
0.24,-0.86,0.62
0.28,-0.79,0.63
0.31,-0.73,0.65
0.31,-0.69,0.66
0.28,-0.65,0.63
0.24,-0.62,0.59
0.23,-0.57,0.56
0.25,-0.51,0.54
0.29,-0.46,0.52
0.31,-0.42,0.52
0.31,-0.38,0.52
0.3,-0.35,0.51
0.27,-0.32,0.51
0.26,-0.28,0.52
0.27,-0.24,0.5
0.29,-0.19,0.48
0.29,-0.11,0.48
0.27,-0.09,0.48
0.25,-0.09,0.48
0.24,-0.1,0.45
0.25,-0.09,0.41
0.25,-0.04,0.4
0.26,0.01,0.44
0.26,0.03,0.5
0.25,0.03,0.54
0.23,0.05,0.54
0.21,0.06,0.52
0.19,0.05,0.51
0.17,0.09,0.5
0.18,0.13,0.49
0.22,0.13,0.49
0.23,0.13,0.52
0.24,0.12,0.52
0.26,0.1,0.5
0.26,0.07,0.48
0.21,0.05,0.47
0.17,0.03,0.43
0.16,0.02,0.44
0.17,0.03,0.46
0.19,0.03,0.49
0.21,0.04,0.5
0.22,0.03,0.5
0.21,0.01,0.51
0.2,-0.01,0.52
0.19,-0.04,0.51
0.19,-0.06,0.49
0.19,-0.08,0.46
0.19,-0.1,0.44
0.19,-0.15,0.44
0.18,-0.21,0.45
0.17,-0.23,0.47
0.19,-0.22,0.47
0.23,-0.23,0.46
0.25,-0.24,0.45
0.29,-0.3,0.41
0.32,-0.4,0.4
0.28,-0.49,0.44
0.22,-0.52,0.51
0.21,-0.5,0.52
0.23,-0.5,0.5
0.26,-0.53,0.53
0.32,-0.59,0.58
0.37,-0.66,0.6
0.36,-0.69,0.56
0.34,-0.72,0.5
0.32,-0.79,0.49
0.3,-0.89,0.57
0.35,-0.92,0.68
0.45,-0.91,0.66
0.49,-0.95,0.62
0.45,-1.01,0.57
0.43,-1.09,0.56
0.4,-1.16,0.62
0.42,-1.18,0.69
0.49,-1.14,0.72
0.54,-1.12,0.74
0.55,-1.19,0.78
0.54,-1.26,0.79
0.51,-1.29,0.75
0.47,-1.34,0.7
0.43,-1.4,0.72
0.43,-1.41,0.76
0.47,-1.35,0.77
0.5,-1.29,0.79
0.51,-1.23,0.85
0.5,-1.21,0.92
0.47,-1.21,0.93
0.44,-1.23,0.92
0.4,-1.25,0.92
0.37,-1.27,0.94
0.38,-1.29,0.93
0.41,-1.3,0.93
0.46,-1.27,0.91
0.48,-1.22,0.88
0.53,-1.17,0.85
0.53,-1.12,0.84
0.55,-1.12,0.82
0.56,-1.12,0.82
0.54,-1.15,0.83
0.5,-1.18,0.84
0.47,-1.2,0.84
0.44,-1.22,0.82
0.36,-1.23,0.78
0.26,-1.25,0.74
0.18,-1.23,0.72
0.11,-1.18,0.69
0.1,-1.11,0.63
0.09,-1.04,0.54
0.04,-0.96,0.5
0.02,-0.91,0.47
0.01,-0.86,0.44
0.01,-0.83,0.42
0.04,-0.81,0.39
0.09,-0.8,0.36
0.14,-0.81,0.32
0.19,-0.84,0.27
0.26,-0.86,0.23
0.32,-0.88,0.19
0.35,-0.88,0.18
0.37,-0.88,0.17
0.37,-0.88,0.15
0.37,-0.88,0.14
0.38,-0.88,0.14
0.38,-0.87,0.15
0.41,-0.87,0.16
0.43,-0.86,0.16
0.44,-0.85,0.17
0.45,-0.84,0.17
0.45,-0.84,0.18
0.46,-0.84,0.19
0.44,-0.85,0.2
0.41,-0.87,0.2
0.4,-0.88,0.21
0.4,-0.9,0.21
0.39,-0.92,0.23
0.39,-0.93,0.25
0.39,-0.94,0.27
0.39,-0.96,0.31
0.39,-0.98,0.33
0.38,-0.99,0.35
0.37,-0.99,0.37
0.34,-0.98,0.39
0.3,-0.99,0.43
0.27,-0.99,0.5
0.26,-1,0.53
0.26,-1.03,0.56
0.25,-1.04,0.58
0.19,-1.06,0.58
0.16,-1.05,0.6
0.15,-1.01,0.68
0.15,-1.02,0.72
0.17,-1.06,0.75
0.21,-1.08,0.84
0.21,-1.12,0.89
0.22,-1.14,0.88
0.2,-1.13,0.87
0.17,-1.11,0.87
0.17,-1.12,0.87
0.2,-1.14,0.89
0.23,-1.16,0.93
0.24,-1.19,0.95
0.25,-1.21,0.97
0.24,-1.21,1.03
0.19,-1.23,1.04
0.15,-1.24,0.99
0.12,-1.25,0.96
0.1,-1.25,0.98
0.12,-1.28,1
0.15,-1.31,0.98
0.19,-1.35,0.98
0.22,-1.37,1
0.21,-1.3,0.97
0.17,-1.2,0.86
0.17,-1.12,0.84
0.2,-1.14,0.82
0.24,-1.17,0.84
0.28,-1.19,0.88
0.3,-1.17,0.87
0.29,-1.12,0.82
0.27,-1.08,0.76
0.25,-1.03,0.7
0.26,-0.98,0.69
0.31,-0.97,0.7
0.35,-0.98,0.7
0.37,-0.96,0.68
0.35,-0.9,0.65
0.3,-0.81,0.61
0.27,-0.76,0.55
0.28,-0.72,0.49
0.31,-0.69,0.5
0.34,-0.65,0.55
0.32,-0.59,0.59
0.27,-0.53,0.62
0.25,-0.5,0.59
0.26,-0.45,0.53
0.27,-0.4,0.47
0.28,-0.38,0.45
0.26,-0.37,0.46
0.23,-0.34,0.54
0.21,-0.24,0.57
0.19,-0.22,0.56
0.18,-0.19,0.51
0.19,-0.15,0.46
0.21,-0.11,0.44
0.22,-0.07,0.45
0.23,-0.04,0.46
0.24,-0.04,0.45
0.24,-0.04,0.43
0.23,-0.02,0.37
0.22,0.03,0.33
0.22,0.08,0.32
0.25,0.09,0.32
0.27,0.09,0.31
0.29,0.06,0.3
0.3,0.01,0.29
0.3,0.03,0.3
0.28,0.08,0.31
0.27,0.11,0.3
0.27,0.12,0.3
0.28,0.1,0.31
0.28,0.07,0.32
0.28,0.03,0.35
0.26,0.01,0.37
0.24,0.02,0.39
0.22,0.02,0.4
0.22,0.02,0.46
0.23,0.01,0.47
0.24,-0.01,0.46
0.22,-0.05,0.46
0.19,-0.08,0.47
0.2,-0.1,0.49
0.24,-0.13,0.5
0.26,-0.16,0.49
0.27,-0.18,0.47
0.29,-0.2,0.43
0.29,-0.24,0.41
0.28,-0.28,0.44
0.3,-0.32,0.48
0.36,-0.36,0.51
0.41,-0.41,0.51
0.43,-0.45,0.51
0.43,-0.48,0.47
0.44,-0.52,0.38
0.43,-0.56,0.31
0.41,-0.64,0.34
0.43,-0.72,0.45
0.52,-0.72,0.57
0.6,-0.72,0.64
0.62,-0.73,0.65
0.58,-0.76,0.6
0.54,-0.79,0.54
0.48,-0.92,0.43
0.43,-0.98,0.46
0.49,-0.98,0.56
0.62,-0.98,0.61
0.72,-1.03,0.61
0.72,-1.08,0.61
0.66,-1.14,0.59
0.6,-1.21,0.56
0.53,-1.26,0.54
0.47,-1.31,0.53
0.46,-1.35,0.55
0.53,-1.32,0.59
0.6,-1.27,0.63
0.66,-1.24,0.65
0.72,-1.2,0.66
0.74,-1.19,0.64
0.71,-1.21,0.62
0.66,-1.26,0.59
0.63,-1.31,0.58
0.58,-1.36,0.6
0.54,-1.36,0.66
0.56,-1.32,0.71
0.62,-1.28,0.73
0.64,-1.25,0.74
0.62,-1.23,0.75
0.62,-1.25,0.74
0.62,-1.3,0.72
0.56,-1.33,0.71
0.53,-1.31,0.73
0.49,-1.29,0.76
0.46,-1.25,0.76
0.41,-1.23,0.76
0.37,-1.19,0.77
0.43,-1.15,0.75
0.5,-1.12,0.74
0.52,-1.1,0.72
0.5,-1.1,0.7
0.47,-1.08,0.71
0.4,-1.07,0.72
0.34,-1.05,0.67
0.26,-1,0.59
0.13,-0.95,0.54
0.04,-0.9,0.51
-0.01,-0.86,0.51
0.03,-0.84,0.48
0.12,-0.83,0.42
0.17,-0.82,0.36
0.21,-0.82,0.29
0.29,-0.84,0.2
0.38,-0.85,0.12
0.42,-0.87,0.09
0.42,-0.91,0.07
0.43,-0.94,0.06
0.45,-0.94,0.06
0.45,-0.93,0.07
0.46,-0.91,0.07
0.46,-0.89,0.07
0.47,-0.88,0.06
0.47,-0.88,0.06
0.46,-0.88,0.05
0.46,-0.88,0.06
0.46,-0.87,0.06
0.46,-0.87,0.08
0.46,-0.86,0.11
0.46,-0.86,0.12
0.45,-0.86,0.12
0.43,-0.87,0.12
0.42,-0.88,0.14
0.43,-0.89,0.13
0.43,-0.91,0.12
0.43,-0.92,0.15
0.43,-0.93,0.19
0.41,-0.94,0.22
0.35,-0.94,0.26
0.31,-0.95,0.29
0.29,-0.96,0.3
0.28,-0.98,0.32
0.27,-1,0.35
0.26,-1.02,0.44
0.26,-1.06,0.46
0.29,-1.09,0.46
0.28,-1.11,0.46
0.22,-1.12,0.48
0.13,-1.12,0.51
0.08,-1.11,0.56
0.08,-1.1,0.6
0.13,-1.02,0.7
0.1,-1.04,0.73
0.07,-1.14,0.67
0.15,-1.13,0.66
0.21,-1.13,0.65
0.2,-1.15,0.67
0.18,-1.14,0.72
0.18,-1.14,0.78
0.2,-1.16,0.82
0.19,-1.2,0.82
0.17,-1.23,0.82
0.13,-1.23,0.85
0.13,-1.23,0.87
0.17,-1.25,0.85
0.19,-1.28,0.86
0.18,-1.29,0.91
0.2,-1.3,0.94
0.22,-1.28,0.93
0.22,-1.3,0.93
0.23,-1.43,0.95
0.22,-1.47,0.98
0.22,-1.42,1.01
0.23,-1.29,1.01
0.25,-1.19,1.01
0.23,-1.16,1.01
0.19,-1.15,0.97
0.18,-1.16,0.91
0.17,-1.15,0.85
0.17,-1.17,0.79
0.19,-1.17,0.76
0.22,-1.14,0.74
0.26,-1.09,0.72
0.3,-1.04,0.68
0.34,-1.02,0.64
0.36,-1,0.6
0.36,-0.95,0.55
0.37,-0.89,0.5
0.37,-0.83,0.47
0.39,-0.78,0.44
0.42,-0.74,0.4
0.45,-0.71,0.4
0.45,-0.68,0.43
0.4,-0.61,0.48
0.35,-0.52,0.52
0.32,-0.45,0.51
0.33,-0.37,0.51
0.34,-0.34,0.53
0.34,-0.33,0.56
0.34,-0.31,0.55
0.32,-0.28,0.53
0.29,-0.24,0.52
0.26,-0.19,0.51
0.23,-0.16,0.51
0.21,-0.15,0.54
0.22,-0.15,0.57
0.24,-0.12,0.6
0.24,-0.08,0.59
0.22,-0.04,0.55
0.18,-0.02,0.48
0.12,-0.02,0.42
0.08,-0.02,0.38
0.07,-0.01,0.39
0.07,0.02,0.44
0.07,0.06,0.47
0.09,0.09,0.47
0.1,0.08,0.44
0.1,0.08,0.42
0.12,0.08,0.38
0.14,0.07,0.34
0.15,0.06,0.3
0.17,0.06,0.25
0.18,0.05,0.24
0.18,0.05,0.25
0.21,0.06,0.28
0.25,0.05,0.33
0.26,0.03,0.36
0.24,0.01,0.37
0.23,-0.02,0.37
0.21,-0.06,0.35
0.18,-0.09,0.31
0.17,-0.09,0.29
0.18,-0.09,0.3
0.21,-0.12,0.34
0.22,-0.17,0.37
0.24,-0.24,0.36
0.22,-0.33,0.35
0.14,-0.4,0.39
0.09,-0.42,0.48
0.13,-0.39,0.58
0.18,-0.38,0.63
0.21,-0.38,0.65
0.21,-0.41,0.63
0.19,-0.48,0.59
0.14,-0.6,0.6
0.12,-0.67,0.65
0.16,-0.68,0.7
0.18,-0.68,0.79
0.21,-0.68,0.76
0.21,-0.71,0.7
0.21,-0.74,0.64
0.21,-0.85,0.57
0.22,-0.96,0.6
0.28,-0.99,0.7
0.38,-0.99,0.77
0.44,-0.93,0.82
0.45,-0.92,0.79
0.43,-0.95,0.73
0.38,-1,0.68
0.36,-1.07,0.64
0.36,-1.15,0.63
0.36,-1.22,0.66
0.37,-1.23,0.71
0.42,-1.2,0.71
0.45,-1.19,0.68
0.44,-1.2,0.67
0.42,-1.24,0.65
0.4,-1.28,0.63
0.4,-1.32,0.57
0.4,-1.4,0.49
0.39,-1.48,0.47
0.38,-1.53,0.5
0.37,-1.5,0.57
0.36,-1.42,0.62
0.38,-1.29,0.61
0.39,-1.27,0.61
0.43,-1.29,0.62
0.47,-1.32,0.6
0.45,-1.36,0.6
0.38,-1.39,0.64
0.39,-1.4,0.67
0.4,-1.41,0.68
0.35,-1.4,0.68
0.31,-1.39,0.69
0.28,-1.4,0.68
0.5,-1.3,0.74
0.7,-1.33,0.96
0.54,-1.35,1.19
0.45,-1.28,1.38
0.09,-1.44,1.37
-0.56,-1.49,1.03
-0.87,-1.27,0.77
-0.95,-1.09,0.64
-0.85,-1.01,0.61
-0.64,-0.92,0.6
-0.37,-0.86,0.47
-0.11,-0.82,0.3
0.09,-0.79,0.19
0.25,-0.82,0.12
0.38,-0.84,0.1
0.46,-0.91,0.07
0.46,-0.92,0.05
0.41,-0.93,0.04
0.38,-0.93,0.04
0.35,-0.92,0.05
0.35,-0.91,0.06
0.37,-0.89,0.08
0.37,-0.88,0.08
0.38,-0.88,0.08
0.38,-0.87,0.1
0.38,-0.86,0.12
0.39,-0.86,0.13
0.4,-0.87,0.15
0.41,-0.88,0.16
0.4,-0.89,0.16
0.39,-0.9,0.16
0.37,-0.9,0.16
0.37,-0.9,0.16
0.36,-0.9,0.16
0.36,-0.9,0.16
0.36,-0.9,0.16
0.34,-0.9,0.17
0.33,-0.9,0.18
0.34,-0.91,0.19
0.35,-0.91,0.21
0.35,-0.92,0.22
0.35,-0.95,0.24
0.35,-0.97,0.25
0.33,-0.97,0.27
0.32,-0.99,0.27
0.33,-0.99,0.27
0.32,-0.97,0.27
0.31,-0.97,0.25
0.31,-0.96,0.22
0.32,-0.95,0.19
0.31,-0.94,0.16
0.27,-0.91,0.16
0.23,-0.88,0.19
0.22,-0.87,0.22
0.24,-0.88,0.23
0.26,-0.91,0.23
0.27,-0.94,0.23
0.28,-0.98,0.23
0.3,-1.02,0.23
0.32,-1.05,0.24
0.35,-1.06,0.25
0.37,-1.06,0.25
0.36,-1.02,0.28
0.33,-0.99,0.38
0.47,-1,0.52
0.62,-0.95,0.64
0.57,-0.9,0.7
0.51,-0.89,0.52
0.52,-0.88,0.41
0.58,-0.86,0.34
0.61,-0.83,0.3
0.59,-0.81,0.28
0.54,-0.79,0.26
0.5,-0.76,0.26
0.48,-0.74,0.25
0.5,-0.74,0.22
0.5,-0.75,0.21
0.49,-0.77,0.21
0.51,-0.77,0.21
0.55,-0.78,0.21
0.56,-0.78,0.24
0.59,-0.79,0.26
0.61,-0.81,0.29
0.61,-0.84,0.34
0.59,-0.88,0.38
0.54,-0.9,0.4
0.51,-0.88,0.42
0.56,-0.86,0.47
0.65,-0.88,0.53
0.7,-0.88,0.49
0.73,-0.86,0.37
0.72,-0.84,0.23
0.67,-0.82,0.11
0.62,-0.83,0.03
0.58,-0.9,0.04
0.56,-0.96,0.07
0.55,-0.99,0.1
0.54,-0.98,0.14
0.55,-0.95,0.16
0.57,-0.9,0.15
0.57,-0.85,0.14
0.57,-0.79,0.12
0.57,-0.75,0.1
0.55,-0.73,0.09
0.51,-0.73,0.1
0.48,-0.73,0.11
0.45,-0.73,0.11
0.44,-0.72,0.11
0.42,-0.71,0.11
0.4,-0.71,0.11
0.4,-0.71,0.11
0.4,-0.71,0.11
0.41,-0.72,0.12
0.43,-0.74,0.12
0.44,-0.76,0.13
0.45,-0.78,0.13
0.45,-0.8,0.14
0.45,-0.81,0.15
0.45,-0.83,0.16
0.44,-0.84,0.17
0.41,-0.87,0.18
0.41,-0.89,0.18
0.4,-0.9,0.18
0.38,-0.91,0.18
0.35,-0.92,0.18
0.33,-0.92,0.17
0.33,-0.93,0.17
0.33,-0.94,0.18
0.33,-0.96,0.18
0.32,-0.98,0.19
0.31,-1,0.2
0.31,-1.02,0.2
0.29,-1.04,0.19
0.27,-1.05,0.17
0.24,-1.07,0.15
0.21,-1.09,0.14
0.19,-1.1,0.15
0.18,-1.12,0.15
0.17,-1.14,0.16
0.18,-1.16,0.16
0.19,-1.18,0.17
0.21,-1.19,0.16
0.21,-1.23,0.14
0.21,-1.29,0.11
0.21,-1.39,0.08
0.21,-1.48,0.04
0.19,-1.48,0.05
0.16,-1.37,0.06
0.16,-1.27,0.07
0.19,-1.2,0.06
0.21,-1.15,0.06
0.2,-1.09,0.07
0.19,-1.01,0.07
0.19,-0.93,0.07
0.18,-0.87,0.06
0.17,-0.85,0.04
0.16,-0.84,0.02
0.15,-0.87,0
0.14,-0.91,-0.01
0.12,-0.95,-0.02
0.12,-0.98,-0.01
0.12,-1.02,-0.01
0.11,-1.06,0
0.11,-1.09,0.02
0.11,-1.09,0.04
0.14,-1.07,0.05
0.15,-1.02,0.06
0.17,-0.97,0.06
0.19,-0.92,0.07
0.22,-0.88,0.09
0.26,-0.86,0.11
0.29,-0.84,0.15
0.33,-0.81,0.14
0.34,-0.82,0.14
0.35,-0.83,0.15
0.38,-0.83,0.17
0.41,-0.84,0.18
0.42,-0.86,0.22
0.43,-0.86,0.25
0.44,-0.84,0.25
0.44,-0.83,0.23
0.43,-0.82,0.21
0.43,-0.79,0.2
0.44,-0.77,0.22
0.46,-0.76,0.24
0.47,-0.75,0.27
0.49,-0.75,0.3
0.51,-0.74,0.31
0.52,-0.73,0.29
0.52,-0.72,0.27
0.52,-0.71,0.25
0.52,-0.7,0.23
0.53,-0.71,0.24
0.55,-0.71,0.25
0.55,-0.72,0.26
0.55,-0.72,0.27
0.55,-0.73,0.27
0.55,-0.73,0.26
0.55,-0.73,0.26
0.54,-0.73,0.25
0.53,-0.74,0.24
0.54,-0.76,0.23
0.54,-0.78,0.22
0.54,-0.81,0.21
0.53,-0.85,0.21
0.52,-0.89,0.22
0.51,-0.94,0.22
0.51,-0.99,0.22
0.49,-1.03,0.22
0.47,-1.05,0.21
0.45,-1.06,0.2
0.43,-1.06,0.19
0.42,-1.06,0.18
0.39,-1.05,0.15
0.35,-1.04,0.13
0.32,-1.03,0.12
0.3,-1.04,0.1
0.3,-1.06,0.07
0.3,-1.08,0.04
0.27,-1.08,0.02
0.23,-1.06,-0.01
0.21,-1.04,-0.08
0.22,-1.03,-0.11
0.26,-1.03,-0.12
0.22,-0.99,-0.12
0.24,-0.96,-0.15
0.22,-0.92,-0.16
0.19,-0.86,-0.14
0.17,-0.79,-0.13
0.18,-0.76,-0.11
0.2,-0.74,-0.1
0.23,-0.74,-0.07
0.25,-0.74,-0.06
0.25,-0.74,-0.05
0.23,-0.73,-0.03
0.21,-0.73,-0.01
0.22,-0.73,0.02
0.27,-0.74,0.04
0.32,-0.74,0.06
0.39,-0.77,0.05
0.47,-0.8,0.03
0.53,-0.85,0.03
0.57,-0.87,0.03
0.58,-0.88,0.02
0.57,-0.89,0.03
0.58,-0.9,0.06
0.58,-0.93,0.08
0.58,-0.94,0.1
0.59,-0.96,0.1
0.6,-0.98,0.1
0.6,-0.96,0.11
0.59,-0.96,0.13
0.61,-0.96,0.13
0.62,-0.96,0.15
0.63,-0.98,0.18
0.64,-1,0.2
0.61,-1.01,0.22
0.6,-1.01,0.21
0.63,-1,0.19
