Acc_x,Acc_y,Acc_z
0.67,-0.41,0.64
0.67,-0.41,0.64
0.67,-0.41,0.64
0.67,-0.41,0.64
0.67,-0.41,0.64
0.68,-0.41,0.64
0.67,-0.41,0.64
0.67,-0.41,0.65
0.67,-0.41,0.67
0.68,-0.42,0.69
0.71,-0.42,0.72
0.72,-0.43,0.76
0.71,-0.44,0.81
0.66,-0.44,0.89
0.61,-0.44,0.94
0.65,-0.46,0.96
0.71,-0.48,0.98
0.76,-0.47,0.98
0.87,-0.44,0.98
0.95,-0.45,0.97
0.94,-0.42,0.94
0.93,-0.37,0.9
1.01,-0.29,0.9
1.06,-0.25,0.95
1.1,-0.22,1.02
1.11,-0.2,1.07
1.08,-0.19,1.09
1.05,-0.18,1.07
1.04,-0.15,1.03
1.02,-0.11,0.98
1,-0.07,0.94
1,-0.05,0.92
1,-0.06,0.91
1.02,-0.06,0.9
1.02,-0.06,0.89
0.97,-0.05,0.85
0.94,-0.02,0.8
0.94,0,0.76
0.94,0.03,0.73
0.93,0.05,0.71
0.93,0.08,0.7
0.9,0.11,0.69
0.85,0.15,0.69
0.79,0.19,0.68
0.76,0.22,0.68
0.72,0.24,0.67
0.71,0.27,0.65
0.7,0.28,0.63
0.69,0.29,0.58
0.65,0.32,0.57
0.65,0.34,0.57
0.64,0.35,0.58
0.63,0.35,0.59
0.61,0.34,0.6
0.6,0.33,0.59
0.57,0.32,0.58
0.54,0.33,0.56
0.51,0.34,0.54
0.48,0.35,0.51
0.46,0.35,0.49
0.43,0.36,0.48
0.39,0.37,0.48
0.36,0.38,0.49
0.33,0.38,0.51
0.3,0.38,0.53
0.27,0.38,0.53
0.23,0.4,0.52
0.2,0.43,0.51
0.16,0.46,0.5
0.13,0.47,0.5
0.1,0.49,0.51
0.07,0.51,0.53
0.04,0.53,0.54
0.03,0.55,0.55
0.02,0.56,0.55
-0.01,0.6,0.54
-0.02,0.61,0.53
-0.03,0.63,0.52
-0.04,0.63,0.52
-0.05,0.64,0.52
-0.05,0.64,0.52
-0.06,0.64,0.52
-0.07,0.65,0.5
-0.06,0.65,0.47
-0.06,0.65,0.46
-0.06,0.64,0.46
-0.07,0.63,0.48
-0.08,0.63,0.51
-0.08,0.62,0.53
-0.08,0.61,0.54
-0.1,0.6,0.55
-0.11,0.6,0.55
-0.12,0.6,0.53
-0.12,0.6,0.51
-0.12,0.61,0.48
-0.12,0.61,0.46
-0.12,0.61,0.44
-0.1,0.61,0.43
-0.1,0.61,0.44
-0.1,0.6,0.46
-0.1,0.6,0.49
-0.1,0.61,0.48
-0.09,0.62,0.46
-0.08,0.62,0.45
-0.07,0.61,0.44
-0.06,0.61,0.45
-0.06,0.59,0.45
-0.04,0.58,0.46
-0.03,0.57,0.46
-0.01,0.55,0.46
0,0.53,0.46
0.01,0.5,0.49
0.01,0.48,0.53
0.02,0.47,0.54
0.03,0.46,0.54
0.06,0.45,0.52
0.09,0.44,0.49
0.11,0.42,0.47
0.12,0.4,0.46
0.12,0.38,0.45
0.13,0.36,0.45
0.14,0.35,0.47
0.15,0.34,0.47
0.19,0.35,0.45
0.23,0.35,0.43
0.27,0.33,0.39
0.32,0.32,0.35
0.42,0.27,0.35
0.43,0.23,0.4
0.42,0.22,0.46
0.44,0.2,0.5
0.48,0.18,0.49
0.56,0.16,0.47
0.66,0.14,0.43
0.72,0.1,0.39
0.72,0.04,0.41
0.68,-0.02,0.49
0.62,-0.07,0.61
0.6,-0.09,0.73
0.59,-0.08,0.78
0.58,-0.07,0.77
0.63,-0.08,0.72
0.71,-0.11,0.66
0.77,-0.17,0.58
0.83,-0.25,0.49
0.89,-0.33,0.44
0.92,-0.4,0.46
0.94,-0.48,0.53
0.95,-0.54,0.64
0.97,-0.62,0.69
0.94,-0.71,0.66
0.85,-1.01,0.59
2.14,-0.73,2.25
2.3,-0.75,3.73
0.32,-0.82,2.71
0.34,-0.23,1.5
0.57,-0.03,0.86
0.51,0.04,0.54
0.61,-0.02,0.29
0.6,-0.05,0.11
0.47,-0.02,0.08
0.42,-0.03,0.1
0.37,-0.09,0.13
0.32,-0.17,0.16
0.39,-0.26,0.18
0.39,-0.31,0.21
0.37,-0.37,0.32
0.51,-0.47,0.53
0.7,-0.57,0.8
0.82,-0.65,1.01
0.92,-0.67,1.07
0.98,-0.66,1.02
0.95,-0.65,0.92
0.89,-0.62,0.8
0.83,-0.58,0.66
0.74,-0.55,0.53
0.67,-0.52,0.44
0.63,-0.5,0.39
0.61,-0.5,0.37
0.59,-0.5,0.45
0.59,-0.49,0.52
0.59,-0.49,0.58
0.61,-0.49,0.63
0.64,-0.48,0.66
0.66,-0.47,0.67
0.69,-0.47,0.67
0.7,-0.47,0.67
0.71,-0.47,0.66
0.7,-0.47,0.64
0.69,-0.47,0.62
0.67,-0.46,0.61
0.65,-0.46,0.6
0.64,-0.45,0.59
0.63,-0.45,0.6
0.63,-0.45,0.61
0.63,-0.46,0.63
0.63,-0.47,0.65
0.64,-0.47,0.67
0.65,-0.46,0.67
0.67,-0.46,0.66
0.67,-0.45,0.65
0.67,-0.45,0.64
0.67,-0.44,0.63
0.67,-0.44,0.62
0.67,-0.44,0.62
0.66,-0.44,0.63
0.67,-0.44,0.63
0.67,-0.44,0.63
0.67,-0.44,0.63
0.68,-0.44,0.62
0.68,-0.44,0.62
0.68,-0.45,0.62
0.68,-0.45,0.61
0.67,-0.45,0.61
0.67,-0.45,0.61
0.66,-0.45,0.61
0.66,-0.45,0.61
0.66,-0.45,0.61
0.67,-0.46,0.61
0.67,-0.46,0.61
0.67,-0.46,0.61
0.68,-0.46,0.61
0.68,-0.45,0.61
0.67,-0.46,0.61
0.67,-0.46,0.61
0.67,-0.46,0.6
0.67,-0.46,0.6
0.67,-0.46,0.6
0.67,-0.46,0.6
0.67,-0.46,0.6
0.67,-0.46,0.6
0.67,-0.46,0.6
0.67,-0.46,0.6
0.67,-0.46,0.61
0.67,-0.46,0.61
0.67,-0.46,0.61
0.67,-0.46,0.61
0.67,-0.46,0.61
0.67,-0.46,0.61
0.67,-0.45,0.61
0.67,-0.45,0.61
0.67,-0.45,0.61
0.67,-0.45,0.61
0.67,-0.45,0.61
0.67,-0.45,0.61
0.67,-0.45,0.62
0.67,-0.45,0.62
0.67,-0.45,0.62
0.67,-0.45,0.62
0.67,-0.45,0.61
0.68,-0.45,0.61
0.68,-0.45,0.61
0.68,-0.45,0.61
0.68,-0.45,0.61
0.68,-0.45,0.61
0.68,-0.45,0.61
0.68,-0.45,0.61
0.68,-0.45,0.6
0.68,-0.45,0.6
0.68,-0.45,0.61
0.68,-0.45,0.6
0.68,-0.45,0.61
0.68,-0.45,0.61
0.68,-0.45,0.61
0.68,-0.45,0.61
0.68,-0.45,0.61
0.68,-0.45,0.61
0.68,-0.45,0.61
0.68,-0.45,0.6
0.68,-0.45,0.6
0.68,-0.45,0.6
0.68,-0.45,0.6
0.68,-0.45,0.61
0.68,-0.45,0.61
0.68,-0.45,0.61
0.68,-0.45,0.61
0.68,-0.45,0.61
0.68,-0.46,0.61
0.67,-0.45,0.61
0.67,-0.45,0.61
0.68,-0.45,0.61
0.67,-0.45,0.61
0.68,-0.45,0.61
0.68,-0.45,0.61
0.68,-0.45,0.61
0.68,-0.45,0.61
0.68,-0.44,0.61
0.68,-0.44,0.61
0.68,-0.44,0.6
0.68,-0.44,0.6
0.69,-0.44,0.6
0.69,-0.44,0.6
0.69,-0.44,0.6
0.69,-0.44,0.6
0.69,-0.44,0.61
0.69,-0.44,0.6
0.69,-0.44,0.6
0.69,-0.44,0.6
0.69,-0.45,0.6
0.68,-0.45,0.61
0.68,-0.45,0.6
0.68,-0.45,0.61
0.68,-0.45,0.61
0.68,-0.45,0.61
0.68,-0.45,0.61
0.68,-0.45,0.61
0.68,-0.45,0.61
0.68,-0.44,0.6
0.68,-0.45,0.61
0.68,-0.44,0.61
0.68,-0.45,0.61
0.68,-0.45,0.6
0.68,-0.45,0.6
0.68,-0.45,0.6
0.68,-0.45,0.6
0.68,-0.45,0.6
0.68,-0.45,0.6
0.68,-0.45,0.6
0.69,-0.45,0.61
0.68,-0.45,0.61
0.68,-0.44,0.61
0.68,-0.44,0.61
0.68,-0.44,0.6
0.68,-0.44,0.61
0.68,-0.44,0.61
0.68,-0.44,0.61
0.68,-0.44,0.61
0.68,-0.44,0.61
0.68,-0.44,0.61
0.68,-0.45,0.61
0.69,-0.44,0.61
0.69,-0.44,0.61
0.68,-0.44,0.61
0.69,-0.44,0.61
0.69,-0.44,0.6
0.69,-0.45,0.6
0.68,-0.45,0.6
0.68,-0.44,0.6
0.68,-0.44,0.61
0.68,-0.44,0.61
0.68,-0.44,0.61
0.68,-0.44,0.6
0.68,-0.44,0.6
0.69,-0.44,0.6
0.69,-0.44,0.6
0.69,-0.44,0.6
0.69,-0.44,0.6
0.69,-0.44,0.6
0.69,-0.44,0.6
0.69,-0.44,0.6
0.69,-0.44,0.6
0.69,-0.44,0.6
0.69,-0.44,0.6
0.69,-0.44,0.6
0.69,-0.44,0.61
0.69,-0.45,0.6
0.69,-0.45,0.6
0.69,-0.45,0.6
0.68,-0.44,0.61
0.68,-0.44,0.61
0.68,-0.44,0.6
0.68,-0.45,0.6
0.69,-0.44,0.6
0.68,-0.44,0.61
0.69,-0.44,0.6
0.69,-0.44,0.6
0.69,-0.44,0.6
0.69,-0.44,0.6
0.69,-0.44,0.6
0.69,-0.44,0.6
0.69,-0.44,0.6
0.69,-0.44,0.6
0.69,-0.44,0.6
0.69,-0.44,0.6
0.69,-0.44,0.6
0.69,-0.44,0.6
0.69,-0.44,0.6
0.69,-0.44,0.6
0.69,-0.44,0.6
0.69,-0.44,0.6
0.69,-0.44,0.6
0.69,-0.44,0.6
0.69,-0.44,0.6
0.69,-0.44,0.6
0.69,-0.44,0.6
0.69,-0.44,0.6
0.69,-0.44,0.6
0.69,-0.44,0.6
0.69,-0.44,0.6
0.69,-0.44,0.6
0.69,-0.44,0.6
0.69,-0.44,0.6
0.69,-0.44,0.6
0.69,-0.44,0.6
0.69,-0.44,0.6
0.69,-0.44,0.6
0.69,-0.44,0.6
0.69,-0.44,0.6
0.69,-0.44,0.6
0.69,-0.44,0.6
0.69,-0.44,0.6
0.69,-0.44,0.6
0.69,-0.44,0.6
0.69,-0.44,0.6
0.69,-0.44,0.6
0.69,-0.44,0.6
0.69,-0.44,0.6
0.69,-0.44,0.6
0.69,-0.44,0.6
0.69,-0.44,0.6
0.69,-0.44,0.6
0.69,-0.44,0.6
0.69,-0.44,0.6
0.69,-0.44,0.6
0.69,-0.44,0.6
0.69,-0.44,0.6
0.68,-0.44,0.6
0.68,-0.44,0.6
0.69,-0.44,0.6
0.69,-0.44,0.6
0.7,-0.43,0.6
0.7,-0.43,0.6
0.7,-0.43,0.6
0.7,-0.43,0.6
0.69,-0.43,0.6
0.69,-0.43,0.6
0.69,-0.43,0.6
0.69,-0.44,0.6
0.69,-0.44,0.6
0.69,-0.43,0.6
0.69,-0.43,0.61
0.7,-0.43,0.62
0.7,-0.44,0.64
0.71,-0.44,0.66
0.72,-0.44,0.69
0.7,-0.44,0.72
0.68,-0.44,0.76
0.66,-0.44,0.8
0.69,-0.44,0.82
0.76,-0.48,0.81
0.83,-0.52,0.83
0.88,-0.49,0.87
0.9,-0.47,0.92
0.95,-0.47,0.93
1.01,-0.46,0.93
1.06,-0.43,0.92
1.09,-0.41,0.91
1.09,-0.41,0.93
1.09,-0.4,0.95
1.07,-0.37,0.98
1.04,-0.33,1
1.05,-0.31,1.01
1.06,-0.29,1.01
1.05,-0.27,0.99
1.02,-0.26,0.96
0.99,-0.24,0.91
0.98,-0.22,0.87
1,-0.19,0.84
1.03,-0.17,0.83
1.04,-0.15,0.83
0.99,-0.13,0.82
0.94,-0.08,0.81
0.93,-0.03,0.82
0.95,-0.01,0.83
0.93,0.01,0.82
0.87,0.04,0.78
0.84,0.09,0.71
0.77,0.2,0.67
0.71,0.27,0.64
0.64,0.35,0.63
0.59,0.44,0.63
0.58,0.53,0.65
0.56,0.59,0.67
0.53,0.63,0.68
0.5,0.66,0.67
0.49,0.67,0.67
0.49,0.66,0.65
0.48,0.63,0.61
0.47,0.61,0.56
0.43,0.61,0.49
0.39,0.61,0.45
0.35,0.61,0.43
0.32,0.6,0.44
0.3,0.59,0.46
0.28,0.58,0.46
0.27,0.57,0.47
0.27,0.55,0.47
0.26,0.54,0.46
0.24,0.54,0.46
0.21,0.55,0.44
0.18,0.56,0.41
0.14,0.57,0.4
0.12,0.56,0.41
0.07,0.54,0.4
0.05,0.53,0.39
0.03,0.55,0.37
0.01,0.57,0.36
-0.01,0.58,0.35
-0.03,0.58,0.34
-0.05,0.58,0.34
-0.07,0.58,0.34
-0.09,0.57,0.33
-0.11,0.57,0.32
-0.11,0.56,0.3
-0.11,0.56,0.28
-0.1,0.56,0.27
-0.08,0.55,0.27
-0.09,0.54,0.27
-0.09,0.56,0.27
-0.1,0.55,0.26
-0.11,0.54,0.25
-0.11,0.55,0.26
-0.12,0.55,0.27
-0.13,0.54,0.29
-0.14,0.53,0.3
-0.15,0.53,0.3
-0.17,0.53,0.3
-0.18,0.52,0.31
-0.18,0.52,0.3
-0.19,0.54,0.29
-0.19,0.55,0.28
-0.2,0.55,0.27
-0.2,0.55,0.27
-0.19,0.55,0.26
-0.18,0.54,0.26
-0.17,0.53,0.24
-0.15,0.52,0.22
-0.13,0.51,0.22
-0.12,0.51,0.27
-0.11,0.49,0.33
-0.1,0.47,0.37
-0.08,0.46,0.38
-0.06,0.46,0.34
-0.04,0.45,0.28
-0.01,0.44,0.22
0,0.4,0.25
0.02,0.36,0.36
0.06,0.32,0.48
0.11,0.28,0.61
0.17,0.25,0.69
0.23,0.23,0.68
0.3,0.23,0.62
0.36,0.22,0.53
0.38,0.2,0.46
0.4,0.15,0.45
0.58,0.03,0.63
0.68,-0.01,0.71
0.76,-0.05,0.74
0.82,-0.08,0.72
0.86,-0.1,0.65
0.88,-0.09,0.58
0.88,-0.08,0.55
0.86,-0.09,0.57
0.84,-0.11,0.62
0.81,-0.13,0.69
0.8,-0.15,0.77
0.81,-0.17,0.82
0.83,-0.21,0.81
0.83,-0.24,0.79
0.84,-0.27,0.83
0.83,-0.31,0.87
0.79,-0.37,0.89
0.71,-0.4,0.89
0.62,-0.43,0.89
0.55,-0.49,0.85
0.5,-0.58,0.8
1.96,-1.52,2.38
2.29,-0.61,3.99
1.34,0.27,4
1.13,-0.86,3.72
0.36,-0.6,2.74
0.14,-0.03,0.93
0.15,0,0.54
0.23,-0.02,0.3
0.24,0,0.17
0.25,-0.01,0.12
0.3,-0.07,0.13
0.37,-0.14,0.2
0.39,-0.21,0.29
0.39,-0.28,0.4
0.46,-0.35,0.52
0.58,-0.41,0.69
0.71,-0.47,0.9
0.84,-0.55,1.08
0.91,-0.58,1.14
0.89,-0.56,1.09
0.83,-0.53,0.96
0.73,-0.53,0.84
0.64,-0.53,0.71
0.57,-0.5,0.6
0.53,-0.48,0.52
0.52,-0.45,0.49
0.53,-0.45,0.49
0.55,-0.47,0.52
0.56,-0.48,0.56
0.56,-0.5,0.62
0.57,-0.49,0.66
0.59,-0.47,0.71
0.66,-0.46,0.73
0.68,-0.45,0.74
0.67,-0.45,0.75
0.66,-0.45,0.73
0.63,-0.44,0.71
0.61,-0.44,0.68
0.59,-0.44,0.66
0.57,-0.44,0.65
0.56,-0.44,0.65
0.56,-0.44,0.66
0.57,-0.45,0.68
0.58,-0.45,0.7
0.6,-0.45,0.72
0.61,-0.44,0.73
0.62,-0.44,0.74
0.62,-0.43,0.73
0.62,-0.42,0.72
0.61,-0.41,0.7
0.6,-0.41,0.69
0.6,-0.4,0.69
0.6,-0.4,0.68
0.6,-0.4,0.68
0.61,-0.4,0.68
0.62,-0.4,0.69
0.62,-0.4,0.7
0.63,-0.4,0.71
0.64,-0.4,0.7
0.63,-0.41,0.7
0.63,-0.41,0.69
0.62,-0.41,0.69
0.62,-0.42,0.68
0.61,-0.42,0.68
0.61,-0.42,0.68
0.61,-0.42,0.68
0.61,-0.42,0.69
0.62,-0.43,0.69
0.62,-0.43,0.68
0.62,-0.43,0.68
0.63,-0.43,0.68
0.63,-0.43,0.68
0.63,-0.44,0.67
0.62,-0.43,0.67
0.62,-0.43,0.68
0.62,-0.43,0.68
0.61,-0.43,0.68
0.61,-0.43,0.68
0.61,-0.43,0.68
0.61,-0.43,0.68
0.62,-0.43,0.68
0.62,-0.43,0.68
0.62,-0.44,0.67
0.62,-0.44,0.68
0.61,-0.44,0.68
0.61,-0.44,0.68
0.61,-0.44,0.68
0.61,-0.45,0.68
0.6,-0.45,0.68
0.6,-0.44,0.68
0.6,-0.44,0.69
0.6,-0.44,0.69
0.6,-0.44,0.69
0.6,-0.44,0.69
0.6,-0.44,0.69
0.6,-0.44,0.69
0.59,-0.44,0.69
0.59,-0.44,0.69
0.6,-0.45,0.69
0.6,-0.45,0.69
0.6,-0.44,0.69
0.6,-0.44,0.68
0.61,-0.44,0.69
0.61,-0.44,0.68
0.61,-0.44,0.68
0.61,-0.44,0.68
0.61,-0.44,0.68
0.61,-0.44,0.69
0.61,-0.44,0.69
0.61,-0.44,0.69
0.6,-0.44,0.69
0.6,-0.45,0.69
0.6,-0.44,0.68
0.6,-0.45,0.68
0.6,-0.45,0.68
0.6,-0.46,0.68
0.6,-0.46,0.67
0.6,-0.46,0.68
0.6,-0.46,0.68
0.6,-0.46,0.67
0.6,-0.46,0.67
0.6,-0.47,0.67
0.59,-0.47,0.67
0.6,-0.47,0.67
0.6,-0.47,0.67
0.6,-0.47,0.67
0.6,-0.47,0.68
0.59,-0.47,0.67
0.59,-0.47,0.67
0.59,-0.47,0.67
0.59,-0.47,0.67
0.59,-0.48,0.68
0.59,-0.48,0.68
0.58,-0.47,0.68
0.59,-0.47,0.68
0.59,-0.47,0.67
0.58,-0.47,0.67
0.58,-0.47,0.67
0.58,-0.47,0.67
0.59,-0.47,0.68
0.59,-0.47,0.68
0.59,-0.47,0.68
0.59,-0.47,0.68
0.59,-0.47,0.68
0.59,-0.47,0.68
0.6,-0.47,0.67
0.6,-0.47,0.67
0.59,-0.47,0.67
0.59,-0.47,0.67
0.59,-0.47,0.68
0.59,-0.47,0.68
0.59,-0.47,0.68
0.58,-0.47,0.69
0.58,-0.47,0.69
0.59,-0.47,0.69
0.59,-0.46,0.68
0.59,-0.46,0.68
0.59,-0.46,0.68
0.59,-0.46,0.68
0.59,-0.46,0.68
0.59,-0.45,0.68
0.59,-0.46,0.68
0.6,-0.46,0.68
0.6,-0.45,0.68
0.6,-0.45,0.68
0.6,-0.45,0.68
0.6,-0.45,0.68
0.6,-0.45,0.68
0.6,-0.45,0.68
0.6,-0.44,0.68
0.61,-0.44,0.68
0.61,-0.44,0.68
0.61,-0.44,0.69
0.61,-0.44,0.68
0.61,-0.44,0.68
0.61,-0.44,0.68
0.61,-0.44,0.68
0.6,-0.45,0.68
0.6,-0.45,0.67
0.61,-0.45,0.67
0.61,-0.45,0.67
0.61,-0.45,0.68
0.61,-0.45,0.68
0.61,-0.45,0.68
0.61,-0.45,0.68
0.61,-0.45,0.68
0.61,-0.44,0.68
0.61,-0.44,0.68
0.61,-0.44,0.68
0.6,-0.44,0.68
0.61,-0.44,0.68
0.61,-0.44,0.68
0.61,-0.44,0.68
0.61,-0.44,0.68
0.61,-0.44,0.68
0.61,-0.44,0.68
0.61,-0.44,0.68
0.61,-0.44,0.68
0.61,-0.43,0.68
0.62,-0.43,0.68
0.61,-0.43,0.68
0.61,-0.43,0.68
0.61,-0.43,0.68
0.61,-0.43,0.68
0.61,-0.43,0.68
0.61,-0.44,0.68
0.61,-0.44,0.68
0.61,-0.44,0.68
0.61,-0.44,0.68
0.61,-0.44,0.68
0.61,-0.44,0.69
0.61,-0.44,0.69
0.61,-0.44,0.69
0.61,-0.44,0.69
0.61,-0.43,0.68
0.61,-0.43,0.68
0.61,-0.43,0.68
0.61,-0.43,0.68
0.61,-0.43,0.68
0.61,-0.43,0.68
0.62,-0.43,0.68
0.62,-0.43,0.68
0.62,-0.43,0.68
0.62,-0.43,0.68
0.62,-0.43,0.68
0.62,-0.43,0.68
0.61,-0.43,0.68
0.61,-0.43,0.68
0.61,-0.43,0.68
0.61,-0.43,0.68
0.61,-0.43,0.68
0.61,-0.43,0.68
0.61,-0.43,0.68
0.62,-0.43,0.68
0.61,-0.43,0.68
0.61,-0.43,0.69
0.62,-0.43,0.68
0.62,-0.43,0.69
0.62,-0.43,0.68
0.62,-0.42,0.68
0.62,-0.42,0.69
0.62,-0.43,0.68
0.62,-0.43,0.68
0.62,-0.42,0.68
0.61,-0.42,0.68
0.61,-0.42,0.69
0.61,-0.43,0.68
0.62,-0.43,0.68
0.62,-0.43,0.68
0.62,-0.43,0.68
0.61,-0.43,0.68
0.61,-0.43,0.68
0.61,-0.43,0.69
0.61,-0.42,0.68
0.61,-0.43,0.68
0.61,-0.43,0.68
0.61,-0.43,0.68
0.61,-0.43,0.68
0.62,-0.43,0.68
0.62,-0.42,0.68
0.62,-0.42,0.68
0.62,-0.42,0.68
0.62,-0.42,0.68
0.62,-0.43,0.68
0.62,-0.42,0.68
0.61,-0.42,0.68
0.61,-0.42,0.68
0.62,-0.42,0.69
0.62,-0.42,0.68
0.62,-0.42,0.68
0.62,-0.42,0.69
0.62,-0.42,0.69
0.62,-0.43,0.68
0.62,-0.42,0.68
0.62,-0.42,0.68
0.62,-0.42,0.68
0.62,-0.42,0.68
0.62,-0.42,0.68
0.62,-0.42,0.68
0.62,-0.42,0.68
0.62,-0.42,0.69
0.62,-0.42,0.69
0.62,-0.42,0.69
0.62,-0.42,0.69
0.62,-0.42,0.69
0.62,-0.42,0.69
0.62,-0.42,0.68
0.62,-0.42,0.68
0.62,-0.42,0.68
0.62,-0.42,0.68
0.62,-0.42,0.68
0.62,-0.42,0.68
0.62,-0.42,0.68
0.62,-0.42,0.68
0.62,-0.42,0.68
0.62,-0.42,0.68
0.62,-0.42,0.68
0.62,-0.42,0.68
0.62,-0.42,0.68
0.62,-0.42,0.68
0.62,-0.42,0.69
0.62,-0.41,0.69
0.62,-0.42,0.68
0.62,-0.42,0.68
0.62,-0.42,0.68
0.62,-0.42,0.68
0.62,-0.42,0.68
0.62,-0.42,0.68
0.62,-0.42,0.68
0.63,-0.42,0.68
0.62,-0.42,0.68
0.62,-0.42,0.68
0.62,-0.42,0.68
0.62,-0.42,0.68
0.62,-0.42,0.68
0.62,-0.42,0.68
0.62,-0.42,0.68
0.62,-0.42,0.68
0.62,-0.42,0.69
0.62,-0.42,0.68
0.62,-0.42,0.68
0.62,-0.42,0.68
0.62,-0.42,0.69
0.62,-0.42,0.68
0.62,-0.42,0.68
0.62,-0.42,0.68
0.62,-0.42,0.68
0.62,-0.42,0.68
0.62,-0.42,0.68
0.62,-0.42,0.68
0.62,-0.42,0.69
0.62,-0.42,0.69
0.62,-0.42,0.68
0.62,-0.42,0.68
0.62,-0.42,0.69
0.62,-0.41,0.69
0.62,-0.42,0.68
0.62,-0.42,0.68
0.62,-0.42,0.69
0.62,-0.42,0.68
0.62,-0.42,0.68
0.62,-0.42,0.69
0.62,-0.42,0.68
0.62,-0.42,0.69
0.62,-0.42,0.69
0.62,-0.42,0.69
0.62,-0.42,0.69
0.61,-0.42,0.7
0.61,-0.42,0.72
0.62,-0.42,0.73
0.63,-0.43,0.74
0.65,-0.43,0.76
0.65,-0.44,0.78
0.62,-0.44,0.8
0.6,-0.43,0.83
0.6,-0.42,0.85
0.63,-0.43,0.88
0.68,-0.44,0.91
0.72,-0.44,0.95
0.77,-0.44,1.01
0.83,-0.43,1.06
0.83,-0.43,1.09
0.79,-0.41,1.07
0.76,-0.38,1.05
0.73,-0.37,1.03
0.7,-0.36,1.04
0.68,-0.35,1.08
0.73,-0.35,1.13
0.8,-0.35,1.16
0.82,-0.34,1.18
0.81,-0.31,1.21
0.76,-0.24,1.25
0.73,-0.23,1.24
0.72,-0.22,1.23
0.72,-0.21,1.22
0.76,-0.2,1.19
0.81,-0.2,1.16
0.86,-0.19,1.12
0.93,-0.17,1.07
0.96,-0.15,1.02
0.97,-0.13,0.99
0.96,-0.11,0.98
0.94,-0.09,0.97
0.94,-0.07,0.96
0.92,-0.05,0.95
0.92,-0.03,0.95
0.92,-0.01,0.94
0.89,0.01,0.92
0.85,0.05,0.9
0.82,0.07,0.87
0.81,0.08,0.84
0.8,0.1,0.82
0.78,0.12,0.8
0.77,0.13,0.75
0.74,0.13,0.71
0.73,0.14,0.69
0.71,0.15,0.65
0.65,0.2,0.56
0.55,0.22,0.53
0.51,0.23,0.51
0.45,0.24,0.47
0.38,0.26,0.44
0.31,0.28,0.4
0.26,0.3,0.37
0.21,0.33,0.34
0.17,0.35,0.31
0.14,0.37,0.3
0.11,0.37,0.29
0.08,0.37,0.28
0.04,0.38,0.28
0.02,0.38,0.28
-0.01,0.38,0.27
-0.01,0.37,0.25
-0.01,0.36,0.23
-0.01,0.36,0.22
-0.03,0.37,0.2
-0.05,0.38,0.18
-0.06,0.39,0.15
-0.08,0.41,0.13
-0.1,0.43,0.12
-0.11,0.43,0.12
-0.12,0.42,0.13
-0.13,0.42,0.16
-0.15,0.43,0.16
-0.16,0.44,0.16
-0.16,0.46,0.16
-0.16,0.48,0.17
-0.15,0.49,0.2
-0.15,0.49,0.23
-0.15,0.49,0.28
-0.15,0.48,0.32
-0.14,0.46,0.34
-0.13,0.44,0.37
-0.11,0.41,0.41
-0.1,0.38,0.45
-0.08,0.36,0.49
-0.05,0.35,0.51
-0.02,0.35,0.5
0.04,0.36,0.47
0.12,0.35,0.43
0.2,0.34,0.37
0.28,0.32,0.3
0.33,0.3,0.28
0.36,0.29,0.29
0.44,0.29,0.27
0.53,0.31,0.24
0.55,0.31,0.22
0.53,0.29,0.2
0.55,0.28,0.14
0.59,0.25,0.05
0.66,0.17,0.06
0.67,0.13,0.13
0.67,0.08,0.27
0.68,0.04,0.37
0.75,0.02,0.4
0.83,-0.01,0.38
0.98,-0.05,0.34
1.17,-0.11,0.3
1.32,-0.18,0.26
1.34,-0.23,0.28
1.24,-0.26,0.43
1.09,-0.26,0.59
0.91,-0.27,0.67
0.73,-0.3,0.67
0.61,-0.36,0.65
0.55,-0.44,0.6
1.17,-1.27,0.4
2.89,0.12,2.11
3.58,-0.1,3.99
1.55,-1.63,4
-0.18,-0.29,3.17
0.11,0.11,1.88
0.37,0.01,1.13
0.18,-0.02,0.66
0.16,0.01,0.33
0.12,0.04,0.06
0.17,-0.06,0.06
0.26,-0.12,0.12
0.32,-0.17,0.19
0.44,-0.28,0.23
0.45,-0.37,0.3
0.45,-0.46,0.45
0.68,-0.57,0.68
0.95,-0.63,0.93
1.09,-0.67,1.09
1.1,-0.66,1.12
1.02,-0.6,1.04
0.9,-0.58,0.91
0.77,-0.57,0.77
0.65,-0.52,0.64
0.55,-0.49,0.53
0.5,-0.49,0.46
0.49,-0.47,0.43
0.51,-0.46,0.45
0.54,-0.45,0.51
0.55,-0.44,0.57
0.58,-0.43,0.62
0.61,-0.42,0.66
0.65,-0.42,0.68
0.69,-0.4,0.7
0.72,-0.4,0.72
0.74,-0.41,0.72
0.72,-0.41,0.7
0.68,-0.41,0.68
0.65,-0.41,0.66
0.62,-0.41,0.65
0.6,-0.41,0.64
0.6,-0.41,0.64
0.6,-0.41,0.65
0.61,-0.41,0.67
0.62,-0.42,0.7
0.62,-0.42,0.72
0.62,-0.42,0.73
0.62,-0.41,0.74
0.62,-0.4,0.73
0.62,-0.4,0.72
0.62,-0.39,0.71
0.61,-0.39,0.7
0.61,-0.38,0.7
0.6,-0.38,0.69
0.61,-0.39,0.69
0.62,-0.39,0.69
0.62,-0.39,0.69
0.63,-0.39,0.69
0.64,-0.39,0.69
0.65,-0.39,0.69
0.66,-0.39,0.69
0.66,-0.39,0.68
0.65,-0.39,0.67
0.65,-0.39,0.67
0.65,-0.39,0.67
0.64,-0.39,0.66
0.64,-0.39,0.66
0.65,-0.4,0.66
0.66,-0.4,0.66
0.66,-0.4,0.67
0.66,-0.4,0.67
0.66,-0.4,0.66
0.66,-0.4,0.66
0.65,-0.4,0.66
0.65,-0.4,0.66
0.65,-0.41,0.66
0.65,-0.41,0.66
0.65,-0.41,0.66
0.65,-0.41,0.66
0.65,-0.41,0.67
0.65,-0.41,0.67
0.64,-0.41,0.67
0.64,-0.41,0.67
0.64,-0.41,0.67
0.64,-0.41,0.67
0.64,-0.41,0.67
0.64,-0.41,0.67
0.64,-0.4,0.67
0.64,-0.41,0.68
0.64,-0.4,0.68
0.64,-0.4,0.68
0.64,-0.4,0.68
0.64,-0.4,0.68
0.64,-0.4,0.68
0.64,-0.4,0.68
0.64,-0.4,0.68
0.64,-0.4,0.68
0.64,-0.4,0.68
0.64,-0.4,0.68
0.64,-0.4,0.68
0.64,-0.4,0.67
0.64,-0.4,0.67
0.64,-0.4,0.67
0.65,-0.4,0.67
0.65,-0.4,0.67
0.64,-0.4,0.67
0.64,-0.4,0.67
0.65,-0.41,0.67
0.65,-0.41,0.67
0.65,-0.41,0.67
0.65,-0.41,0.67
0.65,-0.41,0.67
0.64,-0.41,0.67
0.64,-0.41,0.67
0.64,-0.4,0.67
0.64,-0.4,0.67
0.65,-0.4,0.67
0.65,-0.4,0.67
0.65,-0.4,0.67
0.65,-0.4,0.67
0.65,-0.4,0.67
0.65,-0.4,0.67
0.64,-0.4,0.67
0.64,-0.41,0.67
0.64,-0.41,0.67
0.64,-0.41,0.67
0.64,-0.41,0.67
0.64,-0.41,0.67
0.64,-0.41,0.67
0.64,-0.41,0.67
0.64,-0.41,0.67
0.64,-0.41,0.67
0.64,-0.41,0.67
0.64,-0.4,0.67
0.64,-0.4,0.67
0.64,-0.41,0.67
0.64,-0.41,0.67
0.64,-0.41,0.67
0.65,-0.4,0.67
0.65,-0.4,0.67
0.65,-0.4,0.67
0.65,-0.4,0.67
0.65,-0.4,0.67
0.65,-0.4,0.66
0.65,-0.4,0.66
0.65,-0.4,0.67
0.65,-0.4,0.67
0.65,-0.41,0.67
0.64,-0.41,0.67
0.64,-0.41,0.67
0.64,-0.41,0.67
0.64,-0.41,0.67
0.64,-0.41,0.67
0.64,-0.41,0.67
0.64,-0.41,0.67
0.64,-0.41,0.67
0.64,-0.41,0.67
0.64,-0.41,0.67
0.64,-0.41,0.67
0.64,-0.41,0.67
0.64,-0.41,0.67
0.64,-0.41,0.67
0.64,-0.41,0.67
0.64,-0.41,0.67
0.65,-0.41,0.67
0.65,-0.41,0.67
0.65,-0.41,0.67
0.64,-0.41,0.67
0.65,-0.41,0.67
0.65,-0.41,0.67
0.65,-0.41,0.67
0.64,-0.41,0.67
0.64,-0.41,0.67
0.64,-0.41,0.67
0.64,-0.41,0.67
0.64,-0.41,0.67
0.64,-0.41,0.67
0.64,-0.41,0.66
0.64,-0.41,0.66
0.65,-0.41,0.66
0.65,-0.41,0.67
0.65,-0.41,0.67
0.65,-0.41,0.67
0.65,-0.41,0.66
0.64,-0.41,0.66
0.64,-0.41,0.66
0.64,-0.41,0.66
0.65,-0.41,0.66
0.64,-0.41,0.67
0.64,-0.41,0.67
0.64,-0.41,0.67
0.65,-0.41,0.67
0.65,-0.41,0.67
0.65,-0.41,0.67
0.65,-0.41,0.67
0.65,-0.41,0.67
0.64,-0.41,0.67
0.64,-0.41,0.66
0.64,-0.41,0.66
0.65,-0.41,0.66
0.65,-0.41,0.66
0.64,-0.41,0.66
0.64,-0.42,0.67
0.65,-0.42,0.67
0.65,-0.42,0.66
0.65,-0.42,0.66
0.64,-0.42,0.66
0.64,-0.41,0.67
0.64,-0.41,0.66
0.64,-0.41,0.67
0.64,-0.41,0.67
0.64,-0.41,0.67
0.64,-0.41,0.67
0.64,-0.41,0.67
0.64,-0.41,0.67
0.64,-0.41,0.66
0.65,-0.41,0.67
0.65,-0.41,0.67
0.65,-0.41,0.66
0.65,-0.41,0.67
0.65,-0.41,0.67
0.65,-0.41,0.66
0.64,-0.41,0.67
0.64,-0.41,0.67
0.64,-0.41,0.66
0.64,-0.41,0.67
0.64,-0.42,0.67
0.64,-0.42,0.66
0.64,-0.42,0.67
0.64,-0.41,0.67
0.64,-0.41,0.67
0.64,-0.42,0.67
0.64,-0.41,0.67
0.64,-0.41,0.67
0.64,-0.41,0.67
0.64,-0.41,0.67
0.65,-0.42,0.67
0.64,-0.41,0.66
0.64,-0.41,0.66
0.65,-0.41,0.67
0.65,-0.41,0.66
0.65,-0.41,0.66
0.64,-0.41,0.67
0.64,-0.41,0.67
0.64,-0.41,0.67
0.64,-0.41,0.67
0.64,-0.41,0.67
0.64,-0.41,0.67
0.64,-0.41,0.67
0.64,-0.41,0.67
0.64,-0.41,0.67
0.64,-0.41,0.67
0.64,-0.41,0.66
0.64,-0.41,0.67
0.64,-0.41,0.67
0.64,-0.41,0.67
0.65,-0.41,0.67
0.64,-0.41,0.67
0.64,-0.41,0.66
0.64,-0.41,0.66
0.65,-0.41,0.66
0.64,-0.41,0.66
0.64,-0.41,0.67
0.64,-0.41,0.67
0.64,-0.41,0.67
0.64,-0.41,0.67
0.64,-0.41,0.67
0.64,-0.41,0.67
0.65,-0.41,0.67
0.65,-0.41,0.67
0.64,-0.41,0.66
0.64,-0.41,0.66
0.65,-0.41,0.66
0.64,-0.41,0.66
0.64,-0.41,0.66
0.65,-0.42,0.66
0.65,-0.41,0.66
0.65,-0.41,0.67
0.65,-0.42,0.67
0.64,-0.42,0.67
0.64,-0.41,0.67
0.64,-0.41,0.67
0.64,-0.41,0.67
0.65,-0.41,0.67
0.65,-0.41,0.67
0.65,-0.41,0.67
0.64,-0.41,0.68
0.64,-0.4,0.68
0.63,-0.4,0.69
0.63,-0.39,0.71
0.63,-0.39,0.73
0.64,-0.4,0.75
0.65,-0.39,0.77
0.67,-0.39,0.78
0.67,-0.4,0.79
0.71,-0.4,0.83
0.79,-0.41,0.89
0.81,-0.35,0.99
0.78,-0.32,1.1
0.76,-0.33,1.22
0.74,-0.37,1.28
0.76,-0.36,1.3
0.84,-0.32,1.33
0.91,-0.31,1.34
0.95,-0.29,1.34
0.97,-0.28,1.35
0.94,-0.28,1.37
0.89,-0.28,1.36
0.88,-0.3,1.34
0.91,-0.29,1.3
0.96,-0.26,1.24
1,-0.24,1.18
1.05,-0.23,1.13
1.06,-0.22,1.06
1.02,-0.22,1.02
1,-0.22,0.99
1.02,-0.22,0.99
1.07,-0.22,0.99
1.11,-0.21,0.97
1.13,-0.19,0.93
1.14,-0.15,0.88
1.14,-0.11,0.82
1.11,-0.06,0.75
1.06,0.04,0.65
0.92,0.08,0.63
0.86,0.11,0.61
0.8,0.14,0.59
0.74,0.17,0.56
0.66,0.2,0.51
0.61,0.25,0.49
0.58,0.27,0.47
0.52,0.29,0.44
0.47,0.31,0.41
0.4,0.34,0.36
0.34,0.38,0.32
0.3,0.42,0.3
0.27,0.43,0.29
0.25,0.43,0.28
0.22,0.43,0.28
0.18,0.42,0.27
0.13,0.43,0.25
0.1,0.44,0.23
0.08,0.45,0.21
0.04,0.46,0.2
0,0.47,0.2
-0.04,0.49,0.2
-0.08,0.5,0.21
-0.1,0.5,0.21
-0.12,0.51,0.22
-0.14,0.54,0.23
-0.16,0.55,0.23
-0.17,0.56,0.22
-0.19,0.58,0.21
-0.21,0.58,0.19
-0.22,0.59,0.18
-0.24,0.59,0.17
-0.24,0.6,0.19
-0.25,0.6,0.19
-0.26,0.6,0.19
-0.27,0.59,0.2
-0.27,0.59,0.21
-0.27,0.59,0.22
-0.27,0.6,0.23
-0.27,0.6,0.24
-0.28,0.6,0.25
-0.27,0.59,0.29
-0.27,0.59,0.29
-0.26,0.59,0.3
-0.25,0.58,0.3
-0.24,0.59,0.29
-0.22,0.59,0.28
-0.18,0.59,0.25
-0.18,0.59,0.25
-0.16,0.57,0.25
-0.14,0.55,0.26
-0.12,0.53,0.29
-0.08,0.46,0.3
-0.04,0.43,0.28
0,0.4,0.26
0.05,0.38,0.22
0.1,0.36,0.18
0.17,0.35,0.15
0.22,0.33,0.15
0.26,0.3,0.17
0.27,0.27,0.23
0.28,0.24,0.34
0.29,0.2,0.45
0.32,0.17,0.53
0.34,0.15,0.56
0.38,0.15,0.53
0.44,0.16,0.45
0.52,0.17,0.37
0.58,0.16,0.32
0.62,0.14,0.34
0.63,0.11,0.39
0.63,0.08,0.46
0.61,0.05,0.53
0.64,0,0.63
0.69,-0.07,0.71
0.72,-0.11,0.73
0.75,-0.12,0.73
0.78,-0.13,0.7
0.91,-0.2,0.71
0.92,-0.26,0.73
0.9,-0.3,0.76
0.91,-0.36,0.84
0.86,-0.44,0.93
0.72,-0.5,0.95
0.57,-0.54,0.93
0.44,-0.74,1.01
2.17,-2.33,2.55
3.7,-1.4,3.99
2.47,-0.26,4
0.81,-0.87,3.25
0.4,0.01,1.93
0.68,0.27,1.03
0.51,0.2,0.64
0.35,0.08,0.47
0.35,0.06,0.28
0.31,0.09,0.15
0.3,0.02,0.1
0.31,-0.09,0.13
0.38,-0.17,0.19
0.43,-0.22,0.24
0.41,-0.26,0.3
0.44,-0.34,0.4
0.57,-0.46,0.6
0.76,-0.54,1.02
0.97,-0.61,1.11
0.93,-0.59,1.08
0.86,-0.57,0.97
0.79,-0.56,0.84
0.7,-0.54,0.71
0.6,-0.51,0.6
0.54,-0.49,0.52
0.53,-0.48,0.5
0.57,-0.47,0.49
0.59,-0.47,0.51
0.58,-0.49,0.55
0.56,-0.5,0.6
0.57,-0.49,0.63
0.6,-0.48,0.66
0.67,-0.46,0.73
0.68,-0.46,0.73
0.68,-0.45,0.74
0.66,-0.45,0.72
0.63,-0.44,0.7
0.6,-0.44,0.68
0.58,-0.43,0.66
0.57,-0.43,0.65
0.56,-0.43,0.65
0.57,-0.44,0.66
0.59,-0.44,0.71
0.62,-0.44,0.73
0.62,-0.43,0.74
0.63,-0.42,0.74
0.62,-0.41,0.74
0.61,-0.41,0.72
0.6,-0.4,0.72
0.6,-0.39,0.71
0.6,-0.39,0.7
0.6,-0.39,0.7
0.6,-0.39,0.7
0.61,-0.39,0.7
0.62,-0.39,0.7
0.63,-0.39,0.7
0.64,-0.39,0.7
0.65,-0.39,0.7
0.65,-0.39,0.7
0.66,-0.39,0.69
0.65,-0.4,0.69
0.65,-0.4,0.68
0.64,-0.4,0.68
0.64,-0.4,0.67
0.64,-0.4,0.67
0.64,-0.4,0.67
0.63,-0.4,0.67
0.64,-0.4,0.67
0.64,-0.41,0.67
0.64,-0.42,0.66
0.64,-0.43,0.66
0.64,-0.42,0.66
0.64,-0.41,0.65
0.65,-0.4,0.65
0.66,-0.39,0.65
0.67,-0.38,0.65
0.67,-0.38,0.65
0.67,-0.38,0.65
0.68,-0.38,0.66
0.68,-0.38,0.66
0.67,-0.39,0.66
0.67,-0.4,0.66
0.66,-0.42,0.66
0.65,-0.42,0.66
0.65,-0.43,0.65
0.64,-0.44,0.65
0.64,-0.45,0.66
0.63,-0.45,0.66
0.62,-0.46,0.66
0.62,-0.46,0.66
0.61,-0.46,0.67
0.61,-0.46,0.68
0.61,-0.46,0.68
0.6,-0.45,0.69
0.6,-0.45,0.69
0.6,-0.45,0.69
0.6,-0.44,0.69
0.59,-0.44,0.69
0.59,-0.44,0.7
0.59,-0.44,0.7
0.59,-0.44,0.7
0.59,-0.44,0.7
0.59,-0.44,0.7
0.59,-0.44,0.7
0.59,-0.44,0.7
0.6,-0.44,0.69
0.6,-0.44,0.69
0.61,-0.44,0.69
0.6,-0.44,0.68
0.61,-0.43,0.68
0.62,-0.43,0.68
0.61,-0.43,0.67
0.61,-0.43,0.67
0.62,-0.42,0.67
0.62,-0.42,0.67
0.63,-0.42,0.67
0.63,-0.41,0.67
0.64,-0.41,0.67
0.64,-0.4,0.66
0.65,-0.39,0.66
0.65,-0.39,0.66
0.65,-0.38,0.66
0.66,-0.38,0.66
0.67,-0.38,0.65
0.67,-0.38,0.65
0.68,-0.38,0.65
0.69,-0.38,0.65
0.69,-0.38,0.64
0.68,-0.39,0.64
0.68,-0.39,0.64
0.68,-0.39,0.64
0.67,-0.39,0.65
0.67,-0.4,0.65
0.67,-0.4,0.65
0.67,-0.4,0.65
0.66,-0.4,0.65
0.66,-0.41,0.65
0.67,-0.41,0.65
0.66,-0.41,0.66
0.66,-0.41,0.66
0.66,-0.41,0.65
0.66,-0.41,0.66
0.66,-0.41,0.66
0.66,-0.41,0.66
0.66,-0.41,0.66
0.66,-0.41,0.66
0.65,-0.43,0.66
0.65,-0.43,0.66
0.65,-0.43,0.65
0.65,-0.43,0.65
0.64,-0.43,0.64
0.64,-0.42,0.64
0.65,-0.41,0.64
0.65,-0.4,0.64
0.65,-0.39,0.64
0.66,-0.39,0.65
0.67,-0.39,0.65
0.68,-0.38,0.66
0.69,-0.38,0.66
0.7,-0.38,0.66
0.7,-0.38,0.65
0.71,-0.38,0.65
0.7,-0.38,0.65
0.7,-0.38,0.65
0.7,-0.38,0.65
0.69,-0.38,0.65
0.69,-0.38,0.65
0.68,-0.38,0.64
0.68,-0.39,0.64
0.68,-0.4,0.64
0.68,-0.4,0.63
0.68,-0.41,0.63
0.67,-0.41,0.63
0.67,-0.41,0.63
0.67,-0.41,0.64
0.67,-0.41,0.64
0.67,-0.4,0.64
0.67,-0.4,0.65
0.68,-0.39,0.65
0.68,-0.39,0.65
0.68,-0.38,0.65
0.68,-0.38,0.65
0.68,-0.38,0.65
0.68,-0.38,0.65
0.68,-0.38,0.65
0.68,-0.38,0.65
0.68,-0.38,0.65
0.68,-0.38,0.64
0.69,-0.38,0.64
0.69,-0.38,0.64
0.69,-0.38,0.64
0.7,-0.38,0.64
0.7,-0.37,0.63
0.7,-0.37,0.63
0.7,-0.37,0.63
0.71,-0.37,0.64
0.71,-0.37,0.64
0.71,-0.36,0.64
0.71,-0.36,0.64
0.72,-0.36,0.63
0.72,-0.36,0.63
0.72,-0.36,0.63
0.71,-0.36,0.63
0.71,-0.36,0.63
0.7,-0.36,0.62
0.7,-0.36,0.62
0.7,-0.36,0.62
0.7,-0.37,0.62
0.7,-0.37,0.63
0.69,-0.37,0.64
0.69,-0.37,0.64
0.69,-0.37,0.64
0.68,-0.38,0.64
0.69,-0.39,0.64
0.69,-0.4,0.64
0.7,-0.41,0.63
0.71,-0.42,0.63
0.71,-0.43,0.62
0.71,-0.43,0.62
0.71,-0.44,0.62
0.71,-0.45,0.61
0.7,-0.45,0.61
0.68,-0.45,0.61
0.67,-0.45,0.62
0.66,-0.44,0.63
0.65,-0.42,0.63
0.64,-0.41,0.64
0.64,-0.4,0.65
0.64,-0.39,0.66
0.63,-0.39,0.66
0.63,-0.38,0.67
0.64,-0.38,0.67
0.64,-0.38,0.67
0.64,-0.37,0.67
0.65,-0.36,0.66
0.66,-0.36,0.65
0.67,-0.35,0.65
0.68,-0.35,0.64
0.68,-0.36,0.64
0.69,-0.37,0.63
0.7,-0.39,0.63
0.71,-0.4,0.62
0.72,-0.41,0.61
0.72,-0.41,0.6
0.72,-0.42,0.6
0.72,-0.42,0.59
0.72,-0.42,0.59
0.71,-0.42,0.59
0.7,-0.43,0.59
0.69,-0.43,0.6
0.69,-0.43,0.61
0.7,-0.44,0.61
0.7,-0.45,0.62
0.7,-0.45,0.62
0.7,-0.44,0.61
0.7,-0.44,0.61
0.69,-0.43,0.61
0.69,-0.42,0.61
0.68,-0.42,0.62
0.68,-0.41,0.62
0.68,-0.4,0.63
0.67,-0.4,0.63
0.68,-0.39,0.64
0.68,-0.39,0.65
0.68,-0.39,0.65
0.68,-0.38,0.65
0.68,-0.38,0.65
0.68,-0.37,0.65
0.68,-0.37,0.65
0.69,-0.36,0.64
0.71,-0.36,0.63
0.71,-0.36,0.62
0.71,-0.36,0.62
0.72,-0.36,0.61
0.73,-0.36,0.61
0.73,-0.36,0.61
0.74,-0.36,0.6
0.75,-0.35,0.58
0.75,-0.35,0.58
0.77,-0.34,0.57
0.76,-0.34,0.57
0.75,-0.34,0.56
0.78,-0.34,0.56
0.78,-0.34,0.56
0.77,-0.34,0.56
0.77,-0.35,0.56
0.76,-0.35,0.56
0.76,-0.36,0.56
0.76,-0.36,0.56
0.76,-0.36,0.56
0.76,-0.37,0.56
0.77,-0.37,0.57
0.77,-0.37,0.57
0.76,-0.38,0.58
0.76,-0.38,0.58
0.76,-0.38,0.58
0.75,-0.39,0.59
0.75,-0.39,0.59
0.75,-0.39,0.6
0.74,-0.39,0.6
0.75,-0.39,0.61
0.74,-0.38,0.61
0.72,-0.38,0.61
0.71,-0.37,0.61
0.7,-0.37,0.61
0.71,-0.37,0.61
0.71,-0.37,0.61
0.72,-0.37,0.62
0.72,-0.37,0.62
0.73,-0.37,0.62
0.73,-0.36,0.62
0.73,-0.37,0.61
0.73,-0.36,0.61
0.73,-0.36,0.61
0.73,-0.36,0.61
0.73,-0.36,0.61
0.73,-0.36,0.61
0.74,-0.36,0.6
0.73,-0.36,0.6
0.73,-0.36,0.6
0.74,-0.36,0.6
0.74,-0.36,0.6
0.74,-0.36,0.6
0.74,-0.36,0.59
0.74,-0.36,0.6
0.74,-0.36,0.6
0.74,-0.36,0.6
0.74,-0.36,0.6
0.75,-0.36,0.6
0.74,-0.36,0.6
0.74,-0.36,0.6
0.74,-0.36,0.6
0.74,-0.36,0.6
0.74,-0.35,0.6
0.73,-0.35,0.6
0.73,-0.35,0.6
0.73,-0.36,0.61
0.73,-0.36,0.61
0.73,-0.36,0.61
0.73,-0.35,0.61
0.72,-0.35,0.62
0.72,-0.35,0.62
0.72,-0.36,0.62
0.72,-0.36,0.62
0.72,-0.36,0.62
0.72,-0.36,0.62
0.72,-0.36,0.62
0.72,-0.36,0.62
0.72,-0.36,0.62
0.72,-0.36,0.62
0.71,-0.35,0.63
0.72,-0.35,0.62
0.72,-0.36,0.62
0.72,-0.36,0.62
0.72,-0.36,0.62
0.72,-0.35,0.62
0.72,-0.35,0.62
0.73,-0.35,0.62
0.73,-0.36,0.61
0.73,-0.35,0.61
0.73,-0.35,0.61
0.73,-0.35,0.61
0.73,-0.35,0.61
0.73,-0.35,0.61
0.74,-0.35,0.61
0.74,-0.34,0.61
0.74,-0.34,0.61
0.74,-0.34,0.61
0.73,-0.34,0.61
0.74,-0.34,0.61
0.73,-0.34,0.61
0.73,-0.34,0.61
0.73,-0.34,0.61
0.73,-0.34,0.61
0.74,-0.34,0.61
0.74,-0.34,0.61
0.74,-0.34,0.61
0.74,-0.34,0.61
0.74,-0.34,0.61
0.74,-0.34,0.61
0.74,-0.34,0.61
0.74,-0.34,0.61
0.73,-0.34,0.61
0.74,-0.34,0.61
0.74,-0.34,0.61
0.74,-0.34,0.61
0.74,-0.34,0.61
0.74,-0.34,0.61
0.74,-0.34,0.61
0.74,-0.34,0.61
0.74,-0.34,0.61
0.74,-0.34,0.61
0.74,-0.34,0.61
0.74,-0.35,0.61
0.74,-0.34,0.61
0.73,-0.35,0.61
0.73,-0.35,0.61
0.73,-0.36,0.61
0.73,-0.36,0.62
0.73,-0.36,0.62
0.72,-0.36,0.62
0.72,-0.36,0.62
0.73,-0.36,0.62
0.72,-0.36,0.62
0.72,-0.36,0.62
0.72,-0.36,0.62
0.72,-0.36,0.62
0.72,-0.36,0.63
0.71,-0.36,0.63
0.71,-0.36,0.63
0.7,-0.36,0.63
0.7,-0.36,0.63
0.7,-0.36,0.63
0.7,-0.37,0.63
0.7,-0.37,0.63
0.7,-0.37,0.64
0.7,-0.37,0.64
0.7,-0.37,0.64
0.7,-0.37,0.64
0.7,-0.37,0.64
0.7,-0.37,0.64
0.7,-0.37,0.64
0.69,-0.37,0.64
0.69,-0.37,0.64
0.69,-0.37,0.64
0.69,-0.37,0.64
0.69,-0.37,0.64
0.69,-0.38,0.64
0.69,-0.38,0.64
0.69,-0.38,0.64
0.69,-0.37,0.64
0.69,-0.37,0.64
0.69,-0.37,0.63
0.68,-0.37,0.63
0.69,-0.36,0.63
0.7,-0.36,0.63
0.7,-0.36,0.63
0.7,-0.36,0.63
0.7,-0.36,0.63
0.7,-0.35,0.63
0.71,-0.35,0.63
0.71,-0.35,0.63
0.71,-0.35,0.63
0.71,-0.35,0.63
0.71,-0.35,0.63
0.71,-0.35,0.63
0.71,-0.35,0.63
0.71,-0.35,0.63
0.71,-0.35,0.63
0.71,-0.35,0.63
0.71,-0.35,0.63
0.71,-0.35,0.63
0.71,-0.36,0.63
0.71,-0.36,0.63
0.71,-0.36,0.63
0.71,-0.36,0.63
0.71,-0.36,0.63
0.71,-0.36,0.64
0.7,-0.36,0.64
0.7,-0.36,0.65
0.69,-0.36,0.67
0.69,-0.36,0.68
0.69,-0.36,0.7
0.71,-0.38,0.7
0.71,-0.39,0.69
0.71,-0.41,0.68
0.71,-0.41,0.7
0.7,-0.4,0.72
0.71,-0.39,0.74
0.74,-0.38,0.76
0.76,-0.35,0.8
0.74,-0.34,0.84
0.69,-0.34,0.87
0.65,-0.34,0.88
0.64,-0.35,0.92
0.66,-0.36,0.97
0.74,-0.36,0.97
0.85,-0.33,0.96
0.96,-0.26,0.97
1.04,-0.22,1
1.09,-0.24,1.07
1.1,-0.27,1.14
1.08,-0.28,1.19
1.02,-0.28,1.21
0.99,-0.26,1.21
1.02,-0.23,1.2
1.07,-0.19,1.19
1.17,-0.17,1.17
1.15,-0.16,1.15
1.14,-0.17,1.13
1.15,-0.16,1.11
1.15,-0.14,1.09
1.16,-0.13,1.08
1.16,-0.13,1.06
1.15,-0.12,1.02
1.13,-0.11,0.97
1.1,-0.09,0.93
1.07,-0.07,0.88
1.04,-0.06,0.84
1.03,-0.03,0.8
1,-0.01,0.76
0.96,0.02,0.73
0.91,0.03,0.73
0.87,0.05,0.72
0.82,0.08,0.69
0.76,0.12,0.65
0.72,0.15,0.62
0.68,0.18,0.59
0.64,0.2,0.54
0.59,0.22,0.51
0.53,0.24,0.49
0.48,0.26,0.46
0.45,0.29,0.39
0.35,0.3,0.37
0.28,0.31,0.33
0.23,0.33,0.29
0.19,0.34,0.27
0.15,0.35,0.26
0.12,0.36,0.24
0.08,0.37,0.22
0.05,0.39,0.22
0.02,0.42,0.21
0,0.42,0.2
-0.02,0.42,0.19
-0.04,0.43,0.18
-0.06,0.43,0.17
-0.08,0.44,0.17
-0.1,0.45,0.17
-0.11,0.46,0.17
-0.12,0.47,0.17
-0.14,0.47,0.17
-0.14,0.47,0.17
-0.14,0.48,0.16
-0.15,0.47,0.16
-0.16,0.47,0.15
-0.17,0.47,0.14
-0.17,0.47,0.15
-0.17,0.47,0.17
-0.16,0.46,0.2
-0.16,0.46,0.22
-0.16,0.47,0.24
-0.16,0.47,0.26
-0.15,0.47,0.26
-0.14,0.47,0.25
-0.13,0.47,0.24
-0.11,0.45,0.24
-0.09,0.42,0.24
-0.07,0.4,0.25
-0.05,0.39,0.27
-0.03,0.37,0.27
0,0.35,0.25
0.04,0.34,0.21
0.1,0.33,0.17
0.16,0.32,0.16
0.2,0.29,0.21
0.21,0.24,0.33
0.22,0.21,0.44
0.24,0.18,0.5
0.28,0.17,0.5
0.36,0.16,0.46
0.45,0.15,0.39
0.53,0.14,0.34
0.57,0.11,0.36
0.6,0.08,0.44
0.62,0.04,0.65
0.71,-0.04,0.7
0.78,-0.09,0.72
0.87,-0.13,0.7
0.92,-0.16,0.63
0.93,-0.16,0.57
0.95,-0.16,0.53
0.97,-0.19,0.5
0.96,-0.24,0.47
0.93,-0.29,0.48
0.9,-0.36,0.48
0.9,-0.45,0.49
0.89,-0.55,0.53
0.89,-0.63,0.61
0.91,-0.68,0.71
0.9,-0.73,0.78
2.43,-1.33,2.39
3.41,-1.1,3.99
2.74,-1.48,4
1.37,-1.68,2.73
-0.19,-0.19,1.1
-0.21,0.38,0.62
0.14,0.33,0.42
0.17,0.09,0.27
0.17,-0.09,0.14
0.24,-0.14,0.08
0.31,-0.11,0.21
0.33,-0.16,0.27
0.31,-0.25,0.33
0.43,-0.38,0.33
0.54,-0.42,0.37
0.62,-0.43,0.57
0.76,-0.58,0.95
0.94,-0.69,1.27
0.98,-0.62,1.26
0.87,-0.54,1.1
0.82,-0.54,0.93
0.77,-0.52,0.79
0.69,-0.5,0.67
0.61,-0.48,0.57
0.54,-0.45,0.5
0.52,-0.43,0.47
0.56,-0.43,0.49
0.6,-0.42,0.54
0.62,-0.41,0.61
0.66,-0.42,0.68
0.68,-0.4,0.73
0.7,-0.38,0.77
0.7,-0.37,0.78
0.7,-0.36,0.76
0.69,-0.36,0.72
0.68,-0.35,0.68
0.67,-0.35,0.64
0.64,-0.37,0.64
0.64,-0.38,0.65
0.64,-0.38,0.66
0.64,-0.39,0.67
0.64,-0.39,0.69
0.65,-0.4,0.7
0.65,-0.4,0.71
0.65,-0.4,0.71
0.65,-0.4,0.7
0.64,-0.4,0.69
0.64,-0.39,0.68
0.65,-0.38,0.67
0.65,-0.37,0.66
0.66,-0.37,0.66
0.67,-0.36,0.66
0.67,-0.36,0.67
0.67,-0.36,0.67
0.67,-0.36,0.67
0.67,-0.36,0.68
0.67,-0.36,0.68
0.67,-0.36,0.68
0.67,-0.35,0.68
0.67,-0.35,0.67
0.67,-0.35,0.67
0.68,-0.35,0.67
0.68,-0.35,0.66
0.69,-0.35,0.66
0.69,-0.35,0.66
0.69,-0.34,0.66
0.68,-0.34,0.66
0.68,-0.33,0.67
0.68,-0.33,0.68
0.68,-0.33,0.66
0.67,-0.34,0.65
0.68,-0.34,0.67
0.69,-0.34,0.67
0.68,-0.35,0.65
0.69,-0.35,0.65
0.71,-0.35,0.65
0.7,-0.37,0.64
0.7,-0.37,0.65
0.7,-0.36,0.65
0.69,-0.36,0.65
0.69,-0.36,0.65
0.69,-0.36,0.65
0.69,-0.36,0.65
0.69,-0.35,0.65
0.69,-0.35,0.65
0.69,-0.35,0.65
0.69,-0.35,0.65
0.69,-0.35,0.65
0.69,-0.35,0.65
0.7,-0.36,0.65
0.69,-0.36,0.65
0.69,-0.36,0.66
0.68,-0.36,0.66
0.68,-0.37,0.66
0.68,-0.37,0.66
0.68,-0.37,0.66
0.68,-0.37,0.66
0.68,-0.37,0.67
0.67,-0.37,0.67
0.67,-0.37,0.67
0.66,-0.36,0.66
0.65,-0.35,0.65
0.63,-0.34,0.65
0.64,-0.34,0.64
0.65,-0.33,0.66
0.66,-0.34,0.67
0.68,-0.35,0.67
0.71,-0.37,0.67
0.71,-0.37,0.67
0.71,-0.37,0.66
0.72,-0.38,0.65
0.71,-0.39,0.64
0.71,-0.38,0.64
0.71,-0.38,0.63
0.71,-0.39,0.63
0.71,-0.38,0.64
0.7,-0.38,0.64
0.7,-0.38,0.64
0.7,-0.38,0.65
0.7,-0.37,0.64
0.7,-0.37,0.64
0.7,-0.37,0.64
0.7,-0.37,0.64
0.7,-0.37,0.63
0.7,-0.37,0.64
0.69,-0.38,0.64
0.69,-0.38,0.64
0.69,-0.38,0.65
0.68,-0.38,0.65
0.68,-0.38,0.65
0.68,-0.38,0.65
0.68,-0.38,0.65
0.68,-0.37,0.65
0.68,-0.38,0.65
0.68,-0.38,0.65
0.68,-0.37,0.64
0.69,-0.37,0.64
0.68,-0.37,0.65
0.68,-0.38,0.65
0.68,-0.37,0.65
0.68,-0.37,0.65
0.68,-0.38,0.65
0.68,-0.38,0.64
0.68,-0.38,0.65
0.68,-0.38,0.65
0.68,-0.38,0.65
0.68,-0.38,0.65
0.68,-0.38,0.65
0.68,-0.38,0.65
0.68,-0.37,0.65
0.68,-0.37,0.65
0.68,-0.38,0.65
0.68,-0.38,0.64
0.68,-0.38,0.65
0.69,-0.38,0.65
0.69,-0.38,0.64
0.68,-0.38,0.64
0.69,-0.38,0.64
0.69,-0.38,0.64
0.69,-0.38,0.64
0.69,-0.38,0.64
0.69,-0.38,0.64
0.69,-0.38,0.64
0.69,-0.38,0.64
0.68,-0.38,0.64
0.68,-0.37,0.64
0.69,-0.37,0.64
0.69,-0.38,0.64
0.69,-0.38,0.64
0.69,-0.38,0.64
0.69,-0.38,0.64
0.69,-0.38,0.64
0.69,-0.38,0.64
0.69,-0.38,0.64
0.69,-0.38,0.64
0.69,-0.38,0.64
0.69,-0.38,0.64
0.69,-0.38,0.64
0.69,-0.38,0.64
0.69,-0.38,0.64
0.69,-0.38,0.64
0.69,-0.38,0.64
0.69,-0.38,0.64
0.69,-0.38,0.64
0.69,-0.38,0.64
0.68,-0.38,0.64
0.68,-0.39,0.64
0.69,-0.39,0.64
0.69,-0.38,0.64
0.69,-0.38,0.64
0.69,-0.38,0.64
0.69,-0.38,0.64
0.69,-0.38,0.64
0.69,-0.38,0.64
0.69,-0.38,0.64
0.69,-0.38,0.64
0.69,-0.38,0.64
0.69,-0.38,0.64
0.69,-0.38,0.64
0.69,-0.38,0.64
0.69,-0.38,0.64
0.69,-0.38,0.64
0.69,-0.38,0.64
0.69,-0.38,0.64
0.69,-0.38,0.64
0.69,-0.38,0.64
0.69,-0.38,0.64
0.69,-0.38,0.64
0.69,-0.38,0.64
0.69,-0.38,0.64
0.69,-0.38,0.64
0.69,-0.38,0.64
0.69,-0.38,0.64
0.69,-0.38,0.64
0.69,-0.38,0.64
0.69,-0.38,0.64
0.69,-0.38,0.64
0.68,-0.38,0.64
0.69,-0.38,0.64
0.69,-0.38,0.64
0.69,-0.38,0.64
0.69,-0.38,0.64
0.69,-0.38,0.64
0.69,-0.38,0.64
0.69,-0.38,0.64
0.69,-0.37,0.64
0.69,-0.37,0.64
0.69,-0.38,0.64
0.69,-0.38,0.64
0.69,-0.38,0.64
0.69,-0.38,0.64
0.69,-0.38,0.64
0.69,-0.38,0.64
0.69,-0.38,0.64
0.69,-0.38,0.64
0.69,-0.38,0.64
0.69,-0.38,0.64
0.69,-0.38,0.64
0.69,-0.38,0.64
0.69,-0.38,0.64
0.69,-0.38,0.64
0.69,-0.38,0.64
0.69,-0.38,0.64
0.69,-0.38,0.64
0.69,-0.38,0.64
0.69,-0.38,0.64
0.69,-0.38,0.64
0.69,-0.38,0.64
0.69,-0.38,0.64
0.69,-0.38,0.64
0.69,-0.38,0.64
0.7,-0.38,0.64
0.7,-0.38,0.64
0.7,-0.38,0.64
0.7,-0.38,0.64
0.7,-0.38,0.64
0.7,-0.37,0.64
0.69,-0.38,0.64
0.69,-0.38,0.64
0.69,-0.38,0.64
0.68,-0.38,0.65
0.68,-0.37,0.66
0.67,-0.36,0.68
0.63,-0.35,0.68
0.62,-0.37,0.68
0.65,-0.39,0.7
0.66,-0.4,0.75
0.69,-0.41,0.79
0.69,-0.41,0.85
0.68,-0.37,0.91
0.65,-0.33,0.97
0.67,-0.28,1.04
0.85,-0.24,1.2
0.92,-0.27,1.24
0.97,-0.33,1.24
0.98,-0.34,1.2
0.99,-0.34,1.15
1.02,-0.32,1.12
1.12,-0.3,1.12
1.19,-0.31,1.12
1.18,-0.35,1.15
1.17,-0.37,1.17
1.16,-0.35,1.18
1.17,-0.3,1.15
1.18,-0.27,1.11
1.17,-0.26,1.07
1.12,-0.25,1.03
1.09,-0.24,0.99
1.09,-0.23,0.94
1.09,-0.22,0.89
1.09,-0.19,0.85
1.08,-0.17,0.81
1.05,-0.15,0.79
1.01,-0.14,0.75
0.97,-0.12,0.7
0.92,-0.09,0.65
0.89,-0.07,0.62
0.87,-0.05,0.59
0.87,0.01,0.57
0.8,0.06,0.57
0.76,0.1,0.57
0.7,0.12,0.56
0.63,0.15,0.53
0.59,0.2,0.52
0.55,0.23,0.51
0.49,0.25,0.49
0.44,0.28,0.48
0.41,0.3,0.49
0.37,0.32,0.48
0.33,0.34,0.47
0.31,0.36,0.46
0.29,0.38,0.45
0.25,0.39,0.43
0.19,0.42,0.39
0.15,0.45,0.35
0.1,0.48,0.32
0.06,0.5,0.3
0.02,0.51,0.29
-0.01,0.51,0.29
-0.04,0.51,0.29
-0.06,0.5,0.29
-0.07,0.51,0.29
-0.08,0.52,0.29
-0.1,0.53,0.28
-0.11,0.56,0.29
-0.12,0.56,0.29
-0.12,0.57,0.29
-0.12,0.58,0.28
-0.12,0.58,0.27
-0.12,0.59,0.27
-0.12,0.6,0.28
-0.12,0.58,0.28
-0.12,0.57,0.28
-0.12,0.58,0.29
-0.11,0.57,0.29
-0.1,0.57,0.28
-0.09,0.57,0.28
-0.08,0.57,0.3
-0.08,0.57,0.32
-0.07,0.56,0.34
-0.06,0.56,0.36
-0.05,0.56,0.37
-0.04,0.55,0.38
-0.02,0.54,0.38
-0.01,0.53,0.38
0,0.5,0.39
0.01,0.48,0.39
0.01,0.46,0.4
0.01,0.45,0.41
0,0.44,0.41
0.01,0.42,0.37
0.12,0.4,0.35
0.17,0.37,0.33
0.23,0.34,0.32
0.29,0.3,0.32
0.36,0.28,0.33
0.4,0.27,0.33
0.44,0.25,0.33
0.47,0.23,0.31
0.51,0.21,0.27
0.53,0.18,0.24
0.53,0.16,0.23
0.55,0.13,0.23
0.59,0.09,0.28
0.65,0.06,0.34
0.73,0.02,0.4
0.81,0,0.43
0.86,-0.03,0.41
0.86,-0.05,0.38
0.82,-0.09,0.37
0.77,-0.13,0.41
0.75,-0.17,0.47
0.78,-0.23,0.55
0.88,-0.3,0.71
1.01,-0.37,0.9
1.08,-0.44,1.02
1.09,-0.48,1.22
0.91,-0.55,1.22
0.8,-0.6,1.23
0.73,-0.64,1.25
1.3,-1.23,0.73
2.94,-0.69,2.09
2.7,0.34,3.99
0.59,-0.93,3.53
0.1,-1.08,2.46
0.32,0.21,1.41
0.17,0.4,0.82
0.07,0.17,0.57
0.03,-0.03,0.41
0.15,0.04,0.3
0.35,0.16,0.29
0.46,0.07,0.37
0.45,-0.09,0.47
0.43,-0.22,0.55
0.44,-0.29,0.59
0.51,-0.36,0.58
0.63,-0.42,0.62
0.81,-0.48,0.79
0.98,-0.49,0.95
1.04,-0.45,0.93
1.03,-0.42,0.84
0.93,-0.4,0.8
0.77,-0.42,0.75
0.6,-0.45,0.7
0.56,-0.44,0.63
0.53,-0.44,0.57
0.53,-0.43,0.53
0.58,-0.43,0.51
0.64,-0.43,0.52
0.66,-0.43,0.55
0.69,-0.43,0.61
0.72,-0.43,0.65
0.76,-0.42,0.67
0.78,-0.41,0.67
0.78,-0.4,0.67
0.76,-0.4,0.67
0.72,-0.39,0.66
0.67,-0.38,0.64
0.65,-0.38,0.63
0.64,-0.38,0.62
0.64,-0.38,0.63
0.64,-0.39,0.64
0.66,-0.39,0.66
0.67,-0.39,0.67
0.68,-0.4,0.69
0.68,-0.4,0.69
0.67,-0.39,0.69
0.67,-0.39,0.69
0.67,-0.38,0.66
0.66,-0.37,0.66
0.66,-0.36,0.66
0.66,-0.36,0.66
0.66,-0.36,0.67
0.66,-0.36,0.67
0.67,-0.36,0.68
0.68,-0.35,0.68
0.68,-0.35,0.68
0.68,-0.35,0.68
0.68,-0.35,0.68
0.68,-0.35,0.67
0.67,-0.36,0.67
0.67,-0.36,0.67
0.67,-0.36,0.67
0.67,-0.37,0.67
0.66,-0.37,0.67
0.66,-0.37,0.67
0.66,-0.37,0.67
0.67,-0.37,0.67
0.67,-0.37,0.67
0.67,-0.37,0.67
0.67,-0.37,0.67
0.67,-0.37,0.66
0.67,-0.37,0.66
0.67,-0.37,0.66
0.68,-0.37,0.66
0.68,-0.37,0.65
0.68,-0.37,0.65
0.68,-0.37,0.65
0.68,-0.37,0.65
0.68,-0.37,0.65
0.68,-0.37,0.65
0.68,-0.37,0.65
0.68,-0.37,0.65
0.68,-0.37,0.66
0.68,-0.38,0.66
0.68,-0.37,0.65
0.68,-0.37,0.65
0.67,-0.38,0.65
0.67,-0.38,0.66
0.67,-0.38,0.66
0.67,-0.38,0.66
0.67,-0.37,0.66
0.67,-0.37,0.66
0.67,-0.37,0.66
0.67,-0.37,0.66
0.67,-0.37,0.66
0.68,-0.37,0.66
0.68,-0.36,0.66
0.68,-0.36,0.67
0.68,-0.36,0.67
0.68,-0.36,0.66
0.68,-0.36,0.66
0.68,-0.37,0.66
0.68,-0.37,0.66
0.68,-0.37,0.66
0.68,-0.37,0.66
0.68,-0.37,0.65
0.68,-0.37,0.66
0.68,-0.37,0.66
0.68,-0.37,0.66
0.68,-0.37,0.66
0.68,-0.37,0.66
0.68,-0.37,0.66
0.68,-0.37,0.65
0.67,-0.37,0.66
0.67,-0.37,0.66
0.67,-0.37,0.66
0.68,-0.37,0.66
0.68,-0.37,0.66
0.68,-0.37,0.66
0.68,-0.37,0.66
0.68,-0.37,0.66
0.68,-0.37,0.66
0.68,-0.37,0.66
0.68,-0.37,0.66
0.68,-0.37,0.66
0.68,-0.37,0.66
0.68,-0.37,0.66
0.68,-0.37,0.66
0.68,-0.37,0.66
0.68,-0.37,0.65
0.68,-0.37,0.65
0.68,-0.37,0.66
0.68,-0.37,0.66
0.68,-0.37,0.66
0.68,-0.37,0.66
0.68,-0.37,0.66
0.68,-0.37,0.66
0.67,-0.37,0.66
0.68,-0.37,0.66
0.68,-0.37,0.66
0.68,-0.37,0.66
0.67,-0.37,0.66
0.67,-0.37,0.66
0.68,-0.37,0.66
0.68,-0.37,0.66
0.68,-0.37,0.66
0.68,-0.37,0.65
0.68,-0.37,0.65
0.68,-0.37,0.66
0.68,-0.37,0.65
0.68,-0.37,0.65
0.68,-0.37,0.65
0.68,-0.37,0.66
0.68,-0.37,0.66
0.68,-0.38,0.66
0.68,-0.37,0.66
0.68,-0.37,0.66
0.68,-0.37,0.66
0.67,-0.37,0.66
0.68,-0.37,0.66
0.68,-0.37,0.66
0.68,-0.37,0.66
0.68,-0.37,0.66
0.68,-0.38,0.66
0.68,-0.37,0.65
0.68,-0.37,0.65
0.68,-0.37,0.66
0.68,-0.38,0.66
0.68,-0.38,0.66
0.67,-0.38,0.65
0.67,-0.38,0.65
0.67,-0.38,0.65
0.67,-0.38,0.65
0.67,-0.38,0.65
0.68,-0.38,0.65
0.68,-0.38,0.66
0.68,-0.38,0.66
0.68,-0.37,0.66
0.68,-0.37,0.66
0.68,-0.37,0.66
0.68,-0.37,0.66
0.68,-0.37,0.66
0.68,-0.37,0.66
0.68,-0.37,0.65
0.68,-0.37,0.65
0.68,-0.38,0.65
0.68,-0.38,0.65
0.68,-0.38,0.65
0.68,-0.38,0.65
0.68,-0.38,0.66
0.68,-0.38,0.65
0.67,-0.38,0.65
0.67,-0.38,0.65
0.67,-0.38,0.65
0.68,-0.38,0.66
0.67,-0.38,0.66
0.67,-0.38,0.66
0.68,-0.38,0.66
0.68,-0.38,0.66
0.67,-0.38,0.66
0.67,-0.38,0.66
0.67,-0.38,0.65
0.68,-0.37,0.65
0.68,-0.37,0.65
0.68,-0.37,0.65
0.68,-0.37,0.65
0.68,-0.37,0.65
0.68,-0.37,0.65
0.68,-0.37,0.65
0.68,-0.38,0.65
0.68,-0.38,0.66
0.67,-0.37,0.66
0.67,-0.38,0.66
0.68,-0.38,0.66
0.68,-0.38,0.66
0.7,-0.38,0.66
0.7,-0.37,0.67
0.71,-0.37,0.69
0.7,-0.36,0.71
0.69,-0.36,0.74
0.71,-0.37,0.79
0.71,-0.37,0.84
0.73,-0.37,0.92
0.8,-0.38,1.02
0.85,-0.37,1.12
0.9,-0.36,1.2
0.99,-0.41,1.26
1,-0.45,1.3
0.96,-0.42,1.26
1.01,-0.37,1.15
1.1,-0.32,1.1
1.2,-0.24,1.18
1.19,-0.21,1.26
1.15,-0.21,1.3
1.15,-0.21,1.32
1.14,-0.19,1.28
1.14,-0.19,1.23
1.17,-0.2,1.18
1.18,-0.2,1.12
1.16,-0.21,1.05
1.16,-0.21,1
1.18,-0.21,0.97
1.23,-0.21,0.97
1.3,-0.21,0.97
1.34,-0.23,0.95
1.36,-0.23,0.91
1.33,-0.22,0.84
1.2,-0.18,0.73
1.01,-0.1,0.6
0.8,0,0.48
0.63,0.1,0.4
0.51,0.19,0.36
0.41,0.25,0.33
0.31,0.3,0.3
0.22,0.35,0.27
0.15,0.4,0.26
0.12,0.42,0.24
0.05,0.47,0.24
0.02,0.5,0.22
-0.01,0.52,0.21
-0.03,0.53,0.2
-0.04,0.53,0.21
-0.05,0.53,0.21
-0.06,0.53,0.22
-0.09,0.53,0.24
-0.12,0.53,0.23
-0.14,0.53,0.22
-0.17,0.54,0.2
-0.18,0.53,0.17
-0.19,0.54,0.15
-0.2,0.55,0.14
-0.2,0.55,0.15
-0.2,0.54,0.17
-0.19,0.53,0.19
-0.18,0.53,0.21
-0.18,0.53,0.21
-0.19,0.53,0.19
-0.19,0.53,0.18
-0.2,0.54,0.18
-0.21,0.55,0.19
-0.22,0.55,0.19
-0.22,0.55,0.19
-0.22,0.56,0.19
-0.24,0.57,0.2
-0.24,0.57,0.21
-0.25,0.56,0.24
-0.26,0.56,0.27
-0.26,0.56,0.29
-0.25,0.57,0.3
-0.25,0.58,0.3
-0.24,0.6,0.28
-0.23,0.61,0.26
-0.22,0.61,0.25
-0.22,0.62,0.24
-0.21,0.62,0.23
-0.2,0.59,0.25
-0.18,0.56,0.28
-0.15,0.53,0.3
-0.11,0.51,0.3
-0.06,0.48,0.27
0.01,0.46,0.24
0.08,0.43,0.2
0.14,0.41,0.17
0.18,0.39,0.14
0.19,0.35,0.14
0.18,0.3,0.19
0.18,0.27,0.29
0.21,0.25,0.37
0.26,0.22,0.43
0.31,0.21,0.45
0.39,0.21,0.4
0.41,0.22,0.33
0.43,0.22,0.27
0.46,0.22,0.23
0.53,0.21,0.24
0.57,0.19,0.28
0.59,0.18,0.36
0.66,0.15,0.45
0.7,0.12,0.51
0.69,0.09,0.51
0.67,0.08,0.47
0.64,0.05,0.44
0.66,-0.01,0.54
0.76,-0.07,0.72
0.88,-0.15,0.87
0.97,-0.2,1
1.11,-0.24,1.14
1.19,-0.29,1.24
1.15,-0.33,1.26
1.11,-0.34,1.16
1.01,-0.37,1.02
1.12,-0.68,0.73
2.64,-0.77,2.24
3.74,-0.12,3.99
2.08,-0.36,3.94
0.47,-0.03,2.05
0.45,0.22,1.29
0.33,0.01,0.95
0.12,-0.09,0.7
0.06,-0.02,0.48
0.16,0.07,0.33
0.27,0.07,0.24
0.36,-0.01,0.2
0.42,-0.12,0.23
0.45,-0.18,0.27
0.51,-0.22,0.31
0.58,-0.28,0.36
0.63,-0.33,0.46
0.7,-0.39,0.59
0.83,-0.45,0.73
0.97,-0.49,0.86
1.06,-0.47,0.91
1.03,-0.45,0.86
0.93,-0.46,0.8
0.82,-0.48,0.81
0.74,-0.46,0.8
0.69,-0.44,0.76
0.62,-0.43,0.71
0.56,-0.42,0.66
0.53,-0.41,0.61
0.51,-0.41,0.57
0.52,-0.41,0.56
0.61,-0.42,0.57
0.66,-0.44,0.6
0.7,-0.46,0.64
0.75,-0.47,0.67
0.77,-0.47,0.7
0.74,-0.48,0.71
0.7,-0.48,0.71
0.66,-0.47,0.7
0.62,-0.46,0.69
0.58,-0.45,0.69
0.55,-0.44,0.69
0.55,-0.42,0.68
0.57,-0.41,0.69
0.59,-0.4,0.69
0.6,-0.39,0.7
0.62,-0.39,0.71
0.64,-0.38,0.72
0.65,-0.37,0.72
0.65,-0.36,0.72
0.65,-0.36,0.71
0.65,-0.36,0.7
0.64,-0.36,0.7
0.64,-0.36,0.7
0.63,-0.36,0.7
0.63,-0.36,0.71
0.63,-0.36,0.7
0.63,-0.36,0.7
0.64,-0.36,0.7
0.64,-0.36,0.7
0.64,-0.36,0.71
0.64,-0.36,0.71
0.65,-0.36,0.7
0.65,-0.36,0.7
0.64,-0.36,0.7
0.64,-0.36,0.7
0.64,-0.36,0.69
0.64,-0.36,0.69
0.64,-0.36,0.69
0.65,-0.36,0.69
0.65,-0.36,0.69
0.65,-0.36,0.69
0.65,-0.36,0.69
0.65,-0.37,0.69
0.65,-0.37,0.69
0.65,-0.37,0.69
0.64,-0.36,0.69
0.65,-0.37,0.68
0.65,-0.37,0.68
0.65,-0.37,0.68
0.65,-0.37,0.68
0.65,-0.37,0.69
0.66,-0.36,0.69
0.65,-0.37,0.69
0.65,-0.37,0.69
0.65,-0.37,0.69
0.65,-0.37,0.69
0.64,-0.38,0.69
0.64,-0.38,0.69
0.64,-0.38,0.69
0.64,-0.38,0.69
0.64,-0.38,0.69
0.63,-0.38,0.69
0.63,-0.38,0.7
0.63,-0.38,0.7
0.63,-0.38,0.7
0.64,-0.37,0.7
0.64,-0.37,0.7
0.64,-0.37,0.7
0.64,-0.37,0.7
0.64,-0.37,0.7
0.64,-0.37,0.7
0.63,-0.37,0.69
0.64,-0.38,0.69
0.64,-0.38,0.69
0.64,-0.38,0.69
0.65,-0.38,0.69
0.65,-0.38,0.69
0.65,-0.37,0.69
0.65,-0.37,0.69
0.65,-0.37,0.69
0.65,-0.37,0.69
0.65,-0.37,0.69
0.64,-0.37,0.69
0.64,-0.36,0.69
0.65,-0.36,0.69
0.65,-0.37,0.69
0.65,-0.36,0.69
0.65,-0.36,0.69
0.65,-0.36,0.69
0.65,-0.36,0.69
0.65,-0.37,0.69
0.65,-0.37,0.69
0.65,-0.36,0.69
0.65,-0.36,0.69
0.65,-0.36,0.69
0.65,-0.36,0.69
0.65,-0.36,0.69
0.65,-0.37,0.69
0.64,-0.37,0.69
0.64,-0.37,0.69
0.64,-0.37,0.69
0.64,-0.37,0.69
0.64,-0.37,0.69
0.64,-0.37,0.69
0.64,-0.37,0.69
0.64,-0.37,0.69
0.64,-0.37,0.69
0.64,-0.37,0.69
0.64,-0.37,0.69
0.65,-0.37,0.69
0.65,-0.37,0.69
0.65,-0.37,0.69
0.65,-0.37,0.69
0.65,-0.37,0.69
0.65,-0.37,0.69
0.65,-0.37,0.69
0.65,-0.37,0.69
0.65,-0.37,0.69
0.65,-0.37,0.69
0.64,-0.37,0.69
0.65,-0.37,0.69
0.65,-0.37,0.69
0.65,-0.37,0.69
0.65,-0.37,0.69
0.65,-0.37,0.69
0.64,-0.37,0.69
0.64,-0.38,0.69
0.64,-0.37,0.69
0.64,-0.38,0.69
0.64,-0.37,0.69
0.64,-0.38,0.69
0.64,-0.37,0.69
0.64,-0.37,0.69
0.64,-0.37,0.69
0.64,-0.37,0.69
0.64,-0.37,0.69
0.64,-0.38,0.69
0.64,-0.38,0.69
0.63,-0.38,0.69
0.64,-0.37,0.69
0.64,-0.38,0.69
0.64,-0.38,0.69
0.63,-0.38,0.69
0.64,-0.38,0.69
0.64,-0.38,0.69
0.64,-0.37,0.69
0.64,-0.37,0.69
0.64,-0.37,0.69
0.64,-0.37,0.69
0.64,-0.37,0.69
0.64,-0.37,0.69
0.64,-0.37,0.69
0.64,-0.37,0.69
0.64,-0.37,0.69
0.64,-0.38,0.69
0.64,-0.38,0.69
0.64,-0.38,0.69
0.64,-0.38,0.69
0.64,-0.38,0.69
0.64,-0.38,0.69
0.64,-0.38,0.69
0.64,-0.38,0.69
0.64,-0.38,0.69
0.63,-0.38,0.69
0.64,-0.38,0.69
0.64,-0.38,0.69
0.64,-0.38,0.69
0.64,-0.38,0.69
0.64,-0.38,0.69
0.64,-0.38,0.69
0.64,-0.37,0.69
0.64,-0.37,0.69
0.64,-0.37,0.69
0.64,-0.37,0.69
0.64,-0.37,0.69
0.64,-0.37,0.69
0.64,-0.37,0.69
0.64,-0.38,0.69
0.64,-0.38,0.69
0.64,-0.37,0.69
0.64,-0.38,0.69
0.64,-0.38,0.69
0.64,-0.38,0.69
0.64,-0.38,0.69
0.64,-0.38,0.69
0.64,-0.38,0.69
0.64,-0.38,0.69
0.64,-0.38,0.69
0.64,-0.38,0.69
0.64,-0.38,0.69
0.64,-0.38,0.69
0.64,-0.38,0.69
0.64,-0.38,0.69
0.64,-0.38,0.69
0.64,-0.37,0.69
0.64,-0.38,0.69
0.64,-0.38,0.69
0.64,-0.38,0.69
0.64,-0.38,0.69
0.64,-0.38,0.69
0.64,-0.38,0.69
0.64,-0.38,0.69
0.64,-0.38,0.69
0.64,-0.38,0.69
0.64,-0.38,0.69
0.64,-0.38,0.69
0.64,-0.38,0.69
0.63,-0.38,0.69
0.64,-0.38,0.69
0.64,-0.38,0.69
0.64,-0.38,0.69
0.64,-0.38,0.69
0.64,-0.38,0.69
0.64,-0.38,0.69
0.64,-0.38,0.69
0.64,-0.38,0.69
0.63,-0.38,0.69
0.63,-0.38,0.69
0.64,-0.38,0.69
0.64,-0.38,0.69
0.64,-0.38,0.69
0.64,-0.38,0.69
0.64,-0.38,0.69
0.64,-0.38,0.69
0.64,-0.38,0.69
0.64,-0.38,0.69
0.64,-0.38,0.69
0.64,-0.37,0.69
0.64,-0.37,0.69
0.64,-0.38,0.69
0.63,-0.38,0.69
0.64,-0.38,0.69
0.64,-0.37,0.69
0.64,-0.38,0.69
0.64,-0.38,0.68
