Acc_x,Acc_y,Acc_z
0.67,-0.45,0.62
0.67,-0.45,0.62
0.67,-0.45,0.62
0.67,-0.45,0.62
0.67,-0.45,0.62
0.67,-0.44,0.62
0.67,-0.44,0.62
0.67,-0.45,0.62
0.66,-0.45,0.62
0.66,-0.45,0.62
0.66,-0.45,0.62
0.67,-0.45,0.62
0.66,-0.45,0.63
0.67,-0.45,0.63
0.67,-0.45,0.62
0.66,-0.45,0.62
0.67,-0.45,0.62
0.67,-0.45,0.62
0.66,-0.45,0.62
0.66,-0.45,0.62
0.66,-0.45,0.62
0.67,-0.45,0.62
0.67,-0.45,0.62
0.67,-0.45,0.62
0.67,-0.45,0.62
0.67,-0.45,0.62
0.67,-0.45,0.62
0.67,-0.45,0.62
0.67,-0.45,0.62
0.67,-0.45,0.62
0.67,-0.45,0.62
0.67,-0.44,0.62
0.67,-0.44,0.62
0.67,-0.45,0.62
0.67,-0.45,0.62
0.67,-0.45,0.62
0.67,-0.45,0.62
0.67,-0.45,0.62
0.67,-0.45,0.62
0.67,-0.45,0.62
0.67,-0.45,0.62
0.67,-0.45,0.62
0.67,-0.45,0.62
0.67,-0.45,0.62
0.67,-0.44,0.62
0.67,-0.44,0.62
0.67,-0.44,0.62
0.67,-0.44,0.62
0.67,-0.44,0.62
0.67,-0.44,0.62
0.66,-0.44,0.62
0.67,-0.45,0.62
0.67,-0.45,0.62
0.67,-0.45,0.62
0.67,-0.45,0.62
0.67,-0.45,0.62
0.67,-0.45,0.62
0.67,-0.45,0.62
0.67,-0.45,0.62
0.67,-0.45,0.62
0.67,-0.44,0.62
0.67,-0.44,0.62
0.67,-0.44,0.62
0.67,-0.44,0.62
0.67,-0.44,0.62
0.66,-0.44,0.63
0.66,-0.44,0.65
0.66,-0.45,0.66
0.66,-0.45,0.68
0.65,-0.49,0.73
0.72,-0.5,0.75
0.74,-0.49,0.77
0.74,-0.49,0.81
0.78,-0.49,0.86
0.81,-0.49,0.92
0.79,-0.46,1.02
0.8,-0.45,1.08
0.79,-0.43,1.11
0.73,-0.4,1.12
0.73,-0.4,1.09
0.79,-0.4,1.06
0.88,-0.38,1.05
0.98,-0.36,1.05
1.04,-0.34,1.1
1.06,-0.33,1.18
1.04,-0.32,1.26
1.02,-0.31,1.31
1.01,-0.29,1.32
1.01,-0.27,1.28
1.01,-0.24,1.22
1.02,-0.22,1.17
1.01,-0.21,1.14
1.02,-0.19,1.11
1.04,-0.17,1.06
1.06,-0.14,1.01
1.04,-0.1,0.91
0.97,-0.08,0.88
0.94,-0.04,0.83
0.91,0,0.8
0.89,0.03,0.77
0.86,0.06,0.74
0.81,0.09,0.69
0.76,0.11,0.64
0.72,0.14,0.6
0.68,0.16,0.56
0.62,0.18,0.52
0.61,0.2,0.5
0.6,0.22,0.5
0.56,0.24,0.47
0.52,0.25,0.44
0.49,0.27,0.41
0.44,0.28,0.38
0.4,0.29,0.36
0.38,0.3,0.33
0.36,0.32,0.31
0.33,0.34,0.29
0.31,0.35,0.27
0.27,0.36,0.25
0.24,0.36,0.24
0.21,0.37,0.23
0.19,0.38,0.23
0.16,0.39,0.22
0.12,0.41,0.23
0.11,0.42,0.25
0.09,0.43,0.26
0.07,0.44,0.26
0.06,0.45,0.27
0.05,0.46,0.28
0.03,0.46,0.3
0.01,0.46,0.29
-0.01,0.46,0.28
-0.02,0.45,0.26
-0.02,0.45,0.25
-0.02,0.45,0.24
-0.03,0.47,0.24
-0.04,0.48,0.23
-0.03,0.48,0.24
-0.03,0.49,0.24
-0.01,0.51,0.25
0,0.52,0.26
0.01,0.51,0.27
0.02,0.51,0.26
0.04,0.5,0.24
0.06,0.48,0.25
0.08,0.46,0.27
0.1,0.45,0.3
0.14,0.45,0.32
0.17,0.46,0.31
0.25,0.46,0.29
0.3,0.43,0.27
0.31,0.39,0.24
0.31,0.35,0.24
0.33,0.3,0.27
0.38,0.28,0.3
0.44,0.28,0.3
0.47,0.28,0.3
0.49,0.28,0.29
0.5,0.28,0.26
0.5,0.25,0.23
0.51,0.21,0.21
0.54,0.15,0.26
0.61,0.08,0.42
0.71,0.03,0.58
0.74,-0.02,0.66
0.74,-0.07,0.7
0.74,-0.09,0.69
0.75,-0.12,0.62
0.77,-0.17,0.52
0.83,-0.24,0.45
0.9,-0.32,0.44
0.95,-0.4,0.57
0.96,-0.5,0.77
0.97,-0.6,0.92
0.94,-0.66,0.99
0.84,-0.77,0.97
0.86,-0.89,1
2.43,-1.28,2.51
2.46,-0.62,3.99
1.47,-0.79,4
1.27,-1.39,3.31
0.5,-0.48,2.08
0.51,-0.02,1.12
0.53,0.06,0.53
0.52,0,0.28
0.49,-0.07,0.2
0.42,-0.08,0.19
0.39,-0.11,0.19
0.4,-0.15,0.2
0.41,-0.2,0.23
0.44,-0.27,0.27
0.47,-0.33,0.33
0.5,-0.4,0.4
0.56,-0.47,0.51
0.65,-0.54,0.66
0.74,-0.59,0.81
0.8,-0.63,0.91
0.83,-0.63,0.93
0.82,-0.61,0.88
0.79,-0.59,0.79
0.74,-0.56,0.6
0.64,-0.52,0.53
0.61,-0.5,0.49
0.61,-0.49,0.47
0.61,-0.5,0.47
0.61,-0.49,0.49
0.61,-0.49,0.53
0.6,-0.48,0.57
0.61,-0.48,0.6
0.63,-0.48,0.64
0.64,-0.48,0.67
0.65,-0.48,0.68
0.67,-0.47,0.68
0.68,-0.47,0.67
0.69,-0.47,0.66
0.69,-0.47,0.65
0.68,-0.47,0.63
0.68,-0.47,0.62
0.66,-0.47,0.62
0.65,-0.47,0.62
0.63,-0.47,0.62
0.63,-0.47,0.62
0.62,-0.47,0.63
0.63,-0.48,0.64
0.63,-0.48,0.64
0.64,-0.47,0.64
0.65,-0.47,0.64
0.65,-0.46,0.63
0.65,-0.46,0.62
0.65,-0.46,0.62
0.65,-0.46,0.62
0.65,-0.46,0.62
0.65,-0.46,0.62
0.65,-0.46,0.62
0.66,-0.46,0.63
0.66,-0.46,0.63
0.66,-0.46,0.63
0.66,-0.46,0.64
0.66,-0.46,0.63
0.66,-0.46,0.63
0.65,-0.47,0.63
0.65,-0.47,0.63
0.65,-0.47,0.62
0.65,-0.47,0.62
0.65,-0.47,0.62
0.65,-0.47,0.62
0.65,-0.47,0.62
0.65,-0.48,0.62
0.66,-0.48,0.62
0.66,-0.48,0.62
0.66,-0.47,0.62
0.65,-0.47,0.62
0.65,-0.47,0.61
0.65,-0.48,0.61
0.65,-0.47,0.61
0.64,-0.47,0.61
0.65,-0.48,0.61
0.65,-0.48,0.61
0.65,-0.48,0.62
0.65,-0.48,0.62
0.65,-0.48,0.62
0.65,-0.48,0.62
0.65,-0.48,0.62
0.65,-0.48,0.62
0.65,-0.48,0.62
0.64,-0.48,0.62
0.64,-0.47,0.62
0.64,-0.47,0.62
0.64,-0.47,0.62
0.64,-0.47,0.62
0.65,-0.47,0.62
0.65,-0.47,0.63
0.65,-0.47,0.63
0.65,-0.47,0.63
0.65,-0.47,0.62
0.65,-0.47,0.62
0.65,-0.47,0.62
0.65,-0.47,0.62
0.65,-0.47,0.62
0.65,-0.47,0.62
0.65,-0.47,0.62
0.65,-0.47,0.62
0.65,-0.47,0.63
0.65,-0.47,0.62
0.65,-0.47,0.62
0.65,-0.48,0.62
0.65,-0.48,0.62
0.65,-0.47,0.62
0.65,-0.47,0.62
0.65,-0.48,0.61
0.65,-0.48,0.61
0.65,-0.48,0.62
0.65,-0.48,0.62
0.65,-0.48,0.62
0.65,-0.48,0.62
0.65,-0.48,0.62
0.65,-0.47,0.62
0.65,-0.47,0.62
0.65,-0.48,0.62
0.65,-0.48,0.62
0.65,-0.48,0.62
0.65,-0.48,0.62
0.65,-0.48,0.62
0.65,-0.48,0.62
0.64,-0.48,0.62
0.64,-0.48,0.62
0.65,-0.48,0.62
0.65,-0.48,0.62
0.65,-0.48,0.62
0.65,-0.47,0.62
0.65,-0.47,0.63
0.65,-0.47,0.63
0.65,-0.47,0.63
0.65,-0.47,0.62
0.65,-0.47,0.62
0.65,-0.48,0.62
0.65,-0.48,0.62
0.65,-0.48,0.62
0.65,-0.48,0.62
0.65,-0.48,0.62
0.65,-0.48,0.61
0.65,-0.48,0.61
0.65,-0.48,0.62
0.66,-0.48,0.62
0.66,-0.48,0.62
0.65,-0.48,0.62
0.65,-0.47,0.62
0.65,-0.48,0.62
0.65,-0.48,0.62
0.65,-0.47,0.62
0.65,-0.47,0.62
0.65,-0.47,0.62
0.65,-0.47,0.62
0.65,-0.47,0.62
0.65,-0.47,0.62
0.65,-0.48,0.62
0.65,-0.47,0.62
0.66,-0.47,0.62
0.66,-0.47,0.62
0.65,-0.47,0.62
0.66,-0.47,0.62
0.66,-0.47,0.62
0.66,-0.47,0.62
0.66,-0.47,0.62
0.65,-0.47,0.62
0.65,-0.47,0.62
0.65,-0.47,0.62
0.65,-0.47,0.62
0.65,-0.47,0.62
0.65,-0.47,0.62
0.65,-0.47,0.62
0.65,-0.48,0.62
0.65,-0.47,0.62
0.65,-0.47,0.62
0.65,-0.47,0.62
0.65,-0.47,0.62
0.65,-0.47,0.62
0.66,-0.47,0.62
0.66,-0.47,0.62
0.66,-0.47,0.62
0.66,-0.47,0.62
0.66,-0.47,0.62
0.66,-0.47,0.62
0.66,-0.47,0.62
0.66,-0.47,0.62
0.66,-0.47,0.62
0.65,-0.48,0.62
0.65,-0.48,0.62
0.65,-0.48,0.61
0.65,-0.48,0.62
0.65,-0.47,0.61
0.65,-0.47,0.61
0.65,-0.47,0.62
0.65,-0.48,0.62
0.65,-0.48,0.62
0.65,-0.48,0.62
0.65,-0.48,0.62
0.65,-0.47,0.62
0.65,-0.47,0.62
0.65,-0.47,0.62
0.66,-0.46,0.63
0.65,-0.46,0.64
0.65,-0.46,0.65
0.65,-0.47,0.65
0.65,-0.47,0.66
0.67,-0.48,0.66
0.68,-0.49,0.67
0.68,-0.5,0.69
0.66,-0.49,0.71
0.63,-0.48,0.73
0.63,-0.48,0.75
0.65,-0.48,0.77
0.67,-0.47,0.8
0.71,-0.46,0.88
0.76,-0.46,0.98
0.77,-0.48,1.03
0.76,-0.5,1.04
0.74,-0.49,1.03
0.72,-0.46,1
0.71,-0.43,0.95
0.76,-0.42,0.92
0.86,-0.42,0.93
0.95,-0.4,0.99
0.97,-0.38,1.06
0.95,-0.36,1.12
0.89,-0.35,1.2
0.83,-0.31,1.21
0.84,-0.28,1.21
0.86,-0.26,1.19
0.9,-0.24,1.16
0.94,-0.23,1.12
0.97,-0.22,1.09
1,-0.21,1.06
1.02,-0.2,1.01
1.01,-0.19,0.97
0.98,-0.16,0.93
0.97,-0.13,0.91
0.97,-0.1,0.9
0.96,-0.07,0.88
0.91,-0.04,0.84
0.84,0.01,0.79
0.78,0.08,0.76
0.75,0.12,0.74
0.73,0.16,0.72
0.71,0.19,0.71
0.68,0.23,0.69
0.63,0.26,0.66
0.6,0.28,0.63
0.58,0.3,0.61
0.56,0.32,0.59
0.58,0.33,0.58
0.58,0.33,0.57
0.55,0.35,0.53
0.47,0.36,0.51
0.41,0.37,0.49
0.36,0.39,0.47
0.32,0.41,0.46
0.29,0.42,0.46
0.28,0.42,0.46
0.26,0.42,0.47
0.24,0.42,0.47
0.22,0.43,0.48
0.18,0.43,0.48
0.14,0.44,0.47
0.13,0.45,0.47
0.11,0.46,0.44
0.08,0.48,0.42
0.06,0.5,0.39
0.05,0.51,0.38
0.04,0.52,0.37
0.03,0.53,0.37
0.02,0.54,0.37
0.02,0.56,0.38
0,0.56,0.39
-0.01,0.58,0.39
-0.02,0.59,0.38
-0.02,0.6,0.37
-0.03,0.61,0.36
-0.04,0.63,0.35
-0.05,0.63,0.34
-0.05,0.64,0.33
-0.06,0.64,0.32
-0.08,0.64,0.32
-0.1,0.64,0.35
-0.11,0.64,0.38
-0.13,0.63,0.4
-0.15,0.64,0.42
-0.16,0.65,0.42
-0.16,0.66,0.4
-0.15,0.67,0.37
-0.14,0.68,0.33
-0.11,0.67,0.3
-0.07,0.68,0.32
-0.08,0.7,0.34
-0.07,0.7,0.36
-0.07,0.69,0.38
-0.05,0.68,0.39
-0.03,0.66,0.38
-0.01,0.63,0.38
0.01,0.6,0.39
0.04,0.57,0.39
0.05,0.54,0.39
0.06,0.51,0.38
0.08,0.51,0.39
0.08,0.5,0.4
0.08,0.48,0.41
0.1,0.45,0.42
0.13,0.43,0.44
0.15,0.41,0.45
0.18,0.4,0.43
0.2,0.41,0.42
0.21,0.42,0.41
0.25,0.42,0.4
0.3,0.42,0.38
0.34,0.39,0.4
0.38,0.35,0.47
0.41,0.33,0.51
0.44,0.31,0.55
0.46,0.3,0.6
0.51,0.31,0.62
0.56,0.31,0.61
0.58,0.3,0.58
0.61,0.29,0.54
0.65,0.27,0.5
0.69,0.23,0.45
0.7,0.17,0.46
0.71,0.13,0.56
0.72,0.11,0.67
0.75,0.09,0.77
0.82,0.1,0.73
0.85,0.09,0.64
0.86,0.07,0.54
0.85,0.03,0.47
0.83,-0.01,0.48
0.82,-0.05,0.62
0.82,-0.08,0.8
0.78,-0.12,0.9
0.76,-0.16,0.97
0.82,-0.2,0.98
0.82,-0.25,0.9
0.77,-0.33,0.8
0.7,-0.41,0.73
1.02,-0.69,1.14
1.81,-0.96,2.77
2.06,-0.7,3.99
1.31,-0.74,3.69
0.64,-0.65,2.77
0.66,-0.11,1.69
0.68,0.05,0.9
0.52,0.03,0.47
0.56,-0.02,0.29
0.63,-0.04,0.21
0.55,-0.08,0.18
0.47,-0.14,0.18
0.51,-0.19,0.25
0.55,-0.27,0.31
0.56,-0.33,0.33
0.6,-0.4,0.32
0.65,-0.48,0.39
0.68,-0.58,0.59
0.73,-0.67,0.8
0.76,-0.71,0.93
0.76,-0.7,0.96
0.73,-0.65,0.89
0.72,-0.61,0.79
0.69,-0.57,0.68
0.65,-0.53,0.59
0.62,-0.5,0.52
0.61,-0.5,0.48
0.62,-0.51,0.47
0.62,-0.51,0.48
0.63,-0.51,0.5
0.63,-0.51,0.53
0.62,-0.52,0.58
0.61,-0.51,0.61
0.62,-0.51,0.64
0.63,-0.51,0.67
0.63,-0.5,0.69
0.63,-0.5,0.69
0.64,-0.5,0.7
0.64,-0.49,0.68
0.63,-0.48,0.66
0.62,-0.47,0.65
0.61,-0.47,0.64
0.61,-0.47,0.64
0.6,-0.47,0.65
0.6,-0.47,0.66
0.61,-0.47,0.67
0.61,-0.47,0.68
0.62,-0.46,0.69
0.62,-0.46,0.68
0.63,-0.45,0.68
0.63,-0.45,0.67
0.63,-0.45,0.66
0.63,-0.45,0.66
0.63,-0.45,0.66
0.63,-0.45,0.66
0.64,-0.44,0.66
0.64,-0.45,0.66
0.65,-0.44,0.66
0.65,-0.44,0.66
0.65,-0.44,0.66
0.65,-0.44,0.65
0.65,-0.44,0.65
0.65,-0.45,0.64
0.64,-0.45,0.64
0.64,-0.46,0.63
0.64,-0.46,0.63
0.64,-0.46,0.63
0.64,-0.46,0.63
0.64,-0.47,0.63
0.65,-0.47,0.63
0.65,-0.47,0.63
0.64,-0.47,0.63
0.64,-0.47,0.64
0.64,-0.47,0.63
0.64,-0.47,0.63
0.63,-0.47,0.64
0.63,-0.47,0.64
0.63,-0.47,0.64
0.63,-0.47,0.64
0.63,-0.47,0.64
0.63,-0.47,0.64
0.63,-0.47,0.64
0.63,-0.48,0.64
0.63,-0.48,0.64
0.63,-0.48,0.64
0.63,-0.47,0.64
0.63,-0.47,0.64
0.63,-0.47,0.64
0.63,-0.47,0.64
0.63,-0.47,0.64
0.63,-0.46,0.64
0.63,-0.47,0.65
0.63,-0.46,0.65
0.63,-0.47,0.64
0.63,-0.47,0.64
0.63,-0.47,0.64
0.63,-0.46,0.64
0.63,-0.47,0.64
0.63,-0.46,0.65
0.63,-0.46,0.65
0.63,-0.46,0.65
0.63,-0.46,0.64
0.64,-0.46,0.64
0.64,-0.46,0.64
0.64,-0.46,0.64
0.64,-0.46,0.64
0.64,-0.46,0.64
0.63,-0.46,0.64
0.64,-0.46,0.64
0.64,-0.46,0.64
0.64,-0.46,0.64
0.64,-0.46,0.64
0.64,-0.46,0.64
0.64,-0.46,0.63
0.64,-0.46,0.64
0.64,-0.46,0.64
0.64,-0.46,0.64
0.64,-0.46,0.64
0.64,-0.46,0.64
0.64,-0.46,0.64
0.64,-0.47,0.64
0.64,-0.46,0.64
0.64,-0.46,0.64
0.64,-0.46,0.64
0.64,-0.46,0.64
0.64,-0.46,0.64
0.64,-0.46,0.64
0.64,-0.45,0.64
0.64,-0.45,0.64
0.64,-0.46,0.64
0.64,-0.46,0.64
0.64,-0.46,0.64
0.64,-0.46,0.64
0.64,-0.46,0.64
0.64,-0.46,0.64
0.65,-0.46,0.64
0.64,-0.46,0.64
0.64,-0.46,0.64
0.65,-0.46,0.64
0.65,-0.46,0.63
0.65,-0.46,0.64
0.64,-0.46,0.64
0.64,-0.45,0.64
0.64,-0.45,0.64
0.64,-0.45,0.64
0.65,-0.45,0.64
0.65,-0.45,0.64
0.64,-0.45,0.64
0.64,-0.45,0.64
0.64,-0.46,0.64
0.64,-0.46,0.64
0.64,-0.46,0.64
0.65,-0.45,0.64
0.65,-0.45,0.64
0.65,-0.45,0.64
0.65,-0.45,0.64
0.65,-0.45,0.64
0.65,-0.45,0.64
0.65,-0.45,0.64
0.65,-0.45,0.64
0.65,-0.45,0.64
0.65,-0.45,0.64
0.65,-0.45,0.64
0.65,-0.45,0.64
0.65,-0.45,0.64
0.65,-0.46,0.64
0.64,-0.46,0.64
0.64,-0.46,0.64
0.64,-0.46,0.64
0.64,-0.46,0.64
0.64,-0.46,0.64
0.64,-0.46,0.64
0.64,-0.46,0.64
0.64,-0.46,0.64
0.64,-0.46,0.64
0.64,-0.46,0.64
0.64,-0.46,0.64
0.64,-0.46,0.64
0.64,-0.46,0.64
0.64,-0.46,0.64
0.64,-0.45,0.64
0.64,-0.45,0.64
0.64,-0.45,0.64
0.64,-0.45,0.64
0.64,-0.45,0.65
0.65,-0.45,0.66
0.65,-0.45,0.67
0.66,-0.46,0.68
0.66,-0.47,0.69
0.66,-0.48,0.69
0.64,-0.48,0.71
0.63,-0.47,0.73
0.6,-0.48,0.75
0.59,-0.48,0.77
0.62,-0.48,0.8
0.65,-0.48,0.83
0.72,-0.43,0.84
0.81,-0.44,0.87
0.88,-0.44,0.92
0.91,-0.44,0.98
0.91,-0.46,0.99
0.86,-0.47,0.98
0.82,-0.47,0.95
0.86,-0.46,0.94
0.92,-0.44,0.97
0.96,-0.41,1.01
0.96,-0.38,1.04
0.96,-0.36,1.07
0.94,-0.33,1.08
0.95,-0.3,1.09
0.98,-0.27,1.08
1,-0.27,1.06
1.01,-0.26,1.05
1.01,-0.26,1.02
1.01,-0.25,0.98
1,-0.24,0.95
1,-0.22,0.92
1.01,-0.19,0.9
1,-0.16,0.87
0.98,-0.12,0.83
0.95,-0.1,0.78
0.93,-0.08,0.72
0.9,-0.06,0.69
0.88,-0.03,0.66
0.87,-0.01,0.65
0.87,0.01,0.64
0.85,0.04,0.62
0.82,0.07,0.58
0.76,0.1,0.56
0.71,0.14,0.53
0.66,0.17,0.5
0.61,0.21,0.47
0.59,0.25,0.45
0.6,0.27,0.44
0.59,0.28,0.43
0.55,0.3,0.42
0.5,0.32,0.43
0.47,0.36,0.43
0.47,0.38,0.45
0.46,0.38,0.45
0.41,0.39,0.45
0.39,0.42,0.45
0.38,0.42,0.46
0.35,0.41,0.46
0.32,0.43,0.45
0.29,0.45,0.44
0.27,0.47,0.44
0.27,0.48,0.44
0.23,0.5,0.44
0.21,0.51,0.44
0.21,0.52,0.44
0.2,0.53,0.45
0.19,0.54,0.46
0.16,0.56,0.46
0.13,0.58,0.45
0.1,0.59,0.45
0.07,0.6,0.44
0.04,0.61,0.43
0.01,0.62,0.42
-0.01,0.62,0.41
-0.03,0.62,0.41
-0.05,0.62,0.42
-0.06,0.62,0.42
-0.06,0.62,0.42
-0.05,0.62,0.42
-0.05,0.62,0.44
-0.05,0.62,0.45
-0.06,0.63,0.44
-0.07,0.62,0.44
-0.08,0.62,0.44
-0.08,0.62,0.43
-0.08,0.62,0.43
-0.08,0.61,0.43
-0.06,0.61,0.43
-0.03,0.59,0.44
-0.02,0.59,0.46
0,0.58,0.47
0.01,0.57,0.47
0.03,0.55,0.47
0.05,0.53,0.47
0.07,0.51,0.45
0.09,0.49,0.44
0.1,0.48,0.42
0.11,0.48,0.39
0.13,0.47,0.35
0.13,0.46,0.3
0.13,0.45,0.25
0.11,0.43,0.19
0.06,0.39,0.19
0.05,0.35,0.23
0.11,0.31,0.26
0.23,0.29,0.25
0.36,0.27,0.24
0.49,0.24,0.23
0.57,0.21,0.22
0.55,0.2,0.22
0.51,0.16,0.2
0.54,0.1,0.23
0.6,0.05,0.33
0.66,0.04,0.41
0.73,0,0.42
0.89,-0.03,0.39
0.93,-0.04,0.36
0.99,-0.06,0.35
1.02,-0.1,0.36
1.04,-0.13,0.37
1.04,-0.16,0.4
1.03,-0.17,0.46
1.01,-0.19,0.51
1.02,-0.21,0.55
1.03,-0.25,0.56
0.99,-0.3,0.57
0.98,-0.36,0.57
0.98,-0.44,0.58
0.96,-0.55,0.61
0.9,-0.65,0.66
0.85,-0.73,0.74
1.27,-1.22,1.37
2.64,-1.27,2.96
2.75,-0.39,3.99
0.93,-0.42,3.54
-0.27,-0.67,2.66
-0.33,-0.33,1.89
-0.1,-0.21,1.3
0.09,-0.19,0.9
0.26,-0.16,0.6
0.31,-0.1,0.22
0.35,-0.1,0.19
0.35,-0.13,0.21
0.32,-0.18,0.25
0.34,-0.23,0.3
0.4,-0.26,0.31
0.45,-0.32,0.3
0.54,-0.39,0.33
0.68,-0.48,0.48
0.85,-0.56,0.7
1,-0.62,0.89
1.05,-0.65,1
1.01,-0.64,0.99
0.9,-0.63,0.93
0.8,-0.63,0.85
0.7,-0.61,0.75
0.6,-0.57,0.67
0.53,-0.53,0.63
0.51,-0.5,0.56
0.5,-0.47,0.52
0.5,-0.46,0.48
0.5,-0.46,0.46
0.52,-0.47,0.46
0.56,-0.48,0.48
0.6,-0.5,0.51
0.65,-0.53,0.55
0.7,-0.57,0.64
0.75,-0.58,0.67
0.73,-0.59,0.68
0.69,-0.59,0.69
0.65,-0.58,0.68
0.61,-0.56,0.67
0.57,-0.54,0.64
0.55,-0.52,0.63
0.55,-0.5,0.63
0.56,-0.49,0.63
0.58,-0.48,0.64
0.59,-0.47,0.66
0.6,-0.46,0.67
0.62,-0.45,0.67
0.63,-0.45,0.67
0.63,-0.45,0.67
0.64,-0.45,0.67
0.63,-0.45,0.67
0.62,-0.45,0.67
0.61,-0.45,0.67
0.61,-0.46,0.67
0.62,-0.46,0.66
0.62,-0.46,0.66
0.62,-0.46,0.66
0.62,-0.46,0.66
0.63,-0.46,0.66
0.63,-0.45,0.66
0.63,-0.45,0.66
0.63,-0.45,0.66
0.63,-0.45,0.65
0.63,-0.45,0.65
0.64,-0.45,0.64
0.64,-0.45,0.64
0.64,-0.45,0.64
0.64,-0.45,0.64
0.64,-0.45,0.64
0.64,-0.46,0.64
0.64,-0.46,0.64
0.64,-0.46,0.64
0.64,-0.47,0.64
0.64,-0.47,0.64
0.64,-0.47,0.64
0.63,-0.47,0.64
0.63,-0.47,0.64
0.63,-0.47,0.64
0.63,-0.47,0.64
0.63,-0.47,0.64
0.63,-0.47,0.64
0.64,-0.47,0.65
0.63,-0.47,0.65
0.63,-0.47,0.65
0.63,-0.47,0.65
0.63,-0.47,0.64
0.63,-0.46,0.65
0.63,-0.46,0.65
0.63,-0.46,0.65
0.63,-0.46,0.65
0.63,-0.46,0.65
0.63,-0.46,0.65
0.63,-0.46,0.65
0.63,-0.46,0.65
0.63,-0.46,0.65
0.63,-0.46,0.65
0.63,-0.46,0.65
0.63,-0.46,0.65
0.63,-0.46,0.65
0.63,-0.46,0.65
0.63,-0.46,0.65
0.63,-0.46,0.65
0.63,-0.46,0.65
0.63,-0.46,0.64
0.63,-0.46,0.64
0.63,-0.46,0.64
0.63,-0.46,0.64
0.63,-0.46,0.64
0.63,-0.46,0.65
0.63,-0.47,0.65
0.63,-0.47,0.65
0.63,-0.46,0.65
0.63,-0.46,0.65
0.63,-0.46,0.64
0.63,-0.46,0.64
0.63,-0.46,0.65
0.63,-0.46,0.65
0.63,-0.46,0.65
0.63,-0.46,0.65
0.63,-0.46,0.65
0.63,-0.46,0.65
0.63,-0.46,0.65
0.63,-0.46,0.65
0.63,-0.46,0.65
0.63,-0.46,0.65
0.63,-0.46,0.65
0.63,-0.46,0.65
0.63,-0.46,0.65
0.63,-0.46,0.65
0.63,-0.46,0.65
0.63,-0.46,0.65
0.63,-0.46,0.65
0.63,-0.46,0.65
0.63,-0.46,0.65
0.63,-0.46,0.65
0.63,-0.47,0.65
0.63,-0.46,0.65
0.63,-0.46,0.65
0.63,-0.46,0.65
0.63,-0.46,0.65
0.63,-0.46,0.65
0.63,-0.46,0.65
0.63,-0.46,0.65
0.63,-0.46,0.65
0.63,-0.46,0.65
0.63,-0.46,0.65
0.63,-0.46,0.65
0.63,-0.46,0.65
0.63,-0.46,0.65
0.63,-0.46,0.65
0.63,-0.46,0.65
0.63,-0.46,0.65
0.63,-0.46,0.65
0.63,-0.46,0.65
0.63,-0.46,0.65
0.63,-0.46,0.65
0.63,-0.46,0.65
0.63,-0.46,0.65
0.63,-0.46,0.65
0.63,-0.46,0.65
0.63,-0.46,0.65
0.63,-0.46,0.65
0.63,-0.46,0.65
0.63,-0.46,0.65
0.63,-0.46,0.65
0.63,-0.46,0.65
0.63,-0.46,0.65
0.63,-0.46,0.65
0.63,-0.46,0.65
0.63,-0.46,0.65
0.63,-0.46,0.65
0.63,-0.46,0.65
0.63,-0.45,0.65
0.63,-0.46,0.65
0.63,-0.46,0.65
0.63,-0.46,0.65
0.63,-0.46,0.65
0.64,-0.46,0.66
0.64,-0.46,0.67
0.63,-0.47,0.69
0.62,-0.47,0.71
0.62,-0.48,0.74
0.61,-0.5,0.75
0.59,-0.51,0.78
0.54,-0.49,0.79
0.5,-0.47,0.77
0.54,-0.5,0.71
0.64,-0.54,0.68
0.71,-0.54,0.74
0.74,-0.53,0.85
0.72,-0.53,1.06
0.68,-0.51,1.14
0.74,-0.47,1.18
0.75,-0.43,1.19
0.75,-0.38,1.19
0.76,-0.35,1.18
0.78,-0.34,1.16
0.81,-0.32,1.14
0.86,-0.33,1.13
0.91,-0.34,1.14
0.92,-0.32,1.15
0.95,-0.29,1.13
0.98,-0.26,1.11
1.01,-0.24,1.1
1.04,-0.23,1.07
1.06,-0.22,1.04
1.08,-0.2,1.01
1.09,-0.17,0.98
1.11,-0.15,0.95
1.11,-0.13,0.92
1.1,-0.11,0.9
1.09,-0.09,0.88
1.09,-0.08,0.87
1.08,-0.06,0.84
1.04,-0.04,0.8
1.01,-0.01,0.77
1,0.04,0.73
0.96,0.06,0.71
0.94,0.08,0.69
0.92,0.09,0.67
0.87,0.11,0.63
0.84,0.13,0.61
0.85,0.15,0.59
0.83,0.15,0.57
0.76,0.16,0.55
0.7,0.19,0.51
0.67,0.22,0.48
0.62,0.24,0.46
0.56,0.27,0.44
0.52,0.29,0.42
0.49,0.31,0.4
0.45,0.32,0.39
0.4,0.34,0.38
0.35,0.36,0.36
0.3,0.39,0.36
0.24,0.41,0.37
0.18,0.42,0.37
0.15,0.44,0.37
0.11,0.46,0.35
0.08,0.47,0.34
0.07,0.48,0.33
0.05,0.49,0.31
0.03,0.5,0.3
0.02,0.53,0.3
0.01,0.53,0.3
-0.02,0.54,0.3
-0.06,0.56,0.3
-0.09,0.55,0.3
-0.11,0.56,0.29
-0.13,0.57,0.28
-0.15,0.57,0.27
-0.16,0.58,0.25
-0.17,0.59,0.23
-0.17,0.59,0.21
-0.17,0.59,0.2
-0.17,0.59,0.2
-0.18,0.6,0.21
-0.19,0.61,0.22
-0.19,0.6,0.23
-0.2,0.59,0.26
-0.2,0.58,0.28
-0.2,0.58,0.3
-0.2,0.58,0.31
-0.19,0.56,0.33
-0.19,0.55,0.34
-0.19,0.56,0.35
-0.19,0.58,0.35
-0.18,0.58,0.36
-0.18,0.58,0.39
-0.17,0.53,0.4
-0.15,0.51,0.41
-0.12,0.5,0.42
-0.11,0.48,0.43
-0.1,0.47,0.44
-0.07,0.45,0.43
-0.03,0.43,0.41
0.01,0.42,0.38
0.05,0.4,0.35
0.08,0.38,0.34
0.1,0.35,0.35
0.13,0.33,0.37
0.16,0.31,0.4
0.19,0.31,0.43
0.22,0.31,0.45
0.26,0.31,0.44
0.31,0.32,0.41
0.36,0.31,0.37
0.39,0.29,0.33
0.42,0.27,0.3
0.44,0.25,0.3
0.46,0.22,0.3
0.55,0.19,0.37
0.65,0.15,0.49
0.71,0.1,0.59
0.74,0.08,0.6
0.76,0.09,0.54
0.77,0.06,0.46
0.77,0.02,0.42
0.78,-0.03,0.43
0.79,-0.1,0.51
0.84,-0.19,0.69
0.88,-0.28,0.86
0.86,-0.34,0.94
0.83,-0.35,0.97
0.8,-0.36,0.92
0.79,-0.4,0.81
0.78,-0.49,0.71
0.78,-0.62,0.6
1.58,-1.25,1.14
2.41,-1.56,2.85
2.34,-0.75,3.99
1.36,-1.06,3.71
0.48,-1.21,2.91
0.35,-0.34,1.93
0.18,-0.18,1.21
0.23,-0.17,0.72
0.36,-0.15,0.34
0.3,-0.13,0.08
0.22,-0.1,-0.02
0.24,-0.09,0.01
0.31,-0.11,0.18
0.36,-0.18,0.25
0.44,-0.23,0.26
0.53,-0.31,0.3
0.62,-0.43,0.45
0.71,-0.52,0.65
0.83,-0.57,0.85
0.91,-0.62,1
0.92,-0.65,1.04
0.88,-0.62,0.99
0.82,-0.59,0.92
0.74,-0.57,0.82
0.64,-0.54,0.72
0.58,-0.5,0.64
0.55,-0.47,0.57
0.55,-0.44,0.51
0.55,-0.44,0.48
0.55,-0.44,0.48
0.55,-0.45,0.48
0.57,-0.47,0.51
0.58,-0.48,0.54
0.6,-0.5,0.58
0.62,-0.51,0.61
0.64,-0.52,0.64
0.66,-0.53,0.67
0.66,-0.54,0.69
0.67,-0.55,0.7
0.64,-0.55,0.69
0.62,-0.54,0.67
0.6,-0.53,0.65
0.59,-0.53,0.64
0.58,-0.53,0.63
0.58,-0.53,0.62
0.58,-0.54,0.63
0.58,-0.53,0.65
0.6,-0.51,0.66
0.6,-0.5,0.67
0.6,-0.48,0.68
0.6,-0.47,0.69
0.6,-0.46,0.69
0.6,-0.46,0.69
0.61,-0.45,0.68
0.62,-0.45,0.68
0.62,-0.45,0.67
0.63,-0.44,0.67
0.63,-0.44,0.66
0.63,-0.44,0.66
0.64,-0.44,0.66
0.64,-0.45,0.66
0.64,-0.45,0.66
0.64,-0.45,0.66
0.64,-0.45,0.66
0.63,-0.45,0.66
0.63,-0.46,0.65
0.63,-0.46,0.65
0.63,-0.45,0.65
0.63,-0.45,0.64
0.64,-0.45,0.64
0.64,-0.46,0.64
0.64,-0.46,0.64
0.64,-0.45,0.64
0.64,-0.46,0.64
0.64,-0.46,0.63
0.64,-0.47,0.63
0.64,-0.47,0.63
0.63,-0.47,0.63
0.63,-0.47,0.63
0.63,-0.48,0.64
0.63,-0.48,0.64
0.63,-0.48,0.64
0.63,-0.48,0.64
0.63,-0.48,0.64
0.62,-0.48,0.64
0.63,-0.48,0.65
0.63,-0.47,0.65
0.63,-0.47,0.65
0.62,-0.47,0.64
0.62,-0.47,0.64
0.62,-0.47,0.64
0.62,-0.48,0.64
0.62,-0.48,0.65
0.63,-0.47,0.65
0.62,-0.47,0.65
0.62,-0.48,0.65
0.63,-0.47,0.65
0.62,-0.47,0.64
0.62,-0.47,0.64
0.63,-0.47,0.64
0.63,-0.46,0.65
0.63,-0.46,0.65
0.63,-0.46,0.65
0.63,-0.46,0.65
0.63,-0.46,0.65
0.63,-0.46,0.64
0.63,-0.47,0.65
0.63,-0.46,0.65
0.63,-0.46,0.65
0.63,-0.46,0.64
0.63,-0.46,0.64
0.63,-0.47,0.64
0.63,-0.47,0.64
0.63,-0.47,0.64
0.63,-0.47,0.64
0.63,-0.47,0.64
0.63,-0.47,0.64
0.63,-0.47,0.64
0.63,-0.47,0.64
0.63,-0.47,0.64
0.63,-0.47,0.64
0.63,-0.47,0.64
0.63,-0.47,0.64
0.63,-0.47,0.64
0.63,-0.47,0.65
0.63,-0.47,0.65
0.63,-0.47,0.64
0.63,-0.47,0.65
0.63,-0.47,0.65
0.63,-0.47,0.65
0.62,-0.47,0.64
0.63,-0.47,0.64
0.63,-0.47,0.64
0.63,-0.47,0.64
0.63,-0.47,0.64
0.63,-0.47,0.64
0.63,-0.47,0.64
0.63,-0.47,0.64
0.63,-0.46,0.64
0.63,-0.47,0.64
0.63,-0.47,0.65
0.63,-0.47,0.64
0.63,-0.46,0.64
0.63,-0.46,0.65
0.63,-0.47,0.64
0.63,-0.47,0.64
0.63,-0.47,0.64
0.63,-0.47,0.64
0.63,-0.47,0.64
0.63,-0.47,0.64
0.63,-0.47,0.64
0.63,-0.47,0.64
0.64,-0.46,0.65
0.63,-0.46,0.65
0.63,-0.46,0.65
0.63,-0.47,0.65
0.62,-0.46,0.65
0.63,-0.46,0.65
0.63,-0.46,0.65
0.63,-0.46,0.64
0.63,-0.46,0.64
0.63,-0.47,0.64
0.63,-0.47,0.64
0.63,-0.47,0.64
0.63,-0.46,0.64
0.63,-0.47,0.64
0.63,-0.47,0.64
0.63,-0.47,0.64
0.63,-0.47,0.64
0.63,-0.47,0.65
0.63,-0.47,0.64
0.63,-0.46,0.65
0.63,-0.46,0.64
0.63,-0.46,0.64
0.63,-0.46,0.65
0.63,-0.46,0.65
0.63,-0.46,0.64
0.63,-0.46,0.64
0.63,-0.46,0.64
0.63,-0.46,0.64
0.63,-0.46,0.64
0.64,-0.46,0.64
0.64,-0.46,0.64
0.64,-0.46,0.64
0.64,-0.46,0.64
0.64,-0.46,0.64
0.64,-0.46,0.64
0.64,-0.46,0.64
0.64,-0.46,0.64
0.64,-0.46,0.64
0.64,-0.46,0.64
0.63,-0.46,0.64
0.63,-0.47,0.64
0.63,-0.47,0.65
0.63,-0.46,0.64
0.63,-0.46,0.64
0.63,-0.46,0.64
0.63,-0.46,0.65
0.63,-0.46,0.65
0.63,-0.46,0.64
0.64,-0.46,0.64
0.64,-0.46,0.64
0.64,-0.46,0.64
0.64,-0.46,0.64
0.64,-0.46,0.64
0.64,-0.46,0.64
0.64,-0.46,0.64
0.64,-0.46,0.64
0.64,-0.46,0.64
0.63,-0.46,0.64
0.63,-0.46,0.64
0.63,-0.46,0.64
0.63,-0.46,0.64
0.64,-0.46,0.64
0.64,-0.46,0.64
0.64,-0.46,0.64
0.64,-0.46,0.64
0.64,-0.46,0.64
0.64,-0.46,0.64
0.64,-0.46,0.64
0.64,-0.46,0.65
0.64,-0.46,0.64
0.64,-0.46,0.64
0.64,-0.46,0.64
0.64,-0.46,0.64
0.64,-0.46,0.64
0.63,-0.46,0.65
0.63,-0.46,0.65
0.63,-0.46,0.65
0.64,-0.46,0.65
0.64,-0.46,0.65
0.64,-0.46,0.65
0.64,-0.46,0.64
0.64,-0.46,0.64
0.63,-0.46,0.64
0.63,-0.46,0.64
0.63,-0.46,0.64
0.64,-0.46,0.64
0.64,-0.46,0.64
0.64,-0.46,0.64
0.64,-0.46,0.64
0.64,-0.47,0.64
0.64,-0.47,0.64
0.63,-0.46,0.64
0.63,-0.46,0.64
0.63,-0.46,0.64
0.63,-0.46,0.64
0.63,-0.46,0.64
0.63,-0.46,0.65
0.63,-0.46,0.65
0.63,-0.46,0.64
0.63,-0.46,0.64
0.63,-0.46,0.64
0.64,-0.46,0.64
0.64,-0.46,0.64
0.64,-0.46,0.65
0.64,-0.45,0.64
0.64,-0.45,0.64
0.64,-0.45,0.64
0.64,-0.45,0.64
0.64,-0.46,0.64
0.64,-0.46,0.64
0.64,-0.46,0.64
0.64,-0.46,0.64
0.64,-0.46,0.64
0.64,-0.46,0.65
0.63,-0.46,0.65
0.63,-0.46,0.64
0.63,-0.46,0.64
0.63,-0.46,0.64
0.63,-0.46,0.64
0.63,-0.46,0.64
0.63,-0.46,0.64
0.63,-0.46,0.64
0.63,-0.46,0.64
0.64,-0.46,0.64
0.64,-0.46,0.64
0.64,-0.46,0.64
0.64,-0.46,0.64
0.64,-0.46,0.64
0.64,-0.45,0.64
0.64,-0.46,0.64
0.64,-0.46,0.65
0.64,-0.45,0.65
0.64,-0.45,0.65
0.64,-0.46,0.64
0.64,-0.46,0.64
0.64,-0.46,0.64
0.64,-0.46,0.64
0.64,-0.46,0.64
0.64,-0.46,0.64
0.64,-0.46,0.64
0.64,-0.46,0.64
0.64,-0.46,0.65
0.63,-0.46,0.65
0.63,-0.46,0.64
0.63,-0.46,0.64
0.63,-0.47,0.64
0.63,-0.47,0.64
0.63,-0.46,0.64
0.63,-0.46,0.64
0.63,-0.46,0.65
0.63,-0.46,0.65
0.63,-0.46,0.65
0.64,-0.45,0.64
0.64,-0.45,0.64
0.65,-0.45,0.64
0.64,-0.45,0.64
0.64,-0.45,0.64
0.64,-0.45,0.64
0.64,-0.46,0.64
0.64,-0.46,0.64
0.64,-0.46,0.64
0.64,-0.46,0.64
0.64,-0.46,0.64
0.64,-0.46,0.64
0.64,-0.46,0.65
0.63,-0.46,0.65
0.63,-0.46,0.65
0.63,-0.46,0.65
0.63,-0.46,0.65
0.63,-0.46,0.65
0.63,-0.46,0.67
0.64,-0.47,0.69
0.64,-0.47,0.7
0.64,-0.48,0.71
0.62,-0.49,0.74
0.62,-0.5,0.76
0.61,-0.48,0.79
0.61,-0.49,0.81
0.65,-0.51,0.83
0.7,-0.53,0.85
0.75,-0.53,0.88
0.81,-0.54,0.91
0.83,-0.55,0.94
0.83,-0.55,0.96
0.78,-0.53,0.96
0.78,-0.52,0.96
0.89,-0.49,0.98
0.99,-0.44,1.01
1,-0.4,1.05
0.97,-0.36,1.09
0.98,-0.31,1.1
1,-0.26,1.11
1.01,-0.24,1.11
1.02,-0.21,1.1
1.03,-0.18,1.08
1.04,-0.16,1.06
1.05,-0.15,1.02
1.04,-0.14,0.99
1.04,-0.12,0.97
1.04,-0.11,0.94
1.02,-0.08,0.89
1.04,-0.04,0.85
1.04,-0.01,0.82
1.02,0.02,0.8
0.99,0.05,0.79
0.98,0.07,0.78
0.97,0.08,0.76
0.94,0.1,0.74
0.92,0.11,0.73
0.9,0.12,0.72
0.84,0.13,0.69
0.8,0.15,0.66
0.79,0.17,0.62
0.77,0.19,0.59
0.74,0.21,0.57
0.72,0.23,0.57
0.68,0.25,0.57
0.64,0.27,0.58
0.6,0.28,0.58
0.53,0.3,0.55
0.45,0.31,0.51
0.39,0.33,0.49
0.36,0.35,0.47
0.35,0.36,0.47
0.33,0.38,0.46
0.27,0.39,0.44
0.21,0.42,0.38
0.12,0.45,0.36
0.1,0.46,0.37
0.07,0.46,0.37
0.03,0.46,0.36
0,0.48,0.35
-0.03,0.49,0.34
-0.05,0.51,0.31
-0.06,0.54,0.31
-0.07,0.55,0.3
-0.1,0.55,0.3
-0.12,0.56,0.3
-0.15,0.56,0.29
-0.17,0.56,0.28
-0.19,0.58,0.27
-0.21,0.59,0.27
-0.22,0.59,0.26
-0.24,0.59,0.26
-0.26,0.59,0.25
-0.27,0.58,0.25
-0.28,0.59,0.25
-0.29,0.58,0.25
-0.29,0.58,0.24
-0.3,0.59,0.22
-0.31,0.59,0.2
-0.32,0.6,0.18
-0.32,0.59,0.18
-0.32,0.6,0.2
-0.32,0.6,0.23
-0.31,0.6,0.25
-0.3,0.6,0.27
-0.29,0.61,0.29
-0.27,0.62,0.29
-0.26,0.62,0.28
-0.24,0.61,0.27
-0.23,0.59,0.27
-0.22,0.57,0.27
-0.22,0.55,0.29
-0.2,0.54,0.32
-0.17,0.52,0.34
-0.13,0.51,0.34
-0.1,0.5,0.34
-0.06,0.49,0.32
-0.02,0.47,0.3
0.03,0.45,0.31
0.07,0.43,0.35
0.09,0.43,0.4
0.08,0.41,0.44
0.07,0.39,0.45
0.1,0.37,0.44
0.19,0.35,0.42
0.31,0.33,0.39
0.42,0.31,0.37
0.52,0.29,0.41
0.6,0.29,0.44
0.59,0.29,0.45
0.56,0.29,0.45
0.55,0.28,0.43
0.58,0.24,0.42
0.65,0.2,0.41
0.71,0.15,0.4
0.81,0.11,0.43
0.97,0.08,0.5
1.05,0.06,0.55
1.02,0.08,0.55
0.93,0.12,0.52
0.81,0.12,0.45
0.67,0.06,0.35
0.59,-0.05,0.3
0.63,-0.22,0.33
0.7,-0.4,0.38
0.8,-0.56,0.5
1.02,-0.72,0.67
1.16,-0.85,0.77
1.12,-0.93,0.63
2.45,-1.56,1.89
2.66,-1.82,3.64
1.02,-0.93,4
0.7,-1.01,3.76
0.49,-0.18,1.7
0.05,-0.05,0.99
0.13,-0.09,0.62
0.15,-0.14,0.38
0.11,-0.15,0.19
0.16,-0.15,0.1
0.27,-0.16,0.09
0.37,-0.17,0.12
0.43,-0.17,0.15
0.44,-0.2,0.16
0.44,-0.24,0.19
0.45,-0.28,0.24
0.5,-0.34,0.33
0.6,-0.45,0.49
0.76,-0.57,0.72
0.95,-0.66,0.94
1.03,-0.71,1.06
1.02,-0.72,1.07
0.99,-0.68,0.99
0.93,-0.63,0.88
0.83,-0.6,0.76
0.72,-0.56,0.66
0.65,-0.52,0.58
0.62,-0.49,0.53
0.6,-0.47,0.48
0.57,-0.46,0.46
0.53,-0.47,0.46
0.54,-0.47,0.47
0.57,-0.48,0.49
0.6,-0.5,0.53
0.63,-0.53,0.57
0.67,-0.56,0.62
0.7,-0.57,0.66
0.7,-0.58,0.68
0.7,-0.58,0.68
0.68,-0.58,0.66
0.64,-0.57,0.64
0.62,-0.56,0.62
0.6,-0.55,0.6
0.58,-0.55,0.59
0.58,-0.55,0.58
0.58,-0.55,0.59
0.59,-0.54,0.61
0.61,-0.52,0.63
0.61,-0.5,0.65
0.62,-0.49,0.66
0.62,-0.47,0.67
0.62,-0.47,0.67
0.63,-0.46,0.67
0.63,-0.45,0.67
0.63,-0.45,0.66
0.63,-0.45,0.65
0.63,-0.45,0.64
0.64,-0.45,0.64
0.65,-0.46,0.64
0.65,-0.47,0.64
0.64,-0.47,0.65
0.64,-0.47,0.64
0.64,-0.47,0.64
0.63,-0.47,0.64
0.63,-0.47,0.64
0.64,-0.47,0.63
0.64,-0.47,0.63
0.64,-0.47,0.62
0.65,-0.47,0.62
0.65,-0.47,0.62
0.65,-0.47,0.62
0.65,-0.47,0.62
0.65,-0.47,0.62
0.65,-0.48,0.62
0.65,-0.48,0.61
0.65,-0.48,0.62
0.65,-0.48,0.62
0.65,-0.48,0.62
0.65,-0.48,0.62
0.65,-0.48,0.62
0.65,-0.48,0.62
0.64,-0.48,0.62
0.64,-0.48,0.62
0.64,-0.48,0.63
0.64,-0.48,0.62
0.64,-0.48,0.62
0.64,-0.48,0.62
0.64,-0.48,0.62
0.64,-0.48,0.62
0.65,-0.48,0.62
0.64,-0.48,0.63
0.64,-0.48,0.63
0.64,-0.48,0.63
0.64,-0.48,0.63
0.64,-0.48,0.63
0.64,-0.48,0.63
0.64,-0.47,0.63
0.64,-0.47,0.63
0.64,-0.47,0.63
0.64,-0.46,0.63
0.64,-0.47,0.63
0.65,-0.47,0.63
0.65,-0.47,0.63
0.65,-0.47,0.63
0.65,-0.47,0.63
0.65,-0.46,0.63
0.65,-0.46,0.63
0.65,-0.46,0.63
0.65,-0.46,0.62
0.65,-0.46,0.62
0.65,-0.46,0.62
0.65,-0.47,0.62
0.65,-0.47,0.62
0.65,-0.47,0.62
0.65,-0.47,0.62
0.65,-0.47,0.62
0.65,-0.47,0.62
0.65,-0.47,0.62
0.65,-0.47,0.62
0.65,-0.47,0.62
0.65,-0.47,0.62
0.65,-0.47,0.63
0.65,-0.47,0.63
0.65,-0.47,0.63
0.65,-0.47,0.63
0.65,-0.47,0.63
0.65,-0.47,0.62
0.65,-0.47,0.63
0.65,-0.47,0.63
0.65,-0.47,0.63
0.65,-0.47,0.63
0.65,-0.47,0.62
0.65,-0.47,0.62
0.65,-0.47,0.63
0.65,-0.47,0.63
0.65,-0.47,0.62
0.65,-0.46,0.62
0.65,-0.46,0.62
0.65,-0.46,0.63
0.65,-0.46,0.62
0.65,-0.46,0.62
0.65,-0.46,0.62
0.65,-0.46,0.62
0.65,-0.46,0.63
0.65,-0.47,0.63
0.65,-0.46,0.63
0.65,-0.46,0.62
0.65,-0.46,0.62
0.65,-0.46,0.62
0.65,-0.47,0.62
0.65,-0.46,0.63
0.65,-0.46,0.63
0.65,-0.46,0.63
0.65,-0.46,0.63
0.65,-0.46,0.63
0.65,-0.46,0.62
0.66,-0.46,0.62
0.66,-0.46,0.62
0.65,-0.46,0.62
0.65,-0.46,0.62
0.65,-0.46,0.62
0.65,-0.46,0.62
0.66,-0.46,0.62
0.66,-0.47,0.62
0.66,-0.47,0.62
0.65,-0.47,0.62
0.65,-0.47,0.63
0.66,-0.47,0.62
0.65,-0.47,0.63
0.65,-0.46,0.62
0.65,-0.47,0.62
0.65,-0.46,0.63
0.65,-0.46,0.63
0.65,-0.46,0.62
0.65,-0.46,0.62
0.65,-0.46,0.63
0.65,-0.46,0.63
0.65,-0.46,0.62
0.65,-0.46,0.62
0.65,-0.46,0.62
0.66,-0.46,0.62
0.66,-0.46,0.62
0.66,-0.46,0.62
0.66,-0.46,0.62
0.66,-0.46,0.62
0.66,-0.46,0.62
0.66,-0.46,0.62
0.66,-0.46,0.62
0.65,-0.46,0.62
0.65,-0.47,0.62
0.65,-0.47,0.63
0.65,-0.46,0.63
0.65,-0.46,0.63
0.65,-0.47,0.63
0.65,-0.46,0.62
0.65,-0.46,0.62
0.65,-0.46,0.63
0.65,-0.46,0.62
0.65,-0.46,0.62
0.66,-0.46,0.62
0.65,-0.47,0.62
0.65,-0.46,0.62
0.65,-0.46,0.62
0.66,-0.46,0.62
0.65,-0.46,0.63
0.65,-0.46,0.62
0.65,-0.46,0.62
0.65,-0.46,0.63
0.65,-0.46,0.63
0.65,-0.46,0.62
0.65,-0.46,0.62
0.65,-0.46,0.62
0.65,-0.46,0.62
0.65,-0.46,0.62
0.65,-0.46,0.62
0.65,-0.46,0.62
0.65,-0.46,0.62
0.65,-0.46,0.62
0.65,-0.46,0.63
0.65,-0.47,0.63
0.65,-0.47,0.62
0.65,-0.47,0.62
0.65,-0.46,0.62
0.65,-0.46,0.62
0.66,-0.47,0.62
0.65,-0.46,0.62
0.65,-0.46,0.63
0.65,-0.46,0.63
0.65,-0.46,0.62
0.65,-0.46,0.63
0.65,-0.46,0.63
0.66,-0.46,0.63
0.66,-0.46,0.62
0.66,-0.46,0.62
0.65,-0.46,0.62
0.65,-0.46,0.62
0.65,-0.46,0.62
0.66,-0.46,0.62
0.65,-0.46,0.62
0.65,-0.47,0.62
0.65,-0.47,0.62
0.65,-0.47,0.62
0.65,-0.47,0.62
0.65,-0.46,0.62
0.65,-0.46,0.62
0.65,-0.46,0.62
0.65,-0.46,0.63
0.65,-0.46,0.63
0.65,-0.46,0.62
0.65,-0.46,0.62
0.65,-0.46,0.62
0.65,-0.47,0.62
0.65,-0.46,0.63
0.65,-0.46,0.63
0.65,-0.46,0.63
0.66,-0.46,0.62
0.66,-0.46,0.63
0.66,-0.45,0.63
0.66,-0.46,0.63
0.66,-0.46,0.62
0.66,-0.46,0.62
0.66,-0.46,0.62
0.66,-0.46,0.62
0.66,-0.46,0.62
0.65,-0.46,0.62
0.65,-0.46,0.62
0.65,-0.47,0.62
0.65,-0.46,0.62
0.65,-0.46,0.62
0.65,-0.46,0.62
0.65,-0.47,0.62
0.65,-0.46,0.62
0.65,-0.47,0.62
0.65,-0.47,0.62
0.65,-0.47,0.63
0.65,-0.47,0.63
0.65,-0.47,0.62
0.65,-0.47,0.62
0.65,-0.47,0.62
0.65,-0.47,0.62
0.65,-0.47,0.62
0.65,-0.47,0.62
0.66,-0.46,0.62
0.66,-0.46,0.62
0.66,-0.46,0.62
0.66,-0.46,0.62
0.66,-0.46,0.62
0.66,-0.46,0.62
0.66,-0.46,0.62
0.66,-0.46,0.62
0.66,-0.46,0.62
0.66,-0.46,0.62
0.66,-0.46,0.62
0.66,-0.46,0.63
0.66,-0.46,0.63
0.65,-0.47,0.63
0.65,-0.46,0.63
0.65,-0.46,0.63
0.65,-0.47,0.63
0.65,-0.47,0.63
0.65,-0.47,0.63
0.65,-0.47,0.63
0.65,-0.47,0.64
0.65,-0.47,0.65
0.65,-0.47,0.66
0.64,-0.46,0.68
0.64,-0.47,0.7
0.65,-0.49,0.71
0.66,-0.51,0.73
0.66,-0.51,0.76
0.64,-0.5,0.78
0.64,-0.5,0.81
0.65,-0.5,0.84
0.67,-0.49,0.88
0.72,-0.5,0.91
0.77,-0.51,0.93
0.77,-0.5,0.95
0.77,-0.49,0.96
0.77,-0.48,0.96
0.77,-0.48,0.98
0.77,-0.49,0.99
0.83,-0.48,1
0.94,-0.45,0.99
1.01,-0.42,0.99
1.02,-0.39,1.02
1.03,-0.37,1.06
1.06,-0.36,1.07
1.09,-0.36,1.07
1.1,-0.35,1.04
1.1,-0.33,1.02
1.08,-0.3,0.98
1.06,-0.27,0.94
1.03,-0.25,0.91
1.01,-0.22,0.88
1.01,-0.19,0.84
1.03,-0.15,0.8
1.04,-0.13,0.76
1.04,-0.1,0.73
1.02,-0.07,0.69
1.01,-0.04,0.67
0.98,-0.02,0.66
0.95,0,0.66
0.91,0.03,0.65
0.89,0.06,0.62
0.84,0.14,0.56
0.78,0.19,0.53
0.73,0.25,0.51
0.72,0.29,0.49
0.69,0.31,0.46
0.66,0.33,0.44
0.61,0.34,0.44
0.57,0.37,0.43
0.55,0.4,0.4
0.52,0.43,0.38
0.48,0.46,0.38
0.45,0.49,0.39
0.42,0.51,0.39
0.39,0.51,0.4
0.36,0.51,0.42
0.33,0.51,0.43
0.3,0.51,0.42
0.27,0.52,0.41
0.23,0.53,0.4
0.19,0.52,0.38
0.16,0.52,0.36
0.14,0.51,0.35
0.13,0.51,0.34
0.12,0.51,0.34
0.12,0.53,0.35
0.12,0.53,0.36
0.1,0.53,0.37
0.03,0.53,0.37
-0.01,0.54,0.35
-0.04,0.55,0.32
-0.06,0.55,0.3
-0.09,0.56,0.29
-0.1,0.58,0.29
-0.12,0.58,0.3
-0.13,0.59,0.3
-0.14,0.59,0.31
-0.14,0.6,0.32
-0.15,0.6,0.33
-0.15,0.6,0.33
-0.16,0.62,0.32
-0.17,0.62,0.31
-0.18,0.63,0.29
-0.19,0.63,0.27
-0.2,0.63,0.28
-0.21,0.63,0.3
-0.21,0.63,0.33
-0.21,0.63,0.35
-0.21,0.63,0.35
-0.21,0.62,0.35
-0.21,0.61,0.32
-0.19,0.6,0.29
-0.15,0.58,0.25
-0.09,0.53,0.24
0.02,0.51,0.27
0.06,0.5,0.3
0.1,0.49,0.33
0.12,0.48,0.33
0.14,0.47,0.31
0.16,0.46,0.28
0.17,0.43,0.25
0.19,0.41,0.22
0.2,0.39,0.21
0.24,0.37,0.21
0.3,0.34,0.25
0.38,0.29,0.33
0.45,0.26,0.4
0.51,0.25,0.43
0.52,0.26,0.4
0.52,0.25,0.33
0.52,0.25,0.25
0.51,0.23,0.17
0.5,0.2,0.1
0.5,0.17,0.07
0.55,0.12,0.08
0.69,0.06,0.15
0.87,0,0.27
1.02,-0.09,0.4
1.05,-0.17,0.49
1.01,-0.2,0.53
0.86,-0.23,0.52
0.79,-0.25,0.49
0.74,-0.3,0.5
0.68,-0.36,0.58
0.64,-0.45,0.72
0.62,-0.55,0.87
0.64,-0.63,0.95
0.62,-0.7,0.95
0.62,-0.9,0.92
2.3,-1.69,2.44
3.46,-1.05,3.99
2.02,-0.7,4
0.69,-1.09,3.33
0.22,-0.32,2.15
0.12,-0.08,1.3
0.12,-0.12,0.78
0.15,-0.12,0.5
0.08,-0.08,0.31
0.07,-0.07,0.18
0.16,-0.1,0.15
0.24,-0.15,0.18
0.31,-0.17,0.22
0.36,-0.2,0.24
0.4,-0.25,0.28
0.42,-0.31,0.32
0.45,-0.36,0.52
0.66,-0.53,0.69
0.81,-0.6,0.87
0.91,-0.67,1.01
0.94,-0.68,1.03
0.91,-0.66,0.97
0.88,-0.62,0.89
0.84,-0.57,0.8
0.75,-0.53,0.7
0.66,-0.51,0.62
0.61,-0.48,0.56
0.58,-0.46,0.5
0.56,-0.45,0.47
0.54,-0.45,0.47
0.53,-0.45,0.47
0.53,-0.47,0.5
0.56,-0.49,0.54
0.6,-0.5,0.57
0.63,-0.51,0.6
0.66,-0.53,0.64
0.67,-0.55,0.68
0.68,-0.56,0.71
0.68,-0.56,0.71
0.66,-0.57,0.71
0.63,-0.56,0.7
0.6,-0.54,0.68
0.58,-0.52,0.64
0.55,-0.49,0.62
0.56,-0.49,0.63
0.57,-0.48,0.64
0.58,-0.47,0.65
0.59,-0.47,0.67
0.6,-0.46,0.68
0.61,-0.46,0.69
0.62,-0.46,0.7
0.62,-0.46,0.69
0.62,-0.45,0.69
0.61,-0.45,0.68
0.61,-0.45,0.68
0.61,-0.46,0.67
0.61,-0.46,0.67
0.61,-0.45,0.67
0.61,-0.46,0.67
0.62,-0.45,0.67
0.62,-0.45,0.67
0.63,-0.45,0.67
0.63,-0.45,0.67
0.63,-0.45,0.67
0.63,-0.44,0.67
0.63,-0.44,0.67
0.63,-0.44,0.66
0.63,-0.44,0.66
0.63,-0.44,0.65
0.63,-0.44,0.65
0.63,-0.44,0.65
0.63,-0.45,0.65
0.64,-0.45,0.65
0.64,-0.46,0.65
0.64,-0.46,0.65
0.64,-0.46,0.64
0.64,-0.46,0.64
0.64,-0.46,0.64
0.63,-0.46,0.64
0.63,-0.47,0.64
0.64,-0.47,0.64
0.64,-0.47,0.64
0.64,-0.47,0.64
0.64,-0.47,0.64
0.63,-0.47,0.64
0.63,-0.46,0.65
0.63,-0.46,0.65
0.63,-0.46,0.65
0.63,-0.46,0.65
0.63,-0.46,0.65
0.63,-0.46,0.65
0.63,-0.46,0.65
0.63,-0.46,0.65
0.63,-0.46,0.65
0.63,-0.46,0.65
0.63,-0.46,0.65
0.63,-0.45,0.65
0.63,-0.45,0.65
0.64,-0.45,0.65
0.64,-0.45,0.65
0.63,-0.45,0.65
0.63,-0.45,0.65
0.64,-0.45,0.65
0.64,-0.45,0.65
0.64,-0.45,0.65
0.64,-0.45,0.65
0.64,-0.45,0.65
0.64,-0.45,0.65
0.64,-0.45,0.65
0.64,-0.45,0.65
0.64,-0.45,0.64
0.64,-0.45,0.64
0.64,-0.45,0.64
0.65,-0.45,0.65
0.64,-0.45,0.65
0.64,-0.45,0.64
0.64,-0.45,0.64
0.64,-0.45,0.64
0.64,-0.45,0.64
0.64,-0.45,0.64
0.64,-0.45,0.64
0.64,-0.45,0.64
0.64,-0.45,0.64
0.64,-0.45,0.65
0.64,-0.45,0.65
0.64,-0.45,0.64
0.64,-0.45,0.65
0.64,-0.45,0.65
0.64,-0.45,0.64
0.65,-0.45,0.64
0.65,-0.45,0.64
0.65,-0.45,0.64
0.65,-0.45,0.64
0.64,-0.45,0.64
0.64,-0.45,0.65
0.64,-0.45,0.65
0.64,-0.45,0.64
0.65,-0.45,0.64
0.65,-0.45,0.65
0.64,-0.45,0.65
0.64,-0.45,0.64
0.64,-0.45,0.64
0.64,-0.45,0.65
0.64,-0.45,0.65
0.64,-0.45,0.65
0.64,-0.45,0.64
0.64,-0.45,0.64
0.64,-0.45,0.64
0.64,-0.45,0.64
0.64,-0.45,0.64
0.64,-0.45,0.64
0.64,-0.45,0.64
0.64,-0.45,0.64
0.64,-0.45,0.64
0.64,-0.45,0.64
0.65,-0.45,0.64
0.65,-0.45,0.64
0.65,-0.45,0.65
0.64,-0.45,0.65
0.64,-0.45,0.65
0.64,-0.45,0.64
0.64,-0.45,0.64
0.64,-0.44,0.64
0.65,-0.45,0.64
0.65,-0.44,0.64
0.65,-0.45,0.65
0.65,-0.45,0.65
0.64,-0.45,0.64
0.64,-0.45,0.64
0.65,-0.45,0.64
0.65,-0.45,0.64
0.65,-0.45,0.64
0.65,-0.45,0.64
0.65,-0.45,0.64
0.65,-0.45,0.64
0.64,-0.45,0.64
0.64,-0.45,0.64
0.64,-0.45,0.64
0.65,-0.45,0.64
0.65,-0.45,0.64
0.64,-0.45,0.64
0.64,-0.45,0.64
0.64,-0.45,0.64
0.64,-0.45,0.64
0.64,-0.45,0.64
0.64,-0.45,0.64
0.64,-0.45,0.64
0.64,-0.45,0.65
0.64,-0.45,0.64
0.64,-0.45,0.65
0.64,-0.45,0.65
0.64,-0.45,0.65
0.64,-0.45,0.64
0.64,-0.45,0.64
0.64,-0.45,0.64
0.64,-0.45,0.65
0.64,-0.45,0.65
0.64,-0.45,0.65
0.64,-0.45,0.65
0.64,-0.45,0.65
0.65,-0.45,0.64
0.64,-0.45,0.64
0.64,-0.44,0.64
0.65,-0.44,0.65
0.65,-0.44,0.64
0.65,-0.45,0.64
0.65,-0.44,0.64
0.64,-0.45,0.64
0.64,-0.45,0.64
0.64,-0.45,0.64
0.64,-0.45,0.64
0.64,-0.45,0.64
0.64,-0.45,0.64
0.64,-0.45,0.64
0.64,-0.45,0.64
0.64,-0.45,0.64
0.64,-0.45,0.65
0.64,-0.45,0.65
0.64,-0.45,0.65
0.64,-0.45,0.65
0.64,-0.45,0.66
0.63,-0.45,0.67
0.61,-0.46,0.68
0.59,-0.47,0.71
0.56,-0.48,0.75
0.52,-0.48,0.79
0.52,-0.47,0.79
0.58,-0.51,0.79
0.75,-0.56,0.78
0.91,-0.62,0.81
1.02,-0.65,0.88
1.1,-0.65,0.99
1.12,-0.63,1.09
1.09,-0.6,1.16
1.06,-0.55,1.2
1.05,-0.48,1.23
1.03,-0.39,1.23
1.02,-0.32,1.2
1.05,-0.26,1.2
1.09,-0.22,1.2
1.13,-0.19,1.21
1.16,-0.16,1.22
1.12,-0.12,1.2
1.03,-0.08,1.14
0.96,-0.05,1.07
0.96,-0.03,1.01
1.02,-0.02,0.97
1.05,0,0.95
1.04,0.02,0.93
1.01,0.05,0.9
0.98,0.07,0.85
0.93,0.09,0.74
0.83,0.15,0.69
0.8,0.17,0.67
0.81,0.19,0.66
0.81,0.2,0.63
0.78,0.22,0.58
0.75,0.24,0.53
0.73,0.26,0.5
0.68,0.28,0.48
0.65,0.31,0.47
0.61,0.33,0.46
0.58,0.34,0.46
0.54,0.35,0.44
0.49,0.37,0.43
0.46,0.38,0.43
0.42,0.39,0.43
0.38,0.41,0.43
0.34,0.42,0.44
0.29,0.44,0.44
0.25,0.45,0.43
0.22,0.45,0.41
0.18,0.46,0.4
0.15,0.47,0.39
0.13,0.48,0.37
0.1,0.49,0.36
0.04,0.51,0.35
0,0.52,0.33
-0.06,0.53,0.32
-0.09,0.53,0.33
-0.12,0.55,0.32
-0.15,0.58,0.32
-0.16,0.59,0.31
-0.18,0.61,0.3
-0.18,0.62,0.3
-0.18,0.62,0.3
-0.19,0.63,0.31
-0.2,0.64,0.32
-0.21,0.65,0.32
-0.22,0.66,0.32
-0.23,0.67,0.33
-0.24,0.67,0.33
-0.24,0.67,0.34
-0.25,0.68,0.35
-0.26,0.69,0.35
-0.25,0.7,0.35
-0.25,0.72,0.35
-0.25,0.72,0.36
-0.26,0.73,0.36
-0.26,0.73,0.37
-0.27,0.74,0.38
-0.27,0.74,0.39
-0.28,0.74,0.4
-0.28,0.75,0.4
-0.29,0.76,0.38
-0.29,0.76,0.38
-0.28,0.76,0.38
-0.28,0.76,0.39
-0.27,0.76,0.41
-0.26,0.76,0.42
-0.26,0.75,0.43
-0.26,0.75,0.44
-0.25,0.75,0.44
-0.24,0.74,0.42
-0.23,0.73,0.4
-0.22,0.72,0.4
-0.21,0.7,0.42
-0.21,0.68,0.43
-0.21,0.67,0.43
-0.2,0.66,0.41
-0.19,0.64,0.38
-0.18,0.62,0.35
-0.17,0.6,0.33
-0.15,0.58,0.31
-0.13,0.56,0.29
-0.11,0.54,0.29
-0.1,0.51,0.31
-0.08,0.5,0.33
-0.08,0.49,0.34
-0.06,0.48,0.35
-0.03,0.47,0.29
0.07,0.45,0.26
0.12,0.42,0.26
0.17,0.38,0.28
0.18,0.37,0.33
0.18,0.36,0.41
0.17,0.35,0.47
0.18,0.35,0.5
0.2,0.34,0.5
0.24,0.34,0.48
0.29,0.33,0.44
0.34,0.3,0.4
0.37,0.27,0.37
0.39,0.24,0.39
0.42,0.2,0.45
0.46,0.16,0.53
0.52,0.11,0.6
0.6,0.07,0.67
0.66,0.04,0.7
0.68,0.02,0.71
0.69,0.01,0.69
0.7,0,0.64
0.71,-0.01,0.6
0.71,-0.02,0.58
0.69,-0.02,0.59
0.69,-0.04,0.63
0.76,-0.21,0.91
0.91,-0.29,0.98
0.83,-0.3,0.95
0.72,-0.31,0.88
0.61,-0.35,0.79
0.56,-0.44,0.75
0.62,-0.68,0.77
2.33,-1.18,2.38
3.09,-0.82,3.99
1.94,-0.62,4
1.16,-0.88,3.38
0.51,-0.31,2.21
0.4,0.01,1.34
0.42,-0.06,0.79
0.41,-0.11,0.45
0.39,-0.07,0.26
0.31,-0.06,0.17
0.28,-0.09,0.14
0.27,-0.14,0.17
0.28,-0.16,0.22
0.32,-0.18,0.24
0.41,-0.23,0.26
0.49,-0.33,0.3
0.55,-0.44,0.39
0.64,-0.5,0.56
0.77,-0.55,0.78
0.9,-0.63,1.06
0.89,-0.65,1.04
0.82,-0.59,0.95
0.76,-0.54,0.83
0.7,-0.49,0.72
0.65,-0.45,0.62
0.61,-0.43,0.56
0.6,-0.42,0.51
0.59,-0.42,0.49
0.58,-0.41,0.49
0.59,-0.42,0.5
0.6,-0.43,0.52
0.61,-0.45,0.55
0.62,-0.47,0.59
0.64,-0.49,0.63
0.66,-0.5,0.67
0.68,-0.51,0.7
0.68,-0.52,0.72
0.68,-0.53,0.72
0.67,-0.52,0.71
0.66,-0.52,0.69
0.64,-0.51,0.67
0.62,-0.51,0.64
0.6,-0.5,0.62
0.59,-0.5,0.62
0.58,-0.5,0.62
0.6,-0.5,0.64
0.61,-0.51,0.65
0.61,-0.52,0.66
0.62,-0.52,0.67
0.63,-0.51,0.68
0.62,-0.49,0.69
0.62,-0.47,0.69
0.61,-0.45,0.69
0.61,-0.44,0.69
0.61,-0.43,0.69
0.61,-0.42,0.69
0.61,-0.41,0.68
0.62,-0.41,0.68
0.63,-0.4,0.68
0.64,-0.41,0.68
0.65,-0.41,0.68
0.65,-0.42,0.67
0.65,-0.42,0.67
0.64,-0.43,0.67
0.64,-0.43,0.66
0.63,-0.44,0.66
0.63,-0.44,0.66
0.63,-0.44,0.65
0.63,-0.44,0.65
0.64,-0.44,0.65
0.64,-0.44,0.65
0.64,-0.44,0.65
0.64,-0.44,0.65
0.64,-0.44,0.65
0.64,-0.44,0.65
0.63,-0.44,0.65
0.64,-0.44,0.65
0.64,-0.44,0.65
0.64,-0.44,0.65
0.63,-0.45,0.65
0.63,-0.45,0.65
0.63,-0.45,0.66
0.63,-0.45,0.66
0.63,-0.45,0.66
0.62,-0.45,0.66
0.62,-0.45,0.66
0.62,-0.45,0.66
0.62,-0.45,0.66
0.62,-0.45,0.66
0.63,-0.45,0.66
0.63,-0.45,0.66
0.63,-0.45,0.66
0.63,-0.45,0.66
0.63,-0.44,0.66
0.63,-0.44,0.66
0.63,-0.44,0.66
0.63,-0.44,0.66
0.63,-0.44,0.66
0.62,-0.44,0.66
0.63,-0.44,0.66
0.63,-0.44,0.66
0.63,-0.44,0.66
0.64,-0.44,0.67
0.63,-0.44,0.67
0.63,-0.44,0.66
0.63,-0.43,0.67
0.63,-0.43,0.66
0.63,-0.44,0.66
0.63,-0.43,0.66
0.63,-0.43,0.66
0.64,-0.44,0.66
0.64,-0.44,0.66
0.64,-0.44,0.65
0.64,-0.44,0.65
0.64,-0.44,0.65
0.64,-0.44,0.65
0.64,-0.44,0.65
0.64,-0.44,0.65
0.64,-0.44,0.65
0.64,-0.44,0.66
0.63,-0.44,0.66
0.63,-0.44,0.66
0.64,-0.44,0.66
0.63,-0.44,0.66
0.63,-0.44,0.66
0.63,-0.44,0.66
0.63,-0.43,0.66
0.63,-0.43,0.66
0.64,-0.44,0.66
0.64,-0.44,0.66
0.64,-0.44,0.66
0.64,-0.44,0.66
0.64,-0.43,0.66
0.64,-0.43,0.66
0.64,-0.43,0.66
0.65,-0.43,0.66
0.65,-0.43,0.65
0.65,-0.43,0.65
0.64,-0.43,0.66
0.64,-0.43,0.65
0.64,-0.43,0.65
0.64,-0.43,0.65
0.64,-0.43,0.66
0.64,-0.43,0.66
0.64,-0.43,0.66
0.64,-0.43,0.66
0.64,-0.43,0.66
0.64,-0.43,0.66
0.64,-0.43,0.65
0.64,-0.43,0.65
0.64,-0.43,0.65
0.64,-0.43,0.66
0.64,-0.43,0.66
0.64,-0.43,0.66
0.64,-0.43,0.65
0.64,-0.43,0.65
0.64,-0.43,0.65
0.65,-0.43,0.65
0.65,-0.43,0.66
0.65,-0.43,0.66
0.65,-0.43,0.66
0.65,-0.43,0.65
0.64,-0.43,0.65
0.64,-0.43,0.65
0.65,-0.43,0.65
0.65,-0.43,0.65
0.64,-0.43,0.65
0.64,-0.43,0.66
0.65,-0.43,0.66
0.65,-0.43,0.66
0.64,-0.43,0.66
0.64,-0.43,0.66
0.64,-0.43,0.65
0.64,-0.43,0.65
0.64,-0.43,0.65
0.64,-0.43,0.65
0.64,-0.43,0.65
0.64,-0.43,0.65
0.64,-0.43,0.65
0.64,-0.43,0.66
0.65,-0.43,0.66
0.65,-0.43,0.66
0.65,-0.43,0.66
0.65,-0.43,0.66
0.65,-0.43,0.66
0.64,-0.43,0.65
0.65,-0.43,0.65
0.65,-0.43,0.65
0.64,-0.43,0.65
0.64,-0.43,0.65
0.65,-0.43,0.65
0.65,-0.43,0.65
0.65,-0.43,0.65
0.65,-0.43,0.65
0.64,-0.43,0.65
0.64,-0.43,0.65
0.64,-0.43,0.65
0.64,-0.43,0.65
0.64,-0.43,0.66
0.64,-0.43,0.66
0.64,-0.43,0.66
0.64,-0.43,0.66
0.64,-0.43,0.66
0.64,-0.43,0.66
0.64,-0.43,0.66
0.64,-0.43,0.66
0.64,-0.43,0.65
0.64,-0.43,0.65
0.64,-0.43,0.65
0.64,-0.43,0.65
0.64,-0.43,0.65
0.64,-0.43,0.65
0.64,-0.43,0.65
0.65,-0.43,0.65
0.65,-0.43,0.65
0.64,-0.44,0.65
0.64,-0.44,0.65
0.64,-0.44,0.66
0.64,-0.44,0.66
0.64,-0.44,0.65
0.64,-0.44,0.65
0.64,-0.44,0.65
0.64,-0.43,0.65
0.64,-0.44,0.65
0.64,-0.44,0.66
0.64,-0.44,0.66
0.64,-0.44,0.66
0.64,-0.44,0.66
0.64,-0.44,0.65
0.64,-0.44,0.65
0.64,-0.44,0.65
0.64,-0.43,0.65
0.64,-0.43,0.66
0.64,-0.44,0.66
0.64,-0.44,0.66
0.64,-0.44,0.66
0.64,-0.44,0.66
0.63,-0.44,0.66
0.63,-0.44,0.66
0.63,-0.44,0.66
0.63,-0.44,0.66
0.64,-0.44,0.67
0.64,-0.44,0.69
0.65,-0.44,0.7
0.64,-0.45,0.73
0.64,-0.46,0.75
0.63,-0.46,0.78
0.61,-0.46,0.81
0.59,-0.46,0.84
0.58,-0.46,0.87
0.59,-0.45,0.9
0.63,-0.45,0.97
0.71,-0.47,1.04
0.78,-0.49,1.11
0.79,-0.49,1.14
0.76,-0.47,1.09
0.72,-0.48,1.07
0.7,-0.46,1.07
0.71,-0.45,1.08
0.71,-0.44,1.11
0.73,-0.44,1.14
0.77,-0.41,1.14
0.79,-0.37,1.12
0.81,-0.35,1.1
0.84,-0.35,1.08
0.87,-0.33,1.05
0.89,-0.3,1.03
0.92,-0.28,1.01
0.92,-0.25,1
0.92,-0.21,1
0.93,-0.17,1.01
0.93,-0.15,1.01
0.92,-0.13,1
0.9,-0.1,0.99
0.87,-0.08,0.98
0.86,-0.05,0.98
0.87,-0.02,0.96
0.87,0,0.94
0.86,0.05,0.92
0.84,0.09,0.88
0.84,0.12,0.78
0.84,0.18,0.76
0.85,0.18,0.72
0.88,0.19,0.67
0.89,0.22,0.6
0.9,0.26,0.54
0.93,0.29,0.48
0.94,0.3,0.45
0.93,0.28,0.43
0.91,0.26,0.43
0.87,0.27,0.44
0.8,0.27,0.43
0.73,0.28,0.41
0.68,0.3,0.37
0.6,0.32,0.34
0.55,0.34,0.33
0.49,0.36,0.31
0.41,0.37,0.29
0.34,0.39,0.27
0.3,0.41,0.25
0.27,0.41,0.24
0.21,0.42,0.23
0.16,0.43,0.23
0.1,0.45,0.23
0.04,0.45,0.25
0,0.47,0.25
-0.01,0.5,0.25
-0.04,0.54,0.25
-0.05,0.54,0.24
-0.06,0.55,0.24
-0.09,0.56,0.24
-0.11,0.57,0.23
-0.14,0.56,0.22
-0.15,0.57,0.21
-0.18,0.56,0.19
-0.2,0.56,0.2
-0.24,0.57,0.23
-0.27,0.58,0.26
-0.29,0.59,0.28
-0.3,0.59,0.29
-0.3,0.59,0.29
-0.3,0.6,0.29
-0.29,0.6,0.3
-0.3,0.6,0.31
-0.31,0.6,0.33
-0.31,0.6,0.34
-0.31,0.6,0.35
-0.3,0.6,0.35
-0.29,0.61,0.34
-0.29,0.62,0.33
-0.28,0.63,0.32
-0.27,0.63,0.33
-0.25,0.62,0.35
-0.22,0.56,0.37
-0.17,0.52,0.38
-0.14,0.47,0.35
-0.1,0.42,0.3
-0.06,0.39,0.22
-0.01,0.36,0.16
0.03,0.34,0.12
0.07,0.32,0.12
0.11,0.29,0.2
0.14,0.26,0.31
0.16,0.22,0.4
0.19,0.2,0.43
0.23,0.19,0.42
0.3,0.19,0.36
0.38,0.21,0.29
0.45,0.22,0.22
0.48,0.22,0.2
0.5,0.22,0.23
0.53,0.23,0.28
0.55,0.22,0.33
0.57,0.18,0.36
0.62,0.14,0.38
0.71,0.1,0.38
0.79,0.04,0.38
0.82,-0.01,0.36
0.83,-0.03,0.36
0.9,-0.06,0.45
1,-0.14,0.57
1.14,-0.23,0.72
1.19,-0.33,0.8
1.13,-0.4,0.79
1.02,-0.42,0.76
0.87,-0.46,0.74
0.75,-0.56,0.73
0.68,-0.68,0.73
0.67,-0.83,0.78
2.33,-1.9,2.4
2.77,-1.52,3.99
1.1,-0.46,4
0.7,-1.16,3.66
0.55,-0.94,2.77
0.16,-0.13,1.77
0.06,-0.01,1.04
0.19,-0.12,0.58
0.2,-0.14,0.27
0.14,-0.07,0.09
0.16,-0.07,0.05
0.24,-0.11,0.09
0.29,-0.13,0.15
0.33,-0.16,0.19
0.36,-0.2,0.22
0.41,-0.28,0.25
0.47,-0.36,0.49
0.76,-0.54,0.71
0.94,-0.68,0.94
1.05,-0.7,1.09
1.05,-0.64,1.08
0.97,-0.61,0.98
0.87,-0.61,0.86
0.79,-0.58,0.74
0.7,-0.54,0.62
0.63,-0.5,0.55
0.59,-0.48,0.5
0.58,-0.47,0.47
0.56,-0.47,0.46
0.54,-0.47,0.46
0.54,-0.48,0.47
0.56,-0.5,0.5
0.59,-0.52,0.53
0.62,-0.54,0.57
0.66,-0.55,0.62
0.68,-0.56,0.66
0.69,-0.57,0.69
0.69,-0.57,0.71
0.67,-0.55,0.71
0.65,-0.53,0.69
0.62,-0.51,0.66
0.6,-0.49,0.63
0.58,-0.48,0.61
0.58,-0.46,0.61
0.59,-0.46,0.63
0.6,-0.46,0.65
0.62,-0.46,0.66
0.63,-0.46,0.68
0.63,-0.46,0.69
0.63,-0.46,0.69
0.63,-0.46,0.68
0.63,-0.46,0.67
0.63,-0.46,0.66
0.62,-0.46,0.66
0.62,-0.46,0.66
0.62,-0.46,0.66
0.62,-0.45,0.65
0.63,-0.45,0.66
0.63,-0.45,0.66
0.64,-0.44,0.66
0.64,-0.44,0.66
0.64,-0.44,0.66
0.65,-0.44,0.66
0.65,-0.44,0.66
0.65,-0.44,0.65
0.65,-0.44,0.65
0.65,-0.44,0.64
0.64,-0.44,0.64
0.65,-0.44,0.64
0.65,-0.45,0.64
0.65,-0.45,0.64
0.65,-0.45,0.64
0.65,-0.45,0.64
0.64,-0.46,0.64
0.64,-0.46,0.64
0.64,-0.46,0.64
0.64,-0.46,0.64
0.64,-0.46,0.64
0.64,-0.46,0.64
0.64,-0.46,0.64
0.64,-0.46,0.64
0.64,-0.46,0.64
0.64,-0.46,0.64
0.64,-0.46,0.64
0.64,-0.46,0.64
0.64,-0.46,0.64
0.64,-0.46,0.65
0.64,-0.46,0.65
0.64,-0.46,0.65
0.63,-0.46,0.65
0.63,-0.46,0.65
0.63,-0.45,0.65
0.63,-0.45,0.65
0.63,-0.45,0.65
0.64,-0.45,0.65
0.64,-0.45,0.65
0.64,-0.45,0.65
0.64,-0.45,0.65
0.64,-0.45,0.65
0.64,-0.44,0.65
0.64,-0.44,0.65
0.64,-0.44,0.65
0.64,-0.44,0.65
0.64,-0.45,0.65
0.65,-0.45,0.65
0.65,-0.45,0.64
0.65,-0.45,0.64
0.64,-0.45,0.65
0.64,-0.45,0.65
0.64,-0.45,0.64
0.64,-0.45,0.65
0.64,-0.45,0.64
0.64,-0.45,0.64
0.64,-0.45,0.64
0.64,-0.45,0.64
0.64,-0.45,0.64
0.64,-0.45,0.64
0.64,-0.45,0.64
0.64,-0.45,0.64
0.64,-0.45,0.64
0.65,-0.45,0.64
0.65,-0.45,0.64
0.64,-0.46,0.65
0.64,-0.45,0.65
0.64,-0.45,0.64
0.64,-0.45,0.65
0.64,-0.45,0.65
0.64,-0.45,0.65
0.64,-0.45,0.65
0.64,-0.45,0.65
0.64,-0.45,0.65
0.64,-0.45,0.64
0.64,-0.45,0.64
0.64,-0.45,0.65
0.64,-0.45,0.65
0.64,-0.45,0.65
0.64,-0.45,0.64
0.65,-0.45,0.65
0.65,-0.45,0.65
0.65,-0.44,0.64
0.65,-0.44,0.64
0.65,-0.44,0.65
0.65,-0.44,0.64
0.65,-0.44,0.64
0.64,-0.44,0.64
0.64,-0.45,0.64
0.64,-0.45,0.64
0.64,-0.45,0.64
0.64,-0.45,0.64
0.64,-0.45,0.65
0.64,-0.45,0.64
0.64,-0.45,0.64
0.64,-0.45,0.64
0.64,-0.45,0.64
0.64,-0.44,0.65
0.65,-0.44,0.65
0.65,-0.44,0.65
0.65,-0.44,0.65
0.65,-0.44,0.65
0.65,-0.44,0.65
0.65,-0.45,0.65
0.64,-0.45,0.64
0.64,-0.45,0.64
0.64,-0.45,0.64
0.64,-0.46,0.64
0.64,-0.46,0.63
0.64,-0.46,0.63
0.64,-0.46,0.64
0.64,-0.46,0.64
0.64,-0.45,0.64
0.64,-0.45,0.64
0.64,-0.45,0.64
0.64,-0.45,0.64
0.64,-0.45,0.65
0.64,-0.45,0.65
0.65,-0.45,0.65
0.64,-0.45,0.65
0.64,-0.45,0.65
0.64,-0.44,0.65
0.64,-0.45,0.65
0.65,-0.44,0.64
0.64,-0.44,0.64
0.65,-0.44,0.64
0.65,-0.44,0.64
0.65,-0.44,0.64
0.65,-0.44,0.64
0.65,-0.43,0.64
0.65,-0.43,0.64
0.66,-0.44,0.64
0.66,-0.44,0.64
0.65,-0.44,0.64
0.65,-0.44,0.64
0.65,-0.44,0.64
0.65,-0.44,0.64
0.65,-0.45,0.64
0.65,-0.45,0.64
0.65,-0.45,0.64
0.65,-0.45,0.65
0.65,-0.45,0.65
0.65,-0.45,0.65
0.65,-0.45,0.65
0.64,-0.45,0.65
0.64,-0.45,0.64
0.64,-0.45,0.64
0.64,-0.45,0.64
0.64,-0.45,0.64
0.64,-0.45,0.64
0.64,-0.45,0.64
0.64,-0.44,0.64
0.65,-0.44,0.64
0.65,-0.44,0.64
0.65,-0.44,0.64
0.65,-0.44,0.64
0.65,-0.44,0.64
0.65,-0.44,0.64
0.65,-0.44,0.64
0.65,-0.44,0.64
0.65,-0.44,0.64
0.65,-0.44,0.64
0.65,-0.44,0.64
0.65,-0.44,0.64
0.65,-0.44,0.64
0.65,-0.44,0.64
0.64,-0.44,0.64
0.64,-0.44,0.64
0.65,-0.45,0.64
0.65,-0.45,0.64
0.65,-0.45,0.64
0.65,-0.45,0.64
0.65,-0.44,0.64
0.65,-0.44,0.64
0.65,-0.44,0.64
0.65,-0.44,0.64
0.65,-0.44,0.64
0.65,-0.44,0.64
