Acc_x,Acc_y,Acc_z
0.27,0.93,0.12
0.27,0.93,0.12
0.24,0.93,0.13
0.24,0.93,0.1
0.26,0.94,0.04
0.25,0.95,0
0.24,0.95,-0.01
0.23,0.95,0
0.22,0.94,0.02
0.23,0.94,0.03
0.24,0.95,0.02
0.26,0.96,-0.01
0.26,0.96,-0.04
0.26,0.97,-0.07
0.25,0.98,-0.1
0.24,0.99,-0.12
0.25,0.98,-0.13
0.25,0.96,-0.12
0.24,0.95,-0.09
0.22,0.95,-0.05
0.08,0.93,0.25
0.05,0.94,0.28
0.03,0.94,0.31
0.01,0.94,0.32
0,0.94,0.34
-0.02,0.94,0.34
-0.05,0.94,0.34
-0.07,0.93,0.34
-0.09,0.92,0.34
-0.1,0.92,0.36
-0.11,0.92,0.38
-0.11,0.92,0.39
-0.1,0.92,0.4
-0.1,0.92,0.42
-0.1,0.93,0.41
-0.1,0.92,0.39
-0.09,0.91,0.38
-0.08,0.9,0.39
-0.07,0.91,0.4
-0.05,0.91,0.4
-0.03,0.92,0.4
-0.01,0.92,0.38
-0.01,0.93,0.36
-0.01,0.92,0.33
0.01,0.92,0.31
0.03,0.92,0.31
0.05,0.93,0.32
0.05,0.93,0.33
0.04,0.93,0.35
0.04,0.93,0.37
0.03,0.93,0.37
0.02,0.92,0.37
0.02,0.92,0.37
0.01,0.92,0.37
0.01,0.92,0.36
0.02,0.92,0.36
0.03,0.92,0.36
0.03,0.92,0.35
0.02,0.91,0.35
0.03,0.91,0.34
0.04,0.91,0.34
0.05,0.91,0.35
0.05,0.92,0.37
0.05,0.92,0.38
0.05,0.92,0.39
0.04,0.91,0.4
0.04,0.91,0.42
0.04,0.91,0.42
0.04,0.91,0.42
0.04,0.91,0.42
0.04,0.91,0.41
0.05,0.91,0.4
0.06,0.91,0.38
0.05,0.9,0.36
0.07,0.9,0.34
0.09,0.92,0.32
0.1,0.92,0.29
0.13,0.91,0.27
0.16,0.91,0.27
0.17,0.92,0.26
0.18,0.92,0.24
0.21,0.92,0.23
0.23,0.91,0.23
0.23,0.92,0.24
0.22,0.92,0.26
0.24,0.92,0.27
0.25,0.92,0.29
0.24,0.92,0.32
0.25,0.91,0.34
0.26,0.91,0.34
0.26,0.9,0.34
0.25,0.89,0.34
0.24,0.89,0.34
0.22,0.89,0.34
0.22,0.89,0.34
0.22,0.89,0.35
0.24,0.9,0.37
0.26,0.9,0.36
0.27,0.89,0.34
0.26,0.89,0.32
0.26,0.89,0.3
0.25,0.9,0.3
0.25,0.91,0.31
0.24,0.91,0.31
0.22,0.91,0.3
0.22,0.91,0.28
0.23,0.91,0.28
0.26,0.9,0.28
0.29,0.89,0.28
0.32,0.9,0.27
0.33,0.9,0.26
0.32,0.89,0.27
0.3,0.88,0.27
0.28,0.87,0.26
0.29,0.85,0.25
0.31,0.84,0.23
0.33,0.83,0.23
0.34,0.83,0.25
0.35,0.82,0.26
0.38,0.8,0.27
0.4,0.79,0.28
0.4,0.77,0.28
0.4,0.75,0.29
0.42,0.74,0.3
0.44,0.73,0.32
0.45,0.74,0.34
0.47,0.74,0.38
0.47,0.73,0.41
0.47,0.73,0.45
0.47,0.73,0.47
0.46,0.72,0.47
0.46,0.71,0.47
0.43,0.69,0.48
0.39,0.69,0.48
0.35,0.72,0.5
0.34,0.79,0.52
0.34,0.87,0.51
0.36,0.93,0.49
0.39,0.97,0.47
0.42,1.01,0.45
0.43,1.02,0.44
0.43,1.02,0.43
0.45,1.02,0.42
0.49,1.02,0.42
0.49,1,0.43
0.46,0.97,0.44
0.44,0.96,0.43
0.45,0.96,0.41
0.46,0.95,0.4
0.45,0.94,0.38
0.42,0.92,0.37
0.41,0.9,0.35
0.4,0.88,0.33
0.4,0.88,0.32
0.4,0.89,0.34
0.37,0.88,0.38
0.34,0.86,0.4
0.32,0.84,0.39
0.33,0.86,0.38
0.33,0.87,0.39
0.33,0.86,0.4
0.33,0.85,0.38
0.34,0.85,0.36
0.35,0.87,0.34
0.35,0.88,0.33
0.35,0.87,0.32
0.37,0.86,0.31
0.39,0.85,0.29
0.39,0.85,0.27
0.37,0.85,0.27
0.36,0.84,0.27
0.35,0.83,0.27
0.34,0.81,0.29
0.34,0.81,0.29
0.33,0.8,0.28
0.32,0.79,0.29
0.31,0.8,0.29
0.3,0.82,0.25
0.28,0.82,0.25
0.27,0.83,0.24
0.25,0.84,0.24
0.22,0.85,0.22
0.21,0.86,0.19
0.23,0.84,0.19
0.23,0.84,0.19
0.23,0.82,0.21
0.23,0.82,0.22
0.22,0.82,0.23
0.25,0.87,0.22
0.31,1.14,0.31
0.33,1.47,0.33
0.26,0.96,0.32
0.23,0.72,0.28
0.28,0.75,0.21
0.3,0.81,0.15
0.26,0.93,0.11
0.22,1.04,0.11
0.24,0.99,0.11
0.26,0.91,0.12
0.25,0.92,0.13
0.22,0.98,0.13
0.21,1,0.1
0.21,0.97,0.08
0.22,0.96,0.06
0.2,0.98,0.05
0.17,0.98,0.06
0.14,0.97,0.08
0.14,0.97,0.08
0.14,0.97,0.08
0.13,0.96,0.08
0.14,0.96,0.08
0.14,0.96,0.07
0.13,0.97,0.06
0.12,0.98,0.04
0.12,0.98,0.02
0.13,0.98,0.02
0.13,0.97,0.03
0.12,0.98,0.04
0.11,0.98,0.05
0.11,0.98,0.05
0.12,0.97,0.05
0.12,0.97,0.05
0.12,0.98,0.05
0.11,0.98,0.05
0.12,0.98,0.04
0.12,0.98,0.03
0.11,0.97,0.04
0.11,0.97,0.05
0.1,0.97,0.04
0.11,0.98,0.03
0.11,0.98,0.04
0.11,0.98,0.03
0.11,0.98,0.01
0.1,0.99,0
0.1,0.98,0
0.1,0.98,0
0.09,0.99,0.02
0.1,0.98,0.02
0.09,0.98,0.01
0.09,0.98,0
0.08,0.99,0
0.05,0.98,0.02
0.05,0.98,0.02
0.05,0.98,0.02
0.05,0.98,0.03
0.05,0.97,0.03
0.05,0.96,0.03
0.05,0.95,0.03
0.05,0.94,0.04
0.04,1.04,0.04
0.03,1.07,0.05
0.03,0.95,0.04
0.05,0.92,0.04
0.06,0.96,0.04
0.05,0.99,0.06
0.05,1,0.07
0.06,0.98,0.07
0.06,0.95,0.07
0.06,0.97,0.07
0.07,1,0.06
0.07,0.99,0.06
0.07,0.96,0.06
0.07,0.97,0.07
0.07,0.99,0.06
0.06,0.98,0.06
0.04,0.96,0.08
0.05,0.95,0.09
0.07,0.96,0.08
0.1,0.98,0.07
0.11,0.98,0.06
0.13,0.97,0.07
0.14,1,-0.02
0.13,1,-0.03
0.1,0.97,-0.01
0.09,0.96,0.03
0.1,0.97,0.09
0.13,1,0.07
0.12,1,0.03
0.11,0.97,0.04
0.12,0.96,0.03
0.08,0.96,0.02
0.08,0.96,0.04
0.12,0.99,0.04
0.11,1,0.02
0.1,0.98,0.01
0.08,0.96,0.02
0.06,0.95,0.01
0.05,0.96,0.02
0.05,0.99,0.04
0.06,1,0.05
0.09,0.99,0.07
0.11,0.98,0.09
0.1,0.97,0.1
0.08,0.97,0.1
0.07,0.97,0.1
0.09,0.97,0.12
0.12,0.97,0.14
0.15,0.97,0.15
0.15,0.97,0.13
0.14,0.97,0.1
0.14,0.97,0.07
0.12,0.97,0.06
0.11,0.97,0.06
0.1,0.97,0.06
0.1,0.98,0.05
0.1,0.98,0.05
0.1,0.98,0.04
0.11,0.98,0.03
0.12,0.99,0.01
0.13,0.99,0
0.12,0.99,0
0.12,0.98,0
0.11,0.98,0
0.1,0.98,0.01
0.09,0.98,0.01
0.08,0.97,0.01
0.1,0.97,0.02
0.12,0.97,0.02
0.14,0.97,0.03
0.14,0.96,0.03
0.13,0.95,0.03
0.14,0.94,0.04
0.15,0.93,0.05
0.16,0.93,0.07
0.21,0.92,0.07
0.21,0.91,0.08
0.32,0.81,0.19
0.32,0.78,0.21
0.31,0.77,0.23
0.31,0.75,0.24
0.31,0.73,0.25
0.31,0.7,0.28
0.31,0.67,0.3
0.32,0.64,0.33
0.35,0.62,0.35
0.38,0.6,0.38
0.4,0.58,0.39
0.42,0.56,0.43
0.47,0.5,0.56
0.47,0.5,0.56
0.49,0.48,0.6
0.49,0.47,0.66
0.46,0.42,0.7
0.45,0.4,0.72
0.45,0.39,0.71
0.42,0.38,0.67
0.38,0.34,0.62
0.37,0.28,0.63
0.38,0.24,0.7
0.39,0.21,0.76
0.37,0.18,0.8
0.33,0.17,0.85
0.32,0.17,0.9
0.33,0.17,0.95
0.32,0.17,1.01
0.34,0.17,1.12
0.39,0.15,1.22
0.47,0.13,1.28
0.47,0.12,1.34
0.37,0.11,1.4
0.39,0.05,1.34
0.42,0.04,1.34
0.53,0.1,1.43
0.7,0.15,1.44
0.67,0.19,1.47
0.5,0.19,1.45
0.33,0.19,1.37
0.23,0.17,1.26
0.21,0.2,1.04
0.2,0.22,0.96
0.24,0.22,0.91
0.29,0.24,0.88
0.34,0.26,0.87
0.39,0.28,0.86
0.42,0.28,0.85
0.43,0.28,0.85
0.4,0.28,0.85
0.35,0.27,0.87
0.31,0.26,0.88
0.29,0.24,0.89
0.27,0.23,0.89
0.25,0.2,0.87
0.28,0.16,0.84
0.34,0.14,0.82
0.4,0.16,0.83
0.42,0.17,0.85
0.42,0.18,0.89
0.42,0.19,0.9
0.4,0.18,0.9
0.39,0.17,0.9
0.38,0.16,0.91
0.35,0.16,0.93
0.34,0.16,0.95
0.36,0.17,0.95
0.38,0.17,0.94
0.37,0.15,0.93
0.39,0.14,0.93
0.38,0.15,0.96
0.36,0.15,0.99
0.34,0.15,1
0.32,0.15,1
0.3,0.14,0.98
0.3,0.13,0.95
0.33,0.14,0.94
0.35,0.15,0.95
0.36,0.15,0.95
0.36,0.14,0.94
0.34,0.14,0.94
0.32,0.15,0.95
0.3,0.15,0.96
0.29,0.15,0.97
0.29,0.16,0.97
0.29,0.16,0.96
0.31,0.16,0.96
0.3,0.16,0.95
0.29,0.16,0.95
0.27,0.15,0.95
0.26,0.15,0.95
0.27,0.15,0.95
0.28,0.15,0.97
0.27,0.17,0.99
0.23,0.17,0.98
0.19,0.16,0.93
0.39,0.12,0.99
0.34,0.16,0.94
0.19,0.16,0.85
0.3,0.15,0.92
0.35,0.22,0.93
0.36,0.24,0.94
0.28,0.22,0.98
0.17,0.2,1
0.11,0.18,1.01
0.14,0.18,1
0.2,0.18,1
0.24,0.18,0.99
0.25,0.18,0.99
0.26,0.18,0.99
0.26,0.17,0.99
0.26,0.18,0.97
0.26,0.18,0.96
0.28,0.18,0.95
0.28,0.17,0.95
0.28,0.19,0.95
0.29,0.2,0.97
0.3,0.2,0.98
0.32,0.21,1
0.33,0.23,1.02
0.29,0.22,1.02
0.27,0.22,1.01
0.26,0.22,0.99
0.27,0.23,0.99
0.27,0.24,0.98
0.27,0.24,0.98
0.27,0.24,0.98
0.27,0.24,0.98
0.27,0.24,0.97
0.27,0.24,0.96
0.27,0.25,0.94
0.28,0.25,0.93
0.29,0.26,0.92
0.29,0.27,0.9
0.28,0.28,0.9
0.27,0.29,0.9
0.28,0.28,0.89
0.28,0.29,0.9
0.28,0.3,0.9
0.27,0.31,0.9
0.26,0.31,0.89
0.26,0.31,0.88
0.26,0.31,0.88
0.29,0.33,0.89
0.29,0.35,0.9
0.27,0.35,0.92
0.27,0.33,0.89
0.28,0.33,0.86
0.29,0.34,0.84
0.29,0.35,0.83
0.3,0.34,0.81
0.31,0.34,0.81
0.3,0.35,0.8
0.3,0.36,0.8
0.32,0.36,0.8
0.34,0.37,0.81
0.34,0.38,0.82
0.33,0.39,0.83
0.32,0.39,0.84
0.31,0.4,0.85
0.29,0.39,0.85
0.28,0.38,0.86
0.27,0.38,0.86
0.27,0.38,0.86
0.26,0.38,0.87
0.25,0.39,0.87
0.25,0.39,0.86
0.26,0.39,0.84
0.28,0.38,0.83
0.29,0.39,0.83
0.29,0.39,0.84
0.29,0.39,0.83
0.32,0.41,0.82
0.32,0.42,0.82
0.32,0.42,0.82
0.32,0.41,0.82
0.33,0.4,0.83
0.34,0.41,0.84
0.33,0.42,0.86
0.3,0.42,0.86
0.27,0.41,0.85
0.26,0.4,0.84
0.26,0.4,0.84
0.26,0.4,0.84
0.24,0.4,0.85
0.24,0.41,0.85
0.24,0.41,0.85
0.23,0.41,0.84
0.22,0.41,0.83
0.2,0.41,0.83
0.2,0.41,0.82
0.25,0.43,0.8
0.28,0.43,0.8
0.28,0.43,0.82
0.28,0.42,0.84
0.27,0.41,0.86
0.28,0.4,0.87
0.28,0.4,0.89
0.25,0.38,0.9
0.24,0.37,0.92
0.23,0.37,0.94
0.23,0.36,0.96
0.2,0.36,0.97
0.17,0.36,0.97
0.16,0.36,0.97
0.17,0.36,0.96
0.18,0.37,0.96
0.19,0.37,0.95
0.2,0.37,0.94
0.2,0.37,0.93
0.23,0.37,0.91
0.27,0.38,0.9
0.28,0.39,0.89
0.27,0.39,0.88
0.28,0.39,0.86
0.29,0.39,0.85
0.29,0.39,0.84
0.29,0.39,0.83
0.29,0.39,0.84
0.29,0.39,0.84
0.28,0.4,0.85
0.27,0.4,0.86
0.26,0.39,0.87
0.24,0.39,0.88
0.22,0.39,0.88
0.21,0.38,0.88
0.2,0.38,0.9
0.2,0.38,0.92
0.21,0.38,0.94
0.19,0.39,0.95
0.17,0.38,0.95
0.16,0.37,0.94
0.16,0.37,0.92
0.18,0.37,0.91
0.19,0.38,0.9
0.19,0.38,0.89
0.19,0.38,0.89
0.2,0.39,0.89
0.21,0.39,0.89
0.21,0.39,0.9
0.21,0.39,0.89
0.22,0.39,0.89
0.23,0.39,0.89
0.22,0.38,0.89
0.22,0.39,0.88
0.23,0.39,0.88
0.22,0.39,0.88
0.22,0.39,0.88
0.21,0.39,0.88
0.22,0.39,0.88
0.22,0.39,0.9
0.2,0.39,0.9
0.19,0.39,0.89
0.19,0.38,0.89
0.19,0.38,0.9
0.18,0.39,0.9
0.18,0.39,0.91
0.18,0.39,0.91
0.18,0.39,0.91
0.18,0.38,0.91
0.18,0.38,0.9
0.18,0.38,0.9
0.19,0.38,0.9
0.19,0.38,0.9
0.2,0.38,0.9
0.19,0.38,0.9
0.19,0.38,0.89
0.18,0.38,0.88
0.19,0.39,0.86
0.19,0.39,0.86
0.19,0.38,0.87
0.2,0.38,0.87
0.2,0.4,0.89
0.21,0.41,0.91
0.2,0.38,0.9
0.18,0.38,0.89
0.17,0.38,0.88
0.18,0.38,0.89
0.18,0.38,0.9
0.18,0.38,0.91
0.16,0.36,0.93
0.14,0.36,0.95
0.13,0.36,0.96
0.12,0.35,0.97
0.12,0.36,0.98
0.13,0.36,0.98
0.12,0.35,1
0.12,0.34,1.02
0.12,0.34,1.04
0.13,0.34,1.06
0.13,0.35,1.05
0.14,0.36,1.03
0.16,0.37,0.99
0.17,0.38,0.95
0.17,0.37,0.92
0.17,0.37,0.88
0.18,0.38,0.85
0.18,0.38,0.84
0.2,0.4,0.84
0.2,0.41,0.85
0.2,0.42,0.86
0.22,0.44,0.87
0.21,0.45,0.9
0.18,0.48,0.91
0.16,0.48,0.91
0.15,0.47,0.9
0.14,0.46,0.88
0.13,0.46,0.86
0.11,0.45,0.85
0.1,0.45,0.82
0.1,0.45,0.81
0.1,0.45,0.79
0.09,0.46,0.78
0.07,0.46,0.77
0.07,0.47,0.76
0.06,0.48,0.76
0.05,0.47,0.75
0.06,0.47,0.74
0.08,0.48,0.73
0.1,0.48,0.72
0.12,0.48,0.72
0.15,0.47,0.72
0.18,0.47,0.72
0.2,0.47,0.72
0.21,0.47,0.72
0.22,0.47,0.72
0.22,0.46,0.73
0.21,0.44,0.73
0.18,0.42,0.85
0.58,0.35,1.03
0.52,0.41,1.09
0.32,0.47,1.09
0.13,0.44,1.1
0,0.39,1.1
0.02,0.36,1.07
0.12,0.34,1.01
0.16,0.32,0.99
0.12,0.31,0.99
0.06,0.31,0.99
0.05,0.31,0.99
0.06,0.33,0.98
0.08,0.35,0.97
0.09,0.35,0.95
0.11,0.36,0.94
0.12,0.37,0.93
0.13,0.37,0.92
0.15,0.37,0.91
0.17,0.38,0.91
0.18,0.38,0.91
0.17,0.38,0.91
0.17,0.38,0.91
0.17,0.38,0.9
0.17,0.38,0.9
0.16,0.38,0.9
0.15,0.38,0.9
0.15,0.37,0.9
0.14,0.37,0.91
0.14,0.36,0.92
0.14,0.36,0.94
0.13,0.37,0.95
0.12,0.37,0.95
0.1,0.37,0.95
0.11,0.37,0.94
0.11,0.37,0.93
0.11,0.37,0.93
0.12,0.37,0.92
0.14,0.37,0.92
0.15,0.37,0.91
0.16,0.37,0.91
0.17,0.37,0.91
0.18,0.37,0.91
0.19,0.37,0.91
0.19,0.37,0.9
0.19,0.38,0.9
0.2,0.38,0.9
0.2,0.38,0.89
0.23,0.38,0.89
0.24,0.38,0.89
0.24,0.38,0.9
0.23,0.38,0.92
0.22,0.39,0.93
0.2,0.38,0.92
0.15,0.37,0.9
0.18,0.37,0.86
0.23,0.37,0.85
0.26,0.39,0.86
0.28,0.4,0.88
0.27,0.41,0.9
0.25,0.38,0.92
0.22,0.36,0.94
0.18,0.39,0.93
0.21,0.41,0.92
0.29,0.42,0.9
0.35,0.42,0.89
0.37,0.43,0.9
0.38,0.44,0.89
0.39,0.46,0.88
0.39,0.47,0.87
0.37,0.46,0.86
0.35,0.45,0.86
0.36,0.44,0.86
0.35,0.44,0.87
0.33,0.43,0.87
0.32,0.43,0.86
0.33,0.43,0.86
0.34,0.43,0.87
0.34,0.44,0.88
0.34,0.46,0.89
0.34,0.46,0.9
0.33,0.47,0.9
0.33,0.47,0.89
0.32,0.47,0.88
0.32,0.48,0.87
0.35,0.49,0.86
0.37,0.5,0.86
0.37,0.5,0.84
0.34,0.5,0.82
0.36,0.5,0.79
0.39,0.51,0.77
0.41,0.52,0.76
0.42,0.53,0.74
0.41,0.53,0.72
0.41,0.53,0.71
0.41,0.55,0.71
0.46,0.57,0.71
0.48,0.58,0.71
0.44,0.58,0.72
0.42,0.58,0.73
0.4,0.59,0.71
0.42,0.61,0.69
0.44,0.62,0.66
0.45,0.64,0.65
0.47,0.64,0.66
0.48,0.65,0.65
0.45,0.66,0.62
0.45,0.67,0.6
0.48,0.68,0.57
0.5,0.69,0.54
0.5,0.68,0.51
0.49,0.69,0.51
0.5,0.69,0.53
0.53,0.7,0.52
0.52,0.72,0.52
0.48,0.76,0.49
0.48,0.77,0.42
0.49,0.77,0.36
0.48,0.78,0.34
0.45,0.78,0.33
0.41,0.79,0.35
0.35,0.79,0.36
0.31,0.78,0.34
0.31,0.79,0.33
0.33,0.8,0.31
0.33,0.8,0.31
0.34,0.8,0.29
0.32,0.81,0.27
0.3,0.81,0.26
0.29,0.81,0.23
0.29,0.83,0.22
0.29,0.83,0.23
0.3,0.81,0.19
0.27,0.82,0.15
0.26,0.84,0.11
0.26,0.87,0.11
0.26,0.88,0.11
0.27,0.87,0.11
0.27,0.88,0.12
0.26,0.88,0.12
0.25,0.9,0.12
0.22,0.9,0.14
0.18,0.91,0.16
0.15,0.94,0.18
0.15,0.95,0.18
0.16,0.95,0.17
0.15,0.93,0.18
0.15,0.93,0.19
0.18,0.95,0.18
0.22,0.96,0.17
0.24,0.95,0.16
0.24,0.94,0.14
0.21,0.95,0.14
0.2,0.95,0.14
0.19,0.96,0.13
0.18,0.96,0.12
0.18,0.95,0.11
0.16,0.96,0.09
0.15,0.96,0.09
0.15,0.96,0.1
0.17,0.96,0.12
0.19,0.95,0.13
0.21,0.95,0.14
0.22,0.95,0.13
0.23,0.95,0.13
0.23,0.95,0.13
0.23,0.95,0.12
0.23,0.95,0.12
0.23,0.95,0.11
0.24,0.96,0.1
0.26,0.95,0.09
0.26,0.95,0.09
0.26,0.95,0.09
0.26,0.95,0.08
0.26,0.96,0.07
0.26,0.96,0.07
0.26,0.95,0.06
0.26,0.95,0.07
0.26,0.95,0.08
0.26,0.95,0.08
0.26,0.95,0.07
0.24,0.96,0.06
0.23,0.96,0.08
0.21,0.96,0.09
0.17,0.95,0.11
0.17,0.95,0.11
0.19,0.95,0.11
0.2,0.96,0.11
0.21,0.96,0.1
0.23,0.96,0.11
0.23,0.95,0.12
0.23,0.95,0.12
0.23,0.95,0.11
0.24,0.95,0.11
0.23,0.95,0.13
0.21,0.95,0.13
0.2,0.95,0.13
0.21,0.95,0.13
0.23,0.95,0.12
0.24,0.95,0.12
0.23,0.95,0.12
0.22,0.95,0.13
0.22,0.95,0.13
0.22,0.95,0.13
0.22,0.95,0.13
0.22,0.95,0.13
0.22,0.95,0.14
0.23,0.95,0.14
0.23,0.95,0.14
0.23,0.95,0.14
0.22,0.95,0.15
0.23,0.95,0.14
0.23,0.95,0.14
0.24,0.95,0.14
0.24,0.95,0.14
0.23,0.94,0.15
0.23,0.94,0.15
0.23,0.94,0.15
0.23,0.95,0.15
0.23,0.95,0.15
0.22,0.95,0.15
0.21,0.94,0.16
0.22,0.95,0.16
0.22,0.95,0.16
0.23,0.94,0.16
0.23,0.94,0.16
0.23,0.94,0.17
0.23,0.94,0.16
0.24,0.94,0.17
0.24,0.94,0.16
0.24,0.94,0.16
0.24,0.95,0.17
0.24,0.94,0.18
0.24,0.93,0.18
0.25,0.93,0.17
0.26,0.94,0.17
0.25,0.94,0.17
0.25,0.94,0.17
0.25,0.94,0.18
0.24,0.94,0.18
0.24,0.94,0.17
0.24,0.94,0.17
0.23,0.94,0.17
0.23,0.94,0.18
0.23,0.94,0.18
0.24,0.94,0.18
0.24,0.94,0.18
0.24,0.94,0.17
0.23,0.94,0.17
0.23,0.94,0.17
0.23,0.94,0.17
0.22,0.94,0.17
0.22,0.94,0.18
0.22,0.94,0.18
0.23,0.94,0.18
0.23,0.94,0.18
0.23,0.94,0.18
0.23,0.94,0.18
0.23,0.94,0.19
0.23,0.94,0.19
0.23,0.94,0.18
0.23,0.94,0.18
0.23,0.94,0.19
0.22,0.94,0.19
0.21,0.94,0.19
0.22,0.94,0.19
0.22,0.94,0.18
0.23,0.94,0.18
0.23,0.94,0.18
0.23,0.95,0.18
0.23,0.94,0.18
0.23,0.94,0.19
0.22,0.94,0.2
0.23,0.94,0.19
0.23,0.94,0.19
0.24,0.94,0.19
0.24,0.94,0.2
0.24,0.94,0.21
0.25,0.94,0.21
0.26,0.94,0.21
0.25,0.94,0.21
0.24,0.93,0.22
0.22,0.93,0.22
0.23,0.93,0.24
0.26,0.92,0.25
0.28,0.92,0.27
0.3,0.92,0.28
0.29,0.92,0.27
0.28,0.92,0.25
0.23,0.93,0.23
0.21,0.93,0.22
0.19,0.94,0.21
0.16,0.94,0.19
0.13,0.94,0.19
0.13,0.95,0.18
0.14,0.95,0.17
0.14,0.95,0.15
0.15,0.95,0.14
0.15,0.96,0.13
0.14,0.96,0.13
0.14,0.96,0.13
0.15,0.95,0.12
0.17,0.95,0.11
0.19,0.96,0.11
0.21,0.96,0.1
0.22,0.95,0.09
0.22,0.95,0.09
0.23,0.96,0.09
0.23,0.96,0.09
0.22,0.95,0.08
0.21,0.96,0.09
0.2,0.95,0.09
0.21,0.95,0.09
0.22,0.95,0.1
0.24,0.95,0.1
0.26,0.94,0.11
0.26,0.94,0.12
0.26,0.93,0.12
0.26,0.93,0.12
0.25,0.93,0.12
0.24,0.93,0.12
0.3,0.9,0.16
0.3,0.9,0.16
0.3,0.89,0.16
0.31,0.89,0.16
0.3,0.89,0.16
0.3,0.88,0.16
0.35,0.83,0.22
0.35,0.83,0.22
0.35,0.82,0.22
0.36,0.8,0.22
0.38,0.78,0.21
0.41,0.77,0.22
0.42,0.76,0.23
0.44,0.75,0.25
0.45,0.73,0.25
0.44,0.68,0.25
0.4,0.56,0.24
0.37,0.36,0.21
0.41,0.21,0.21
0.47,0.2,0.24
0.51,0.25,0.27
0.5,0.33,0.29
0.45,0.42,0.3
0.46,0.43,0.3
0.54,0.38,0.26
0.64,0.37,0.21
0.71,0.41,0.17
0.72,0.46,0.14
0.72,0.48,0.14
0.72,0.49,0.14
0.76,0.5,0.14
0.82,0.52,0.14
0.89,0.54,0.15
0.96,0.57,0.13
1.04,0.61,0.12
1.07,0.66,0.12
1.06,0.68,0.12
1.04,0.71,0.12
0.98,0.71,0.11
0.95,0.71,0.11
0.93,0.71,0.12
0.94,0.71,0.15
0.96,0.72,0.15
1,0.72,0.15
1.01,0.72,0.15
1,0.71,0.15
0.96,0.7,0.14
0.93,0.7,0.14
0.9,0.7,0.15
0.89,0.7,0.16
0.88,0.69,0.18
0.87,0.68,0.2
0.86,0.66,0.22
0.86,0.65,0.22
0.87,0.63,0.2
0.89,0.62,0.17
0.97,0.65,0.19
1.32,0.74,0.24
1.79,0.8,0.28
1.71,0.76,0.26
1.15,0.65,0.3
0.69,0.57,0.4
0.55,0.55,0.38
0.66,0.53,0.24
0.95,0.52,0.22
1,0.48,0.24
1.01,0.43,0.27
0.98,0.4,0.29
0.94,0.38,0.32
0.92,0.37,0.34
0.92,0.36,0.35
0.93,0.36,0.34
0.95,0.36,0.31
0.98,0.37,0.28
1,0.37,0.24
1.01,0.37,0.23
1.01,0.38,0.22
1.01,0.39,0.23
0.98,0.39,0.25
0.94,0.39,0.26
0.9,0.39,0.27
0.89,0.39,0.28
0.88,0.39,0.29
0.87,0.39,0.29
0.84,0.39,0.3
0.84,0.39,0.29
0.85,0.39,0.29
0.85,0.38,0.29
0.83,0.38,0.3
0.83,0.38,0.32
0.85,0.38,0.33
0.84,0.37,0.34
0.81,0.37,0.34
0.78,0.37,0.35
0.76,0.36,0.39
0.77,0.35,0.46
0.8,0.34,0.54
0.85,0.34,0.55
0.88,0.35,0.48
0.84,0.35,0.38
0.74,0.35,0.3
0.64,0.36,0.26
0.59,0.37,0.24
0.58,0.4,0.25
0.6,0.41,0.26
0.66,0.42,0.25
0.74,0.42,0.24
0.82,0.41,0.21
0.87,0.41,0.17
0.88,0.4,0.15
0.87,0.41,0.13
0.85,0.42,0.12
0.82,0.43,0.12
0.78,0.42,0.12
0.73,0.42,0.12
0.7,0.41,0.12
0.66,0.39,0.12
0.76,0.37,0.12
1.29,0.41,0.15
2.21,0.53,0.36
2.34,0.76,0.12
1.45,0.66,-0.15
0.69,0.36,0.16
0.34,0.35,0.33
0.37,0.42,0.35
0.72,0.41,0.3
1.05,0.41,0.26
1.1,0.43,0.28
0.98,0.41,0.32
0.86,0.38,0.37
0.79,0.36,0.41
0.76,0.36,0.42
0.76,0.37,0.43
0.78,0.38,0.44
0.8,0.38,0.45
0.82,0.37,0.46
0.82,0.37,0.47
0.81,0.37,0.49
0.81,0.37,0.52
0.77,0.38,0.54
0.76,0.37,0.56
0.75,0.38,0.59
0.71,0.38,0.61
0.7,0.38,0.63
0.73,0.37,0.65
0.72,0.37,0.66
0.69,0.37,0.67
0.67,0.37,0.66
0.65,0.36,0.66
0.63,0.35,0.71
0.59,0.35,0.73
0.59,0.34,0.72
0.61,0.35,0.72
0.62,0.37,0.71
0.65,0.36,0.72
0.66,0.36,0.73
0.65,0.37,0.73
0.63,0.38,0.73
0.63,0.39,0.71
0.65,0.39,0.68
0.66,0.38,0.64
0.66,0.37,0.62
0.66,0.37,0.59
0.65,0.37,0.59
0.63,0.38,0.62
0.64,0.39,0.63
0.64,0.41,0.62
0.63,0.42,0.61
0.59,0.4,0.57
0.57,0.39,0.57
0.57,0.39,0.6
0.57,0.39,0.65
0.56,0.38,0.71
0.57,0.39,0.72
0.62,0.39,0.74
0.64,0.39,0.76
0.61,0.4,0.75
0.59,0.43,0.73
0.59,0.45,0.68
0.6,0.44,0.64
0.6,0.42,0.62
0.59,0.41,0.62
0.58,0.41,0.65
0.59,0.42,0.67
0.61,0.43,0.68
0.63,0.43,0.7
0.64,0.44,0.72
0.65,0.44,0.73
0.65,0.44,0.73
0.64,0.44,0.73
0.63,0.43,0.72
0.61,0.43,0.71
0.6,0.42,0.69
0.59,0.41,0.67
0.6,0.41,0.67
0.61,0.4,0.68
0.61,0.39,0.69
0.6,0.39,0.69
0.59,0.4,0.71
0.58,0.38,0.73
0.57,0.37,0.74
0.56,0.37,0.74
0.58,0.37,0.74
0.59,0.37,0.73
0.59,0.38,0.72
0.58,0.37,0.71
0.57,0.37,0.71
0.55,0.37,0.71
0.54,0.36,0.72
0.56,0.36,0.72
0.57,0.37,0.72
0.57,0.37,0.72
0.57,0.37,0.72
0.57,0.36,0.71
0.58,0.37,0.71
0.59,0.38,0.72
0.6,0.38,0.72
0.6,0.39,0.72
0.59,0.39,0.71
0.59,0.39,0.71
0.58,0.39,0.72
0.57,0.4,0.73
0.57,0.41,0.74
0.58,0.41,0.73
0.59,0.41,0.73
0.59,0.41,0.74
0.57,0.41,0.74
0.56,0.4,0.74
0.57,0.4,0.74
0.57,0.41,0.73
0.57,0.41,0.73
0.58,0.41,0.73
0.59,0.41,0.72
0.6,0.41,0.71
0.6,0.39,0.7
0.57,0.37,0.69
0.56,0.38,0.69
0.58,0.37,0.7
0.57,0.35,0.71
0.56,0.36,0.72
0.56,0.37,0.73
0.58,0.37,0.73
0.58,0.37,0.72
0.57,0.36,0.71
0.57,0.36,0.71
0.59,0.36,0.71
0.6,0.35,0.72
0.59,0.36,0.73
0.59,0.37,0.73
0.59,0.36,0.73
0.59,0.36,0.73
0.59,0.37,0.73
0.59,0.36,0.72
0.59,0.37,0.73
0.59,0.37,0.73
0.58,0.37,0.73
0.59,0.37,0.72
0.59,0.37,0.73
0.59,0.38,0.73
0.59,0.38,0.74
0.59,0.38,0.75
0.59,0.38,0.75
0.59,0.39,0.75
0.58,0.39,0.74
0.58,0.4,0.74
0.59,0.4,0.74
0.59,0.4,0.73
0.59,0.4,0.74
0.58,0.41,0.74
0.58,0.41,0.74
0.59,0.41,0.73
0.6,0.42,0.72
0.59,0.38,0.67
0.59,0.36,0.67
0.57,0.37,0.67
0.54,0.33,0.73
0.52,0.31,0.75
0.55,0.31,0.75
0.59,0.32,0.75
0.6,0.32,0.74
0.6,0.33,0.72
0.59,0.34,0.71
0.59,0.35,0.72
0.6,0.36,0.72
0.6,0.36,0.72
0.59,0.37,0.72
0.59,0.37,0.72
0.59,0.38,0.73
0.6,0.38,0.73
0.6,0.37,0.72
0.6,0.37,0.72
0.6,0.37,0.72
0.59,0.37,0.72
0.59,0.37,0.72
0.59,0.37,0.72
0.59,0.37,0.72
0.59,0.37,0.72
0.59,0.37,0.72
0.59,0.37,0.72
0.59,0.37,0.73
0.59,0.37,0.72
0.6,0.37,0.72
0.6,0.37,0.73
0.6,0.37,0.73
0.6,0.37,0.73
0.6,0.37,0.74
0.59,0.37,0.75
0.58,0.36,0.76
0.59,0.35,0.75
0.6,0.36,0.74
0.61,0.36,0.74
0.61,0.37,0.74
0.61,0.38,0.74
0.6,0.37,0.75
0.6,0.38,0.76
0.59,0.39,0.77
0.59,0.4,0.77
0.59,0.4,0.76
0.59,0.4,0.75
0.6,0.4,0.75
0.62,0.4,0.75
0.6,0.41,0.73
0.63,0.44,0.72
0.69,0.45,0.73
0.67,0.44,0.76
0.66,0.44,0.75
0.63,0.44,0.74
0.63,0.43,0.74
0.65,0.43,0.74
0.67,0.44,0.76
0.68,0.44,0.77
0.67,0.46,0.77
0.66,0.47,0.76
0.65,0.49,0.75
0.63,0.5,0.74
0.61,0.52,0.71
0.61,0.52,0.68
0.64,0.53,0.64
0.68,0.54,0.63
0.7,0.56,0.64
0.68,0.57,0.67
0.64,0.59,0.7
0.59,0.59,0.72
0.55,0.6,0.73
0.54,0.6,0.73
0.55,0.6,0.73
0.54,0.61,0.73
0.53,0.63,0.73
0.49,0.64,0.7
0.48,0.64,0.65
0.53,0.67,0.61
0.6,0.71,0.57
0.64,0.71,0.58
0.6,0.71,0.59
0.56,0.72,0.59
0.53,0.72,0.57
0.52,0.72,0.57
0.55,0.74,0.58
0.56,0.74,0.59
0.51,0.73,0.61
0.47,0.72,0.6
0.47,0.72,0.58
0.48,0.73,0.57
0.48,0.73,0.57
0.45,0.71,0.57
0.4,0.71,0.56
0.37,0.71,0.54
0.37,0.72,0.52
0.37,0.73,0.5
0.34,0.73,0.49
0.33,0.71,0.5
0.32,0.69,0.51
0.32,0.68,0.52
0.33,0.69,0.52
0.33,0.69,0.51
0.31,0.68,0.5
0.28,0.67,0.5
0.27,0.66,0.47
0.26,0.66,0.45
0.24,0.67,0.46
0.21,0.67,0.48
0.18,0.67,0.48
0.22,0.66,0.47
0.25,0.67,0.43
0.26,0.7,0.42
0.25,0.69,0.42
0.22,0.69,0.42
0.23,0.71,0.41
0.3,0.7,0.38
0.35,0.7,0.37
0.37,0.71,0.36
0.37,0.72,0.36
0.35,0.73,0.37
0.31,0.73,0.4
0.28,0.72,0.4
0.25,0.72,0.38
0.19,0.73,0.37
0.16,0.73,0.36
0.19,0.75,0.36
0.21,0.78,0.35
0.22,0.8,0.36
0.22,0.81,0.36
0.2,0.81,0.36
0.18,0.82,0.32
0.17,0.85,0.27
0.16,0.87,0.25
0.15,0.87,0.27
0.16,0.85,0.31
0.18,0.83,0.35
0.17,0.82,0.36
0.14,0.81,0.36
0.13,0.79,0.36
0.11,0.77,0.35
0.1,0.75,0.33
0.11,0.74,0.29
0.16,0.87,0.31
0.2,1.36,0.43
0.23,1.81,0.43
0.22,1.41,0.28
0.14,0.7,0.25
0.14,0.68,0.26
0.2,0.86,0.22
0.14,0.88,0.23
-0.03,0.96,0.32
-0.1,0.98,0.37
-0.05,0.9,0.33
0.04,0.9,0.28
0.12,0.99,0.23
0.15,0.99,0.19
0.15,0.93,0.17
0.15,0.97,0.17
0.14,0.99,0.16
0.12,0.99,0.17
0.1,0.97,0.17
0.09,0.97,0.16
0.09,0.98,0.14
0.08,0.98,0.13
0.06,0.97,0.12
0.04,0.97,0.11
0.03,0.99,0.09
0.04,0.99,0.09
0.05,0.99,0.09
0.04,0.98,0.1
0.05,0.98,0.13
0.05,0.97,0.14
0.05,0.97,0.14
0.05,0.97,0.14
0.05,0.97,0.14
0.05,0.97,0.14
0.05,0.98,0.13
0.06,0.98,0.14
0.06,0.97,0.15
0.06,0.97,0.15
0.06,0.97,0.15
0.07,0.97,0.14
0.07,0.97,0.14
0.09,0.97,0.14
0.08,0.97,0.15
0.07,0.97,0.15
0.08,0.97,0.14
0.09,0.97,0.14
0.09,0.97,0.15
0.1,0.96,0.15
0.11,0.97,0.15
0.11,0.97,0.15
0.1,0.97,0.15
0.09,0.96,0.15
0.08,0.97,0.15
0.08,0.97,0.15
0.08,0.97,0.15
0.08,0.97,0.15
0.09,0.97,0.15
0.1,0.97,0.14
0.11,0.97,0.14
0.1,0.97,0.15
0.1,0.97,0.15
0.09,0.97,0.16
0.08,0.96,0.17
0.08,0.96,0.17
0.08,0.96,0.18
0.09,0.96,0.17
0.1,0.96,0.17
0.09,0.97,0.18
0.09,0.96,0.18
0.09,0.96,0.18
0.08,0.96,0.18
0.08,0.97,0.18
0.08,0.96,0.18
0.08,0.96,0.18
0.08,0.96,0.18
0.08,0.97,0.18
0.08,0.96,0.18
0.08,0.96,0.19
0.09,0.96,0.18
0.09,0.96,0.18
0.08,0.96,0.18
0.08,0.96,0.18
0.08,0.96,0.18
0.08,0.96,0.18
0.08,0.96,0.18
0.08,0.96,0.18
0.08,0.96,0.18
0.08,0.96,0.19
0.09,0.96,0.19
0.09,0.96,0.19
0.09,0.96,0.2
0.09,0.96,0.2
0.09,0.96,0.2
0.09,0.96,0.2
0.09,0.96,0.2
0.1,0.95,0.2
0.11,0.96,0.2
0.1,0.96,0.2
0.1,0.96,0.2
0.1,0.96,0.2
0.1,0.96,0.2
0.09,0.96,0.21
0.09,0.96,0.21
0.09,0.96,0.21
0.09,0.95,0.21
0.09,0.95,0.21
0.09,0.95,0.21
0.09,0.96,0.21
0.09,0.96,0.21
0.09,0.95,0.2
0.09,0.96,0.2
0.09,0.96,0.2
0.09,0.96,0.2
0.09,0.95,0.2
0.09,0.96,0.2
0.09,0.95,0.21
0.1,0.95,0.21
0.1,0.95,0.21
0.1,0.96,0.22
0.1,0.95,0.22
0.11,0.96,0.22
0.11,0.95,0.21
0.1,0.95,0.21
0.1,0.95,0.22
0.1,0.95,0.22
0.11,0.95,0.22
0.11,0.96,0.22
0.1,0.96,0.22
0.1,0.95,0.22
0.11,0.95,0.22
0.11,0.95,0.22
0.11,0.95,0.23
0.11,0.95,0.22
0.11,0.95,0.22
0.11,0.95,0.22
0.1,0.95,0.22
0.1,0.95,0.22
0.1,0.95,0.21
0.1,0.96,0.22
0.1,0.95,0.22
0.1,0.95,0.22
0.1,0.95,0.22
0.1,0.95,0.22
0.1,0.96,0.22
0.1,0.95,0.22
0.1,0.95,0.22
0.1,0.95,0.22
0.1,0.95,0.22
0.1,0.96,0.22
0.1,0.96,0.22
0.1,0.95,0.22
0.1,0.95,0.22
0.1,0.96,0.22
0.1,0.96,0.22
0.1,0.95,0.22
0.11,0.95,0.21
0.12,0.95,0.21
0.11,0.95,0.22
0.11,0.95,0.22
0.11,0.95,0.22
0.11,0.95,0.22
0.1,0.95,0.22
0.1,0.95,0.22
0.11,0.95,0.22
0.1,0.95,0.22
0.1,0.95,0.22
0.11,0.95,0.22
0.11,0.95,0.22
0.11,0.95,0.22
0.1,0.95,0.22
0.1,0.95,0.22
0.1,0.95,0.22
0.11,0.95,0.22
0.1,0.95,0.22
0.1,0.95,0.22
0.1,0.95,0.22
0.1,0.95,0.22
0.1,0.95,0.22
0.1,0.96,0.22
0.1,0.95,0.22
0.11,0.95,0.22
0.11,0.95,0.23
0.11,0.95,0.23
0.11,0.95,0.22
0.1,0.95,0.22
0.1,0.95,0.22
0.1,0.95,0.22
0.1,0.95,0.22
0.1,0.95,0.22
0.11,0.95,0.22
0.11,0.95,0.22
0.11,0.96,0.22
0.11,0.95,0.22
0.11,0.95,0.22
0.11,0.95,0.22
0.1,0.95,0.22
0.1,0.95,0.22
0.1,0.95,0.22
0.09,0.95,0.22
0.09,0.95,0.23
0.1,0.95,0.23
0.11,0.95,0.23
0.11,0.96,0.23
0.11,0.95,0.23
0.11,0.95,0.23
0.11,0.95,0.23
0.11,0.95,0.23
0.11,0.95,0.23
0.11,0.95,0.23
0.11,0.95,0.23
0.11,0.95,0.23
0.11,0.95,0.23
0.11,0.95,0.23
0.11,0.95,0.22
0.11,0.95,0.22
0.11,0.95,0.22
0.11,0.95,0.22
0.11,0.95,0.22
0.1,0.95,0.23
0.1,0.95,0.23
0.1,0.95,0.23
0.09,0.95,0.23
0.09,0.95,0.23
0.09,0.95,0.23
0.11,0.95,0.24
0.11,0.95,0.24
0.11,0.95,0.24
0.11,0.95,0.24
0.1,0.95,0.24
0.1,0.95,0.24
0.1,0.95,0.24
0.11,0.95,0.24
0.11,0.95,0.24
0.11,0.95,0.24
0.1,0.95,0.24
0.1,0.95,0.24
0.1,0.95,0.24
0.1,0.95,0.24
0.1,0.95,0.24
0.1,0.95,0.25
0.1,0.95,0.25
0.1,0.95,0.25
0.1,0.95,0.25
0.09,0.95,0.24
0.1,0.95,0.24
0.1,0.95,0.24
0.09,0.95,0.23
0.09,0.95,0.24
0.09,0.95,0.24
0.1,0.95,0.25
0.1,0.95,0.25
0.08,0.95,0.26
0.08,0.94,0.26
0.08,0.94,0.26
0.08,0.95,0.26
0.09,0.95,0.27
0.1,0.94,0.27
0.12,0.94,0.25
0.11,0.94,0.26
0.07,0.94,0.27
0.05,0.94,0.27
0.05,0.94,0.26
0.07,0.95,0.26
0.07,0.95,0.25
0.07,0.95,0.25
0.07,0.95,0.24
0.08,0.95,0.24
0.08,0.95,0.24
0.09,0.95,0.23
0.09,0.95,0.23
0.09,0.95,0.23
0.09,0.95,0.22
0.08,0.95,0.22
0.08,0.95,0.23
0.08,0.95,0.23
0.08,0.95,0.24
0.07,0.95,0.23
0.07,0.95,0.23
0.09,0.95,0.22
0.11,0.95,0.21
0.12,0.95,0.21
0.11,0.95,0.22
0.11,0.95,0.22
0.11,0.95,0.23
0.12,0.95,0.23
0.13,0.95,0.23
0.14,0.95,0.23
0.13,0.95,0.23
0.12,0.95,0.23
0.11,0.95,0.23
0.1,0.95,0.24
0.1,0.95,0.24
0.09,0.95,0.25
0.1,0.95,0.25
0.1,0.95,0.25
0.12,0.95,0.25
0.13,0.95,0.25
0.13,0.95,0.24
0.13,0.95,0.24
0.12,0.95,0.24
0.12,0.95,0.24
0.11,0.95,0.24
0.1,0.95,0.26
0.08,0.95,0.27
0.08,0.94,0.27
0.08,0.94,0.27
0.09,0.94,0.26
0.09,0.94,0.26
0.1,0.94,0.25
0.11,0.94,0.25
0.12,0.94,0.25
0.11,0.94,0.25
0.11,0.94,0.25
0.1,0.94,0.25
0.09,0.94,0.25
0.09,0.94,0.26
0.08,0.94,0.26
0.08,0.95,0.26
0.07,0.95,0.26
0.08,0.94,0.26
0.08,0.94,0.26
0.1,0.94,0.26
0.11,0.94,0.26
0.1,0.94,0.26
0.1,0.95,0.26
0.1,0.94,0.26
0.08,0.94,0.26
0.07,0.94,0.26
0.07,0.94,0.26
0.08,0.94,0.26
0.08,0.94,0.25
0.09,0.95,0.25
0.09,0.95,0.25
0.08,0.94,0.26
0.06,0.94,0.27
0.05,0.94,0.27
0.06,0.94,0.28
0.05,0.94,0.28
0.05,0.94,0.28
0.06,0.94,0.29
0.07,0.94,0.29
0.07,0.94,0.29
0.07,0.94,0.29
0.07,0.94,0.28
0.08,0.94,0.28
0.07,0.95,0.29
0.07,0.94,0.29
0.07,0.94,0.29
0.07,0.95,0.29
0.08,0.95,0.28
0.09,0.94,0.27
0.09,0.94,0.27
0.08,0.94,0.28
0.07,0.94,0.29
0.08,0.93,0.31
0.07,0.94,0.3
0.07,0.93,0.3
0.06,0.93,0.3
0.05,0.93,0.3
0.05,0.94,0.3
0.04,0.93,0.3
0.04,0.93,0.3
0.06,0.93,0.29
0.07,0.94,0.29
0.06,0.94,0.29
0.06,0.94,0.28
0.06,0.94,0.29
0.06,0.94,0.28
0.04,0.94,0.28
0.03,0.94,0.28
0.04,0.94,0.28
0.05,0.94,0.27
0.06,0.94,0.27
0.06,0.94,0.27
0.07,0.94,0.27
0.07,0.94,0.27
0.06,0.94,0.28
0.05,0.93,0.3
0.05,0.93,0.33
0.05,0.92,0.34
0.05,0.92,0.35
0.04,0.92,0.37
0.03,0.92,0.36
0.03,0.92,0.36
0.04,0.93,0.35
0.04,0.93,0.35
0.05,0.92,0.35
0.04,0.93,0.35
0.04,0.92,0.35
0.02,0.92,0.35
0,0.92,0.34
0,0.93,0.33
0.02,0.93,0.31
0.03,0.94,0.29
0.04,0.94,0.28
0.04,0.94,0.28
0.05,0.95,0.27
0.06,0.93,0.28
0.04,0.92,0.3
0.02,0.93,0.32
0.04,0.92,0.32
0.06,0.93,0.31
0.06,0.93,0.3
0.05,0.93,0.29
0.05,0.93,0.29
0.05,0.93,0.28
0.05,0.94,0.28
0.04,0.93,0.31
0.02,0.94,0.33
0.01,0.93,0.34
0,0.93,0.34
-0.01,0.94,0.33
0,0.93,0.33
0,0.93,0.34
0,0.93,0.33
0.01,0.93,0.33
0.02,0.93,0.33
0.02,0.93,0.35
0.01,0.93,0.36
0,0.92,0.37
-0.02,0.91,0.38
-0.03,0.91,0.4
-0.02,0.9,0.4
-0.02,0.9,0.4
-0.01,0.91,0.39
0,0.91,0.38
0.01,0.92,0.37
0.02,0.92,0.37
0.02,0.92,0.38
0.03,0.92,0.39
0.05,0.92,0.4
0.04,0.92,0.39
0.03,0.92,0.37
0.02,0.92,0.34
0,0.93,0.33
0,0.93,0.31
-0.01,0.93,0.29
-0.02,0.94,0.28
-0.03,0.94,0.27
-0.03,0.94,0.27
-0.02,0.93,0.27
-0.01,0.94,0.27
-0.02,0.94,0.27
-0.02,0.95,0.27
-0.02,0.94,0.27
-0.01,0.94,0.27
0,0.94,0.27
0.04,0.94,0.27
0.08,0.94,0.27
0.08,0.94,0.28
0.07,0.94,0.29
0.06,0.94,0.3
0.06,0.94,0.3
0.05,0.94,0.29
0.04,0.94,0.28
0.04,0.93,0.29
0.02,0.94,0.3
0,0.94,0.3
0,0.94,0.29
0.02,0.94,0.25
0.08,0.96,0.24
0.1,0.95,0.25
0.11,0.94,0.25
0.1,0.94,0.25
0.09,0.94,0.26
0.08,0.94,0.27
0.06,0.94,0.28
0.04,0.94,0.28
0.04,0.94,0.27
0.06,0.94,0.25
0.08,0.95,0.25
0.07,0.95,0.26
0.07,0.94,0.27
0.07,0.94,0.29
0.06,0.94,0.3
0.05,0.94,0.31
0.05,0.93,0.31
0.05,0.93,0.31
0.04,0.93,0.3
0.04,0.93,0.29
0.05,0.94,0.28
0.06,0.94,0.28
0.07,0.94,0.29
0.06,0.93,0.3
0.05,0.94,0.31
0.06,0.94,0.33
0.07,0.92,0.34
0.07,0.92,0.33
0.07,0.93,0.32
0.07,0.93,0.31
0.07,0.93,0.3
0.07,0.94,0.29
0.06,0.94,0.29
0.05,0.94,0.29
0.05,0.94,0.29
0.06,0.94,0.29
0.08,0.94,0.3
0.09,0.93,0.3
0.08,0.93,0.31
0.08,0.93,0.31
0.08,0.93,0.31
0.09,0.93,0.3
0.08,0.93,0.29
0.07,0.94,0.28
0.06,0.94,0.27
0.06,0.94,0.27
0.06,0.94,0.28
0.05,0.94,0.29
0.06,0.94,0.3
0.07,0.93,0.31
0.07,0.93,0.32
0.07,0.93,0.33
0.07,0.93,0.32
0.07,0.93,0.32
0.07,0.93,0.32
0.07,0.93,0.31
0.07,0.93,0.31
0.08,0.93,0.32
0.07,0.93,0.33
0.06,0.93,0.33
0.05,0.93,0.32
0.06,0.93,0.32
0.06,0.93,0.32
0.05,0.93,0.32
0.05,0.93,0.32
0.05,0.93,0.31
0.06,0.93,0.31
0.07,0.93,0.31
0.07,0.93,0.32
0.07,0.93,0.32
0.06,0.93,0.32
0.05,0.93,0.32
0.06,0.93,0.32
0.06,0.93,0.32
0.06,0.93,0.33
0.07,0.93,0.32
0.07,0.92,0.32
0.07,0.92,0.32
0.07,0.93,0.32
0.06,0.93,0.33
0.06,0.92,0.34
0.05,0.92,0.34
0.05,0.92,0.34
0.05,0.92,0.33
0.06,0.92,0.33
0.06,0.92,0.33
0.06,0.92,0.33
0.05,0.93,0.33
0.05,0.93,0.33
0.06,0.93,0.33
0.06,0.93,0.33
0.05,0.93,0.33
0.05,0.92,0.34
0.05,0.92,0.34
0.05,0.92,0.34
0.04,0.92,0.35
0.04,0.92,0.35
0.04,0.92,0.35
0.04,0.91,0.34
0.04,0.92,0.33
0.05,0.93,0.33
0.06,0.93,0.33
0.08,0.92,0.33
0.09,0.93,0.33
0.1,0.93,0.31
0.12,0.93,0.31
0.11,0.94,0.32
0.1,0.94,0.32
0.09,0.93,0.31
0.08,0.93,0.3
0.08,0.93,0.3
0.07,0.93,0.29
0.06,0.93,0.3
0.05,0.93,0.3
0.05,0.92,0.3
0.06,0.93,0.31
0.06,0.93,0.31
0.06,0.93,0.31
0.06,0.92,0.31
0.06,0.93,0.32
0.07,0.93,0.32
0.08,0.93,0.32
0.09,0.93,0.32
0.09,0.94,0.32
0.1,0.93,0.32
0.11,0.93,0.32
0.1,0.93,0.31
0.09,0.93,0.31
0.08,0.93,0.31
0.08,0.93,0.31
0.07,0.93,0.31
0.07,0.93,0.31
0.05,0.93,0.32
0.05,0.93,0.32
0.05,0.92,0.32
0.05,0.92,0.31
0.05,0.93,0.31
0.05,0.93,0.31
0.06,0.93,0.31
0.06,0.93,0.31
0.06,0.93,0.32
0.06,0.93,0.32
0.06,0.93,0.31
0.05,0.93,0.32
0.04,0.93,0.32
0.04,0.93,0.33
0.04,0.92,0.34
0.04,0.92,0.34
0.04,0.92,0.34
0.04,0.93,0.33
0.04,0.93,0.33
0.04,0.92,0.32
0.05,0.93,0.32
0.05,0.93,0.32
0.05,0.92,0.32
0.05,0.92,0.32
0.05,0.93,0.32
0.04,0.93,0.32
0.04,0.93,0.32
0.05,0.93,0.32
0.05,0.93,0.32
0.04,0.93,0.32
0.04,0.93,0.31
0.04,0.93,0.31
0.04,0.93,0.31
0.05,0.93,0.32
0.05,0.93,0.32
0.05,0.93,0.33
0.06,0.93,0.33
0.06,0.93,0.32
0.06,0.93,0.32
0.06,0.93,0.32
0.06,0.92,0.32
0.06,0.93,0.33
0.06,0.93,0.32
0.05,0.93,0.32
0.05,0.93,0.31
0.06,0.93,0.3
0.06,0.93,0.3
0.06,0.93,0.31
0.05,0.93,0.31
0.05,0.92,0.32
0.05,0.93,0.33
0.06,0.93,0.32
0.06,0.93,0.32
0.06,0.93,0.32
0.07,0.93,0.32
0.07,0.93,0.33
0.07,0.93,0.33
0.07,0.93,0.32
0.06,0.93,0.32
0.06,0.92,0.32
0.06,0.93,0.32
0.06,0.93,0.33
0.06,0.93,0.33
0.06,0.93,0.33
0.06,0.93,0.32
0.06,0.92,0.33
0.07,0.93,0.33
0.07,0.93,0.33
0.07,0.92,0.33
0.07,0.93,0.33
0.07,0.93,0.33
0.07,0.93,0.33
0.06,0.93,0.32
0.06,0.93,0.33
0.06,0.93,0.33
0.06,0.93,0.33
0.06,0.93,0.32
0.05,0.93,0.32
0.05,0.93,0.32
0.05,0.93,0.32
0.05,0.93,0.31
0.06,0.93,0.31
0.06,0.93,0.32
0.06,0.93,0.32
0.06,0.92,0.33
0.06,0.93,0.34
0.06,0.93,0.33
0.06,0.93,0.32
0.06,0.93,0.34
0.06,0.93,0.35
0.06,0.92,0.36
0.06,0.92,0.37
0.05,0.92,0.38
0.03,0.91,0.38
0.02,0.91,0.38
0,0.91,0.36
0,0.92,0.33
0,0.93,0.32
0.01,0.94,0.31
-0.02,0.93,0.3
-0.06,0.92,0.3
-0.06,0.93,0.33
-0.03,0.95,0.35
0.07,0.94,0.41
0.11,0.91,0.43
0.13,0.9,0.41
0.16,0.9,0.37
0.17,0.91,0.31
0.19,0.92,0.26
0.23,0.92,0.23
0.24,0.92,0.21
0.24,0.93,0.19
0.26,0.94,0.17
0.27,0.95,0.17
0.27,0.95,0.18
0.26,0.94,0.16
0.24,0.94,0.14
0.25,0.94,0.12
0.26,0.94,0.11
0.24,0.95,0.12
0.23,0.94,0.13
0.22,0.94,0.13
0.21,0.95,0.14
0.21,0.95,0.14
0.2,0.94,0.14
0.18,0.94,0.14
0.17,0.95,0.15
0.18,0.95,0.16
0.2,0.95,0.16
0.2,0.95,0.16
0.22,0.94,0.15
0.22,0.95,0.14
0.23,0.95,0.14
0.23,0.95,0.14
0.23,0.95,0.14
0.22,0.95,0.14
0.22,0.95,0.14
0.22,0.95,0.12
0.21,0.96,0.13
0.2,0.96,0.15
0.23,0.94,0.15
0.27,0.94,0.11
0.24,0.95,0.08
0.21,0.95,0.09
0.22,0.96,0.1
0.21,0.95,0.11
0.21,0.95,0.12
0.23,0.96,0.12
0.23,0.96,0.12
0.22,0.96,0.1
0.22,0.96,0.08
0.22,0.96,0.08
0.23,0.96,0.09
0.23,0.96,0.11
0.21,0.95,0.11
0.2,0.96,0.09
0.17,0.96,0.1
0.17,0.95,0.11
0.18,0.95,0.11
0.19,0.95,0.11
0.2,0.95,0.12
0.21,0.95,0.11
0.21,0.96,0.09
0.21,0.97,0.07
0.2,0.96,0.08
0.19,0.96,0.08
0.19,0.95,0.08
0.2,0.96,0.07
0.21,0.96,0.07
0.21,0.96,0.07
0.21,0.95,0.08
0.21,0.96,0.08
0.21,0.95,0.09
0.2,0.96,0.1
0.2,0.96,0.1
0.2,0.96,0.1
0.18,0.96,0.1
0.17,0.96,0.11
0.16,0.96,0.11
0.17,0.95,0.12
0.18,0.95,0.12
0.19,0.95,0.12
0.2,0.95,0.13
0.21,0.95,0.12
0.23,0.95,0.11
0.24,0.95,0.11
0.25,0.95,0.11
0.25,0.95,0.11
0.24,0.95,0.12
0.23,0.95,0.13
0.21,0.95,0.14
0.2,0.95,0.15
0.19,0.94,0.15
0.21,0.94,0.15
0.23,0.94,0.14
0.26,0.94,0.12
0.28,0.95,0.11
0.29,0.95,0.1
0.29,0.95,0.1
0.29,0.94,0.11
0.29,0.94,0.11
0.27,0.94,0.12
0.26,0.94,0.13
0.25,0.94,0.14
0.24,0.93,0.16
0.24,0.92,0.17
0.23,0.91,0.18
0.22,0.9,0.22
0.24,0.89,0.23
0.25,0.88,0.24
0.26,0.88,0.25
0.28,0.87,0.25
0.3,0.86,0.25
0.33,0.85,0.26
0.33,0.85,0.28
0.32,0.85,0.29
0.32,0.84,0.31
0.31,0.83,0.32
0.31,0.83,0.33
0.32,0.83,0.33
0.33,0.82,0.33
0.33,0.81,0.34
0.32,0.8,0.36
0.31,0.8,0.39
0.31,0.79,0.41
0.3,0.78,0.42
0.3,0.77,0.44
0.3,0.76,0.45
0.29,0.74,0.45
0.29,0.72,0.45
0.28,0.71,0.46
0.26,0.7,0.48
0.25,0.7,0.5
0.23,0.67,0.48
0.14,0.25,0.4
0.15,0.11,0.34
0.19,0.14,0.34
0.24,0.24,0.38
0.25,0.33,0.44
0.26,0.4,0.53
0.34,0.42,0.57
0.47,0.44,0.58
0.58,0.47,0.6
0.62,0.5,0.61
0.61,0.53,0.61
0.59,0.56,0.61
0.59,0.6,0.6
0.6,0.65,0.59
0.62,0.71,0.61
0.62,0.74,0.62
0.62,0.77,0.64
0.64,0.78,0.67
0.69,0.78,0.7
0.71,0.77,0.74
0.69,0.77,0.78
0.65,0.78,0.8
0.62,0.79,0.8
0.61,0.8,0.79
0.61,0.79,0.76
0.65,0.77,0.74
0.67,0.75,0.68
0.63,0.73,0.67
0.57,0.72,0.68
0.53,0.73,0.7
0.51,0.72,0.71
0.51,0.71,0.72
0.54,0.7,0.74
0.56,0.68,0.75
0.55,0.65,0.74
0.56,0.62,0.73
0.56,0.59,0.74
0.55,0.57,0.75
0.54,0.53,0.75
0.52,0.51,0.75
0.51,0.48,0.75
0.51,0.45,0.75
0.5,0.42,0.74
0.49,0.39,0.71
0.49,0.36,0.69
0.51,0.33,0.69
0.55,0.3,0.69
0.57,0.29,0.69
0.56,0.27,0.67
0.55,0.26,0.65
0.64,0.24,0.69
0.93,0.21,0.88
1.22,0.26,1.21
0.77,0.28,0.96
0.5,0.24,0.78
0.47,0.2,0.74
0.56,0.18,0.79
0.58,0.18,0.82
0.58,0.18,0.84
0.57,0.18,0.86
0.57,0.19,0.89
0.56,0.18,0.86
0.54,0.19,0.83
0.54,0.21,0.81
0.57,0.21,0.81
0.58,0.22,0.81
0.57,0.22,0.79
0.57,0.22,0.77
0.6,0.22,0.76
0.61,0.23,0.74
0.62,0.23,0.71
0.64,0.23,0.7
0.65,0.24,0.7
0.65,0.24,0.7
0.65,0.24,0.71
0.65,0.25,0.71
0.67,0.24,0.69
0.67,0.23,0.69
0.64,0.23,0.73
0.61,0.23,0.75
0.62,0.24,0.75
0.63,0.24,0.74
0.64,0.24,0.74
0.63,0.24,0.74
0.62,0.24,0.74
0.62,0.24,0.74
0.64,0.25,0.73
0.64,0.25,0.73
0.65,0.25,0.73
0.64,0.26,0.74
0.64,0.27,0.74
0.64,0.28,0.74
0.65,0.29,0.74
0.65,0.3,0.74
0.65,0.31,0.74
0.65,0.31,0.75
0.64,0.31,0.75
0.63,0.31,0.74
0.62,0.3,0.74
0.61,0.28,0.75
0.61,0.26,0.75
0.61,0.25,0.75
0.62,0.25,0.75
0.63,0.25,0.76
0.62,0.25,0.75
0.64,0.26,0.74
0.64,0.26,0.73
0.64,0.27,0.73
0.64,0.28,0.73
0.65,0.28,0.72
0.64,0.28,0.7
0.67,0.28,0.73
0.7,0.3,0.75
0.68,0.3,0.72
0.63,0.3,0.69
0.62,0.3,0.68
0.65,0.3,0.7
0.68,0.3,0.71
0.68,0.31,0.7
0.66,0.3,0.69
0.66,0.3,0.7
0.68,0.3,0.71
0.67,0.29,0.71
0.66,0.29,0.7
0.66,0.28,0.7
0.67,0.27,0.71
0.67,0.27,0.71
0.66,0.26,0.71
0.66,0.25,0.7
0.66,0.25,0.7
0.66,0.24,0.7
0.67,0.24,0.69
0.67,0.24,0.7
0.67,0.25,0.7
0.67,0.25,0.7
0.66,0.26,0.7
0.66,0.26,0.7
0.66,0.27,0.7
0.66,0.28,0.7
0.66,0.28,0.7
0.65,0.28,0.7
0.64,0.28,0.71
0.64,0.28,0.71
0.63,0.29,0.71
0.65,0.29,0.71
0.66,0.29,0.71
0.67,0.29,0.7
0.67,0.29,0.71
0.67,0.3,0.71
0.67,0.29,0.71
0.66,0.28,0.71
0.64,0.27,0.71
0.63,0.27,0.72
0.63,0.27,0.73
0.63,0.27,0.73
0.64,0.27,0.73
0.64,0.27,0.72
0.63,0.27,0.72
0.63,0.27,0.73
0.64,0.28,0.73
0.64,0.29,0.73
0.65,0.29,0.73
0.65,0.3,0.73
0.65,0.3,0.73
0.65,0.3,0.72
0.65,0.3,0.72
0.65,0.3,0.72
0.66,0.29,0.7
0.68,0.3,0.7
0.7,0.3,0.7
0.68,0.28,0.69
0.64,0.26,0.71
0.62,0.25,0.72
0.63,0.25,0.73
0.64,0.24,0.72
0.64,0.24,0.72
0.63,0.24,0.73
0.61,0.24,0.74
0.61,0.25,0.74
0.64,0.27,0.73
0.65,0.28,0.73
0.64,0.28,0.72
0.63,0.28,0.73
0.64,0.28,0.74
0.64,0.28,0.72
0.64,0.28,0.71
0.62,0.28,0.72
0.63,0.29,0.71
0.65,0.29,0.7
0.65,0.29,0.72
0.65,0.27,0.71
0.64,0.27,0.72
0.62,0.27,0.74
0.63,0.28,0.74
0.64,0.28,0.74
0.63,0.27,0.73
0.61,0.27,0.73
0.6,0.28,0.75
0.6,0.27,0.78
0.63,0.28,0.78
0.65,0.28,0.75
0.63,0.27,0.73
0.64,0.28,0.71
0.65,0.28,0.73
0.63,0.28,0.74
0.62,0.28,0.75
0.62,0.27,0.74
0.62,0.27,0.73
0.62,0.27,0.74
0.64,0.26,0.71
0.63,0.25,0.72
0.61,0.24,0.73
0.61,0.25,0.73
0.62,0.26,0.73
0.64,0.28,0.72
0.65,0.29,0.72
0.65,0.29,0.72
0.64,0.3,0.72
0.64,0.3,0.72
0.64,0.3,0.72
0.64,0.3,0.73
0.63,0.29,0.73
0.63,0.28,0.72
0.64,0.28,0.72
0.64,0.28,0.73
0.63,0.27,0.74
0.63,0.27,0.74
0.63,0.27,0.74
0.63,0.27,0.73
0.63,0.27,0.73
0.63,0.27,0.73
0.63,0.27,0.73
0.64,0.27,0.72
0.64,0.28,0.72
0.64,0.28,0.72
0.64,0.29,0.72
0.64,0.29,0.72
0.64,0.29,0.72
0.64,0.29,0.72
0.64,0.28,0.72
0.64,0.28,0.72
0.64,0.28,0.72
0.64,0.28,0.72
0.64,0.28,0.72
0.64,0.28,0.72
0.64,0.27,0.73
0.64,0.28,0.72
0.63,0.28,0.73
0.63,0.28,0.73
0.63,0.28,0.72
0.64,0.28,0.72
0.64,0.28,0.73
0.63,0.28,0.73
0.63,0.28,0.73
0.63,0.28,0.73
0.64,0.28,0.73
0.64,0.28,0.73
0.64,0.28,0.72
0.64,0.28,0.72
0.64,0.28,0.72
0.63,0.28,0.73
0.63,0.28,0.73
0.63,0.28,0.73
0.63,0.28,0.73
0.63,0.28,0.73
0.63,0.29,0.73
0.64,0.29,0.73
0.63,0.29,0.73
0.63,0.28,0.73
0.63,0.28,0.73
0.63,0.28,0.73
0.63,0.28,0.73
0.64,0.28,0.72
0.64,0.28,0.72
0.64,0.28,0.72
0.64,0.28,0.72
0.64,0.28,0.72
0.63,0.28,0.72
0.63,0.28,0.72
0.63,0.28,0.72
0.63,0.29,0.73
0.64,0.29,0.73
0.64,0.3,0.73
0.64,0.3,0.73
0.64,0.29,0.73
0.64,0.29,0.73
0.63,0.29,0.73
0.63,0.29,0.73
0.63,0.28,0.73
0.64,0.28,0.72
0.64,0.28,0.72
0.64,0.27,0.72
0.64,0.27,0.72
0.64,0.27,0.72
0.63,0.27,0.72
0.64,0.27,0.72
0.64,0.27,0.72
0.64,0.28,0.72
0.64,0.27,0.72
0.64,0.27,0.72
0.64,0.28,0.72
0.64,0.28,0.72
0.64,0.28,0.72
0.64,0.28,0.72
0.64,0.29,0.73
0.63,0.29,0.73
0.63,0.29,0.73
0.63,0.29,0.73
0.64,0.29,0.73
0.63,0.29,0.73
0.63,0.28,0.73
0.63,0.28,0.73
0.63,0.28,0.73
0.64,0.28,0.73
0.64,0.27,0.72
0.64,0.27,0.72
0.64,0.27,0.72
0.64,0.27,0.72
0.64,0.27,0.72
0.64,0.28,0.72
0.64,0.27,0.72
0.64,0.27,0.72
0.64,0.28,0.72
0.64,0.28,0.72
0.63,0.28,0.73
0.63,0.28,0.73
0.63,0.28,0.72
0.63,0.28,0.72
0.63,0.28,0.73
0.63,0.28,0.73
0.63,0.28,0.72
0.63,0.28,0.72
0.63,0.28,0.73
0.63,0.28,0.73
0.64,0.28,0.73
0.63,0.28,0.73
0.63,0.28,0.73
0.63,0.27,0.73
0.63,0.28,0.73
0.64,0.28,0.72
0.64,0.28,0.72
0.64,0.28,0.72
0.64,0.28,0.72
0.64,0.28,0.73
0.64,0.28,0.73
0.63,0.28,0.73
0.63,0.28,0.73
0.63,0.28,0.73
0.63,0.28,0.73
0.63,0.28,0.73
0.63,0.28,0.72
0.63,0.28,0.72
0.64,0.28,0.72
0.64,0.28,0.73
0.64,0.28,0.73
0.64,0.28,0.73
0.64,0.27,0.73
0.64,0.27,0.73
0.63,0.27,0.73
0.64,0.27,0.73
0.64,0.27,0.72
0.63,0.27,0.72
0.63,0.27,0.73
0.63,0.27,0.73
0.64,0.28,0.72
0.64,0.28,0.73
0.64,0.27,0.72
0.64,0.28,0.72
0.64,0.28,0.73
0.63,0.28,0.73
0.63,0.28,0.72
0.63,0.28,0.72
0.63,0.28,0.73
0.63,0.28,0.73
0.63,0.28,0.73
0.63,0.28,0.73
0.63,0.28,0.73
0.64,0.28,0.73
0.64,0.28,0.72
0.64,0.28,0.72
0.64,0.28,0.73
0.64,0.27,0.73
0.63,0.28,0.73
0.63,0.28,0.73
0.63,0.28,0.73
0.63,0.28,0.73
0.64,0.28,0.72
0.64,0.28,0.72
0.64,0.28,0.72
0.64,0.27,0.72
0.64,0.28,0.72
0.64,0.28,0.73
0.63,0.28,0.72
0.63,0.28,0.72
0.64,0.28,0.72
0.64,0.28,0.72
0.64,0.28,0.72
0.64,0.28,0.72
0.64,0.28,0.73
0.64,0.28,0.73
0.64,0.28,0.73
0.64,0.28,0.73
0.63,0.28,0.73
0.63,0.27,0.72
0.64,0.27,0.72
0.64,0.28,0.72
0.64,0.28,0.72
0.64,0.28,0.72
0.63,0.28,0.73
0.63,0.28,0.73
0.63,0.28,0.73
0.63,0.28,0.73
0.63,0.28,0.73
0.63,0.28,0.73
0.64,0.28,0.72
0.63,0.28,0.73
0.63,0.28,0.73
0.64,0.28,0.72
0.64,0.29,0.73
0.64,0.29,0.73
0.64,0.29,0.73
0.64,0.28,0.73
0.64,0.28,0.72
0.64,0.27,0.72
0.64,0.27,0.73
0.63,0.27,0.73
0.63,0.27,0.72
0.64,0.28,0.72
0.64,0.28,0.72
0.64,0.28,0.72
0.64,0.28,0.72
0.64,0.28,0.72
0.64,0.28,0.72
0.64,0.28,0.72
0.64,0.28,0.73
0.63,0.28,0.73
0.63,0.28,0.73
0.63,0.28,0.73
0.63,0.28,0.73
0.63,0.28,0.72
0.63,0.28,0.72
0.64,0.28,0.72
0.64,0.28,0.72
0.64,0.28,0.72
0.64,0.29,0.73
0.64,0.28,0.73
0.64,0.28,0.73
0.64,0.28,0.72
0.63,0.28,0.72
0.64,0.28,0.72
0.64,0.28,0.72
0.64,0.28,0.72
0.64,0.28,0.72
0.64,0.28,0.72
0.64,0.28,0.72
0.64,0.28,0.72
0.64,0.28,0.72
0.64,0.29,0.73
0.63,0.29,0.73
0.63,0.29,0.73
0.64,0.28,0.72
0.64,0.28,0.73
0.64,0.28,0.73
0.63,0.28,0.73
0.63,0.28,0.73
0.63,0.28,0.72
0.64,0.28,0.72
0.64,0.28,0.72
0.64,0.28,0.72
0.64,0.28,0.73
0.64,0.28,0.73
0.65,0.28,0.73
0.66,0.28,0.73
0.65,0.28,0.74
0.65,0.28,0.75
0.64,0.29,0.75
0.62,0.29,0.77
0.63,0.29,0.78
0.64,0.28,0.77
0.66,0.29,0.77
0.69,0.29,0.78
0.71,0.3,0.79
0.74,0.31,0.81
0.76,0.32,0.82
0.76,0.34,0.82
0.76,0.36,0.8
0.76,0.39,0.76
0.76,0.43,0.73
0.77,0.44,0.77
0.79,0.44,0.82
0.77,0.46,0.85
0.76,0.5,0.86
0.73,0.52,0.86
0.69,0.54,0.86
0.65,0.55,0.85
0.62,0.57,0.85
0.6,0.58,0.85
0.53,0.61,0.83
0.51,0.62,0.81
0.52,0.64,0.79
0.54,0.66,0.77
0.57,0.69,0.75
0.59,0.7,0.7
0.63,0.71,0.65
0.68,0.72,0.6
0.72,0.74,0.56
0.72,0.75,0.52
0.72,0.76,0.51
0.7,0.76,0.5
0.7,0.76,0.48
0.71,0.76,0.47
0.71,0.76,0.44
0.71,0.77,0.41
0.7,0.77,0.38
0.67,0.77,0.36
0.65,0.76,0.37
0.66,0.76,0.37
0.68,0.76,0.36
0.67,0.76,0.35
0.66,0.76,0.34
0.63,0.75,0.31
0.62,0.74,0.3
0.64,0.73,0.31
0.65,0.73,0.3
0.64,0.73,0.28
0.63,0.74,0.23
0.61,0.74,0.2
0.6,0.74,0.18
0.6,0.74,0.17
0.6,0.74,0.18
0.59,0.75,0.19
0.55,0.74,0.19
0.51,0.73,0.2
0.48,0.72,0.21
0.47,0.72,0.22
0.46,0.73,0.23
0.44,0.73,0.23
0.4,0.73,0.23
0.37,0.73,0.22
0.35,0.71,0.2
0.35,0.69,0.2
0.34,0.69,0.21
0.32,0.69,0.23
0.29,0.69,0.23
0.27,0.69,0.25
0.26,0.67,0.27
0.23,0.66,0.29
0.22,0.65,0.3
0.23,0.65,0.31
0.25,0.66,0.32
0.23,0.66,0.33
0.22,0.66,0.34
0.21,0.66,0.35
0.2,0.66,0.35
0.19,0.66,0.36
0.19,0.67,0.37
0.2,0.67,0.39
0.21,0.68,0.4
0.21,0.7,0.4
0.21,0.71,0.39
0.22,0.72,0.4
0.2,0.72,0.41
0.16,0.73,0.44
0.14,0.73,0.46
0.15,0.75,0.46
0.18,0.76,0.46
0.18,0.78,0.46
0.18,0.8,0.45
0.18,0.81,0.44
0.19,0.82,0.43
0.21,0.83,0.42
0.22,0.83,0.43
0.23,0.83,0.44
0.22,0.83,0.45
0.21,0.83,0.45
0.21,0.84,0.45
0.25,0.86,0.44
0.27,0.87,0.43
0.27,0.88,0.41
0.27,0.87,0.4
0.28,0.87,0.4
0.29,0.86,0.41
0.28,0.86,0.42
0.26,0.86,0.44
0.25,0.86,0.44
0.25,0.87,0.43
0.26,0.87,0.42
0.26,0.87,0.42
0.28,0.87,0.41
0.29,0.87,0.41
0.3,0.86,0.41
0.3,0.86,0.41
0.29,0.86,0.41
0.29,0.86,0.41
0.28,0.85,0.42
0.27,0.84,0.42
0.26,0.85,0.41
0.25,0.86,0.4
0.25,0.86,0.39
0.25,0.86,0.39
0.26,0.86,0.39
0.27,0.85,0.39
0.25,0.86,0.39
0.25,0.86,0.39
0.25,0.88,0.39
0.23,0.88,0.4
0.22,0.88,0.42
0.22,0.87,0.42
0.22,0.86,0.42
0.23,0.86,0.42
0.23,0.86,0.42
0.23,0.86,0.42
0.23,0.87,0.42
0.23,0.87,0.42
0.23,0.87,0.43
0.23,0.87,0.43
0.23,0.87,0.43
0.22,0.86,0.43
0.21,0.86,0.43
0.21,0.86,0.42
0.23,0.87,0.41
0.24,0.87,0.41
0.23,0.87,0.41
0.22,0.86,0.42
0.22,0.85,0.42
0.24,0.85,0.43
0.26,0.86,0.43
0.26,0.85,0.44
0.26,0.85,0.45
0.24,0.86,0.45
0.22,0.85,0.46
0.2,0.86,0.47
0.18,0.86,0.48
0.18,0.86,0.48
0.19,0.87,0.47
0.18,0.87,0.45
0.16,0.87,0.43
0.15,0.87,0.42
0.16,0.87,0.42
0.17,0.86,0.44
0.18,0.85,0.45
0.18,0.84,0.44
0.18,0.84,0.44
0.2,0.84,0.43
0.2,0.84,0.42
0.19,0.83,0.41
0.18,0.82,0.41
0.18,0.81,0.41
0.19,0.81,0.41
0.21,0.81,0.4
0.21,0.81,0.4
0.19,0.8,0.41
0.17,0.79,0.43
0.16,0.79,0.44
0.14,0.78,0.45
0.13,0.77,0.44
0.12,0.77,0.42
0.13,0.76,0.41
0.13,0.75,0.41
0.14,0.74,0.42
0.15,0.73,0.41
0.17,0.71,0.4
0.18,0.68,0.39
0.2,0.65,0.37
0.2,0.64,0.35
0.21,0.62,0.33
0.22,0.6,0.31
0.23,0.57,0.3
0.24,0.53,0.29
0.25,0.51,0.28
0.25,0.49,0.27
0.25,0.51,0.25
0.25,0.55,0.25
0.25,0.59,0.25
0.27,0.58,0.25
0.3,0.56,0.25
0.33,0.55,0.24
0.36,0.54,0.22
0.38,0.52,0.18
0.39,0.52,0.14
0.4,0.53,0.1
0.45,0.55,0.11
0.47,0.57,0.13
0.48,0.61,0.15
0.48,0.65,0.17
0.5,0.65,0.16
0.54,0.65,0.17
0.6,0.65,0.21
0.69,0.63,0.29
0.76,0.62,0.4
0.8,0.64,0.46
0.82,0.67,0.48
0.83,0.68,0.47
0.81,0.7,0.45
0.77,0.72,0.42
0.77,0.73,0.46
0.79,0.74,0.55
0.81,0.73,0.63
0.87,0.71,0.72
0.9,0.71,0.81
0.87,0.71,0.86
0.83,0.73,0.85
0.79,0.73,0.82
0.76,0.72,0.8
0.72,0.7,0.81
0.73,0.68,0.87
0.78,0.65,0.96
0.75,0.63,0.99
0.71,0.62,1.01
0.67,0.59,1.03
0.67,0.57,1.02
0.68,0.56,1
0.67,0.55,0.98
0.65,0.53,0.96
0.65,0.51,0.94
0.63,0.5,0.92
0.62,0.48,0.9
0.6,0.46,0.87
0.59,0.44,0.86
0.59,0.43,0.86
0.61,0.42,0.87
0.64,0.43,0.9
0.67,0.42,0.9
0.68,0.41,0.88
0.68,0.4,0.83
0.65,0.39,0.78
0.61,0.36,0.75
0.59,0.34,0.74
0.59,0.32,0.75
0.61,0.3,0.77
0.62,0.28,0.78
0.61,0.25,0.78
0.6,0.24,0.79
0.62,0.21,0.8
0.61,0.19,0.81
0.6,0.18,0.82
0.59,0.16,0.85
0.57,0.16,0.87
0.53,0.16,0.87
0.5,0.16,0.86
0.5,0.17,0.85
0.51,0.19,0.82
0.55,0.21,0.8
0.58,0.21,0.8
0.57,0.22,0.8
0.57,0.23,0.8
0.57,0.25,0.8
0.57,0.27,0.8
0.59,0.28,0.79
0.59,0.29,0.79
0.58,0.29,0.79
0.57,0.3,0.8
0.57,0.31,0.81
0.56,0.3,0.81
0.54,0.31,0.79
0.51,0.35,0.78
0.54,0.35,0.77
0.56,0.34,0.75
0.52,0.34,0.74
0.55,0.33,0.74
0.55,0.32,0.74
0.55,0.33,0.74
0.54,0.32,0.74
0.54,0.31,0.74
0.55,0.3,0.75
0.56,0.3,0.75
0.56,0.29,0.75
0.58,0.28,0.75
0.57,0.28,0.75
0.57,0.28,0.75
0.57,0.27,0.75
0.57,0.27,0.75
0.58,0.26,0.76
0.59,0.26,0.76
0.59,0.26,0.78
0.59,0.25,0.79
0.58,0.25,0.79
0.57,0.24,0.79
0.57,0.24,0.79
0.56,0.24,0.79
0.55,0.24,0.79
0.55,0.23,0.8
0.55,0.23,0.81
