Acc_x,Acc_y,Acc_z
0.08,0.94,0.28
0.08,0.94,0.28
0.08,0.94,0.28
0.08,0.94,0.28
0.08,0.93,0.29
0.08,0.94,0.29
0.08,0.94,0.29
0.07,0.94,0.29
0.07,0.94,0.3
0.06,0.94,0.29
0.06,0.94,0.3
0.07,0.94,0.3
0.07,0.94,0.3
0.08,0.94,0.3
0.08,0.94,0.3
0.08,0.94,0.3
0.08,0.94,0.3
0.07,0.94,0.29
0.07,0.93,0.29
0.07,0.93,0.28
0.08,0.94,0.29
0.08,0.94,0.29
0.07,0.93,0.29
0.07,0.94,0.29
0.07,0.93,0.29
0.07,0.93,0.29
0.07,0.93,0.3
0.07,0.93,0.3
0.08,0.93,0.31
0.08,0.93,0.31
0.08,0.93,0.31
0.08,0.93,0.31
0.07,0.93,0.31
0.07,0.93,0.31
0.07,0.93,0.31
0.07,0.93,0.31
0.07,0.93,0.3
0.07,0.94,0.3
0.07,0.94,0.3
0.07,0.93,0.3
0.07,0.93,0.3
0.07,0.93,0.3
0.08,0.93,0.3
0.08,0.93,0.3
0.08,0.93,0.3
0.07,0.93,0.3
0.07,0.93,0.3
0.07,0.94,0.3
0.07,0.93,0.3
0.08,0.93,0.3
0.07,0.94,0.3
0.07,0.93,0.31
0.07,0.93,0.31
0.06,0.93,0.31
0.06,0.93,0.31
0.06,0.93,0.31
0.05,0.93,0.3
0.06,0.93,0.29
0.07,0.94,0.29
0.07,0.94,0.29
0.07,0.93,0.29
0.07,0.94,0.29
0.06,0.94,0.29
0.06,0.93,0.29
0.06,0.93,0.29
0.06,0.93,0.3
0.07,0.93,0.3
0.07,0.94,0.3
0.07,0.93,0.31
0.08,0.93,0.31
0.09,0.93,0.31
0.09,0.94,0.31
0.08,0.94,0.3
0.08,0.93,0.29
0.05,0.93,0.3
0.05,0.94,0.3
0.07,0.93,0.3
0.07,0.93,0.3
0.07,0.93,0.31
0.06,0.94,0.3
0.06,0.94,0.3
0.06,0.94,0.29
0.07,0.94,0.29
0.06,0.94,0.29
0.06,0.93,0.28
0.06,0.93,0.28
0.06,0.94,0.28
0.06,0.94,0.29
0.07,0.93,0.3
0.08,0.93,0.3
0.08,0.94,0.3
0.09,0.94,0.3
0.08,0.94,0.3
0.09,0.94,0.3
0.09,0.93,0.3
0.1,0.93,0.3
0.1,0.94,0.3
0.09,0.93,0.3
0.08,0.93,0.31
0.07,0.93,0.31
0.06,0.93,0.31
0.06,0.93,0.3
0.05,0.94,0.3
0.05,0.93,0.3
0.05,0.93,0.3
0.05,0.93,0.3
0.05,0.94,0.31
0.05,0.93,0.32
0.05,0.93,0.31
0.06,0.93,0.3
0.08,0.94,0.3
0.09,0.94,0.29
0.09,0.94,0.29
0.09,0.93,0.29
0.09,0.93,0.3
0.08,0.93,0.29
0.08,0.93,0.29
0.09,0.93,0.29
0.09,0.94,0.29
0.08,0.94,0.29
0.07,0.94,0.29
0.06,0.93,0.3
0.06,0.93,0.3
0.06,0.94,0.3
0.05,0.94,0.31
0.05,0.93,0.31
0.05,0.93,0.31
0.06,0.93,0.3
0.06,0.93,0.3
0.06,0.93,0.3
0.06,0.93,0.29
0.06,0.94,0.29
0.05,0.94,0.29
0.05,0.94,0.28
0.05,0.94,0.28
0.06,0.94,0.28
0.06,0.94,0.28
0.07,0.94,0.28
0.07,0.94,0.29
0.08,0.94,0.29
0.09,0.93,0.29
0.1,0.93,0.29
0.11,0.94,0.29
0.11,0.94,0.29
0.1,0.94,0.29
0.09,0.94,0.29
0.08,0.94,0.29
0.07,0.94,0.29
0.06,0.93,0.3
0.05,0.93,0.3
0.05,0.94,0.3
0.05,0.93,0.29
0.05,0.94,0.29
0.06,0.94,0.29
0.06,0.93,0.28
0.07,0.93,0.28
0.07,0.93,0.29
0.08,0.94,0.3
0.08,0.94,0.3
0.08,0.94,0.29
0.07,0.94,0.29
0.07,0.94,0.29
0.07,0.94,0.29
0.07,0.94,0.29
0.07,0.94,0.29
0.07,0.93,0.29
0.07,0.94,0.28
0.07,0.94,0.28
0.07,0.94,0.28
0.07,0.94,0.28
0.07,0.94,0.28
0.08,0.94,0.28
0.08,0.94,0.28
0.07,0.94,0.28
0.07,0.94,0.29
0.08,0.94,0.29
0.07,0.94,0.29
0.07,0.94,0.29
0.07,0.94,0.29
0.08,0.94,0.29
0.08,0.94,0.29
0.08,0.94,0.29
0.08,0.93,0.29
0.08,0.94,0.29
0.07,0.94,0.29
0.07,0.94,0.29
0.07,0.93,0.29
0.07,0.93,0.29
0.07,0.94,0.29
0.07,0.94,0.29
0.07,0.94,0.29
0.08,0.94,0.29
0.08,0.94,0.29
0.07,0.94,0.29
0.07,0.94,0.29
0.07,0.94,0.29
0.07,0.94,0.29
0.08,0.94,0.29
0.08,0.94,0.29
0.08,0.94,0.29
0.08,0.94,0.29
0.08,0.94,0.29
0.08,0.94,0.29
0.07,0.94,0.29
0.07,0.94,0.29
0.07,0.94,0.29
0.07,0.94,0.29
0.07,0.94,0.29
0.07,0.94,0.29
0.07,0.94,0.29
0.07,0.94,0.29
0.07,0.94,0.29
0.07,0.93,0.29
0.07,0.94,0.29
0.07,0.94,0.29
0.07,0.94,0.29
0.08,0.94,0.29
0.07,0.94,0.29
0.08,0.93,0.29
0.08,0.93,0.29
0.08,0.94,0.29
0.07,0.93,0.29
0.07,0.93,0.29
0.07,0.94,0.29
0.07,0.94,0.29
0.07,0.93,0.29
0.07,0.94,0.29
0.07,0.94,0.29
0.07,0.94,0.29
0.08,0.93,0.29
0.08,0.93,0.3
0.08,0.93,0.31
0.07,0.93,0.31
0.08,0.93,0.31
0.08,0.93,0.3
0.07,0.93,0.3
0.07,0.94,0.3
0.07,0.94,0.29
0.07,0.93,0.29
0.07,0.93,0.29
0.07,0.93,0.29
0.06,0.94,0.29
0.07,0.94,0.29
0.07,0.93,0.29
0.07,0.94,0.29
0.07,0.94,0.29
0.07,0.94,0.3
0.11,0.91,-0.01
0.38,0.89,-0.12
0.46,0.97,-0.14
0.39,0.95,-0.13
0.38,0.92,-0.13
0.42,0.93,-0.14
0.45,0.94,-0.15
0.41,0.92,-0.13
0.35,0.92,-0.11
0.33,0.93,-0.08
0.33,0.92,-0.05
0.32,0.91,-0.04
0.31,0.91,-0.02
0.31,0.91,0
0.32,0.92,0.01
0.34,0.92,0.01
0.37,0.92,0.01
0.39,0.92,0
0.39,0.92,0.01
0.38,0.9,0.02
0.37,0.9,0.03
0.36,0.91,0.04
0.36,0.91,0.05
0.36,0.9,0.06
0.37,0.9,0.06
0.39,0.9,0.07
0.39,0.89,0.07
0.38,0.89,0.06
0.39,0.89,0.06
0.4,0.88,0.06
0.41,0.88,0.06
0.43,0.89,0.05
0.44,0.89,0.04
0.42,0.88,0.08
0.4,0.86,0.12
0.41,0.85,0.13
0.42,0.84,0.14
0.43,0.84,0.14
0.45,0.83,0.13
0.48,0.83,0.11
0.5,0.82,0.1
0.52,0.82,0.1
0.54,0.82,0.1
0.55,0.82,0.12
0.54,0.82,0.19
0.51,0.82,0.22
0.51,0.81,0.25
0.51,0.81,0.26
0.52,0.82,0.24
0.5,0.83,0.24
0.48,0.83,0.23
0.48,0.83,0.23
0.48,0.83,0.23
0.47,0.83,0.24
0.45,0.83,0.27
0.43,0.83,0.3
0.43,0.84,0.3
0.45,0.85,0.29
0.48,0.85,0.27
0.49,0.84,0.26
0.51,0.82,0.28
0.52,0.82,0.32
0.49,0.82,0.35
0.44,0.83,0.36
0.4,0.82,0.36
0.38,0.81,0.36
0.38,0.81,0.37
0.41,0.81,0.38
0.43,0.82,0.39
0.43,0.82,0.41
0.41,0.83,0.5
0.29,0.82,0.53
0.24,0.82,0.53
0.2,0.82,0.53
0.16,0.82,0.54
0.13,0.81,0.57
0.1,0.79,0.59
0.11,0.79,0.6
0.16,0.79,0.61
0.23,0.8,0.59
0.3,0.82,0.57
0.35,0.83,0.55
0.36,0.82,0.52
0.36,0.82,0.5
0.35,0.81,0.5
0.35,0.82,0.5
0.35,0.83,0.51
0.32,0.82,0.52
0.28,0.81,0.53
0.25,0.79,0.53
0.24,0.78,0.53
0.22,0.78,0.5
0.22,0.78,0.5
0.2,0.77,0.54
0.19,0.77,0.57
0.18,0.77,0.58
0.19,0.77,0.58
0.21,0.78,0.57
0.19,0.78,0.55
0.18,0.78,0.55
0.17,0.77,0.55
0.17,0.78,0.55
0.19,0.79,0.55
0.21,0.8,0.54
0.23,0.8,0.53
0.22,0.8,0.53
0.21,0.8,0.54
0.19,0.8,0.55
0.19,0.8,0.57
0.18,0.79,0.57
0.19,0.79,0.57
0.19,0.78,0.58
0.18,0.78,0.58
0.18,0.77,0.58
0.18,0.76,0.58
0.19,0.77,0.6
0.2,0.77,0.6
0.2,0.77,0.59
0.19,0.77,0.59
0.19,0.76,0.59
0.19,0.76,0.58
0.19,0.77,0.58
0.19,0.77,0.59
0.2,0.77,0.59
0.2,0.77,0.6
0.2,0.77,0.59
0.2,0.77,0.59
0.19,0.77,0.59
0.19,0.77,0.59
0.19,0.77,0.58
0.19,0.77,0.58
0.2,0.77,0.59
0.21,0.77,0.59
0.22,0.77,0.6
0.22,0.78,0.6
0.22,0.78,0.6
0.22,0.77,0.6
0.21,0.77,0.6
0.21,0.77,0.59
0.2,0.77,0.58
0.2,0.77,0.57
0.2,0.77,0.56
0.21,0.77,0.56
0.22,0.77,0.56
0.23,0.78,0.57
0.22,0.78,0.57
0.22,0.78,0.57
0.21,0.78,0.58
0.21,0.78,0.57
0.2,0.77,0.58
0.19,0.77,0.58
0.19,0.78,0.57
0.19,0.78,0.57
0.19,0.78,0.58
0.2,0.78,0.58
0.2,0.78,0.58
0.2,0.78,0.57
0.2,0.78,0.57
0.2,0.78,0.58
0.2,0.78,0.57
0.2,0.78,0.57
0.2,0.78,0.57
0.2,0.78,0.57
0.2,0.78,0.57
0.2,0.78,0.57
0.21,0.78,0.57
0.21,0.78,0.57
0.21,0.78,0.57
0.21,0.78,0.57
0.21,0.78,0.57
0.2,0.77,0.58
0.2,0.78,0.58
0.19,0.78,0.58
0.18,0.78,0.57
0.18,0.78,0.57
0.19,0.78,0.57
0.19,0.78,0.57
0.19,0.78,0.57
0.19,0.78,0.57
0.19,0.78,0.57
0.19,0.78,0.56
0.19,0.79,0.56
0.2,0.78,0.56
0.2,0.79,0.56
0.2,0.79,0.57
0.2,0.79,0.57
0.19,0.79,0.57
0.19,0.78,0.57
0.19,0.78,0.56
0.19,0.78,0.56
0.19,0.78,0.56
0.2,0.79,0.56
0.19,0.79,0.57
0.19,0.78,0.57
0.19,0.78,0.57
0.2,0.78,0.57
0.2,0.78,0.57
0.2,0.78,0.57
0.19,0.78,0.57
0.19,0.78,0.57
0.2,0.78,0.57
0.19,0.78,0.57
0.19,0.78,0.57
0.19,0.78,0.57
0.2,0.78,0.57
0.19,0.78,0.57
0.2,0.78,0.57
0.2,0.78,0.57
0.2,0.79,0.57
0.2,0.78,0.57
0.19,0.78,0.57
0.2,0.78,0.57
0.2,0.78,0.57
0.2,0.78,0.57
0.2,0.78,0.57
0.2,0.78,0.57
0.2,0.78,0.57
0.2,0.78,0.57
0.2,0.78,0.57
0.19,0.78,0.57
0.19,0.78,0.57
0.2,0.78,0.57
0.2,0.78,0.57
0.2,0.78,0.57
0.2,0.78,0.57
0.2,0.78,0.57
0.2,0.78,0.57
0.2,0.78,0.57
0.19,0.79,0.57
0.19,0.79,0.57
0.2,0.78,0.56
0.2,0.78,0.57
0.2,0.78,0.57
0.2,0.79,0.57
0.2,0.78,0.57
0.2,0.78,0.57
0.2,0.78,0.57
0.2,0.78,0.57
0.2,0.78,0.57
0.2,0.78,0.57
0.2,0.78,0.57
0.2,0.78,0.57
0.2,0.78,0.57
0.2,0.78,0.57
0.19,0.79,0.56
0.2,0.78,0.57
0.19,0.79,0.57
0.2,0.79,0.57
0.19,0.78,0.57
0.19,0.78,0.58
0.19,0.78,0.58
0.19,0.78,0.57
0.19,0.78,0.57
0.19,0.78,0.56
0.19,0.78,0.57
0.19,0.78,0.57
0.19,0.78,0.57
0.19,0.78,0.57
0.19,0.78,0.57
0.19,0.78,0.57
0.19,0.78,0.57
0.19,0.78,0.58
0.19,0.78,0.57
0.19,0.78,0.57
0.19,0.78,0.57
0.18,0.78,0.57
0.18,0.78,0.57
0.19,0.78,0.57
0.19,0.78,0.57
0.18,0.78,0.58
0.18,0.78,0.57
0.18,0.78,0.57
0.18,0.78,0.57
0.18,0.78,0.57
0.18,0.78,0.57
0.18,0.78,0.57
0.18,0.78,0.57
0.18,0.78,0.57
0.19,0.78,0.57
0.19,0.78,0.57
0.19,0.78,0.57
0.19,0.78,0.58
0.19,0.78,0.58
0.18,0.78,0.58
0.18,0.78,0.58
0.18,0.78,0.58
0.19,0.78,0.58
0.19,0.78,0.58
0.18,0.78,0.58
0.18,0.78,0.58
0.18,0.78,0.58
0.18,0.78,0.58
0.18,0.78,0.58
0.17,0.78,0.58
0.17,0.78,0.57
0.17,0.78,0.57
0.17,0.78,0.57
0.18,0.78,0.57
0.19,0.78,0.57
0.18,0.78,0.58
0.18,0.78,0.58
0.17,0.78,0.58
0.17,0.78,0.58
0.17,0.78,0.58
0.17,0.78,0.58
0.17,0.78,0.58
0.17,0.78,0.58
0.17,0.78,0.58
0.17,0.78,0.58
0.18,0.78,0.58
0.18,0.78,0.58
0.18,0.78,0.58
0.17,0.78,0.57
0.17,0.78,0.57
0.17,0.78,0.57
0.17,0.78,0.57
0.17,0.78,0.57
0.17,0.78,0.58
0.17,0.78,0.58
0.16,0.78,0.58
0.17,0.78,0.58
0.17,0.78,0.58
0.17,0.78,0.58
0.17,0.78,0.58
0.17,0.78,0.58
0.17,0.78,0.58
0.17,0.78,0.58
0.17,0.78,0.58
0.17,0.78,0.58
0.17,0.78,0.57
0.17,0.78,0.57
0.17,0.78,0.57
0.17,0.78,0.57
0.17,0.78,0.58
0.17,0.78,0.58
0.17,0.78,0.58
0.17,0.78,0.58
0.17,0.78,0.58
0.17,0.78,0.58
0.17,0.78,0.58
0.17,0.78,0.58
0.17,0.78,0.58
0.17,0.78,0.58
0.17,0.78,0.58
0.17,0.78,0.58
0.17,0.78,0.58
0.17,0.78,0.58
0.17,0.78,0.58
0.17,0.78,0.58
0.17,0.78,0.58
0.17,0.78,0.58
0.17,0.78,0.58
0.18,0.78,0.58
0.17,0.78,0.58
0.17,0.78,0.58
0.16,0.78,0.58
0.17,0.78,0.58
0.17,0.78,0.58
0.17,0.78,0.58
0.17,0.78,0.58
0.17,0.78,0.58
0.17,0.78,0.58
0.17,0.79,0.58
0.17,0.78,0.58
0.17,0.78,0.58
0.17,0.78,0.58
0.17,0.78,0.57
0.17,0.78,0.58
0.17,0.78,0.58
0.17,0.78,0.58
0.17,0.78,0.58
0.17,0.78,0.58
0.17,0.78,0.58
0.17,0.78,0.58
0.17,0.78,0.58
0.18,0.78,0.58
0.18,0.78,0.58
0.18,0.78,0.58
0.18,0.78,0.58
0.18,0.78,0.59
0.18,0.78,0.59
0.18,0.78,0.59
0.18,0.77,0.59
0.18,0.78,0.59
0.18,0.78,0.59
0.18,0.78,0.59
0.17,0.78,0.59
0.17,0.78,0.59
0.17,0.78,0.58
0.17,0.78,0.58
0.17,0.78,0.58
0.17,0.78,0.58
0.16,0.78,0.58
0.16,0.78,0.58
0.16,0.78,0.57
0.16,0.78,0.57
0.16,0.78,0.57
0.16,0.78,0.57
0.17,0.78,0.57
0.18,0.78,0.58
0.18,0.77,0.58
0.18,0.78,0.58
0.18,0.78,0.58
0.18,0.78,0.58
0.17,0.77,0.59
0.17,0.77,0.59
0.17,0.78,0.59
0.17,0.78,0.59
0.17,0.78,0.59
0.17,0.78,0.59
0.17,0.78,0.59
0.17,0.78,0.59
0.17,0.78,0.59
0.17,0.78,0.59
0.17,0.78,0.58
0.17,0.77,0.58
0.17,0.77,0.58
0.17,0.77,0.58
0.17,0.77,0.59
0.17,0.77,0.59
0.17,0.78,0.58
0.17,0.78,0.58
0.17,0.78,0.58
0.17,0.78,0.58
0.17,0.78,0.58
0.18,0.78,0.58
0.18,0.78,0.58
0.18,0.78,0.58
0.18,0.77,0.58
0.19,0.77,0.59
0.19,0.77,0.59
0.19,0.77,0.59
0.19,0.78,0.59
0.19,0.78,0.59
0.18,0.78,0.59
0.18,0.77,0.59
0.18,0.77,0.59
0.18,0.77,0.59
0.18,0.77,0.59
0.18,0.77,0.59
0.18,0.77,0.59
0.18,0.77,0.59
0.17,0.77,0.59
0.17,0.77,0.59
0.17,0.77,0.59
0.17,0.77,0.59
0.18,0.77,0.59
0.18,0.77,0.59
0.18,0.77,0.59
0.18,0.77,0.59
0.18,0.77,0.59
0.18,0.77,0.59
0.17,0.77,0.59
0.18,0.77,0.59
0.19,0.77,0.59
0.19,0.77,0.59
0.19,0.77,0.59
0.19,0.77,0.58
0.18,0.77,0.58
0.18,0.77,0.58
0.19,0.77,0.59
0.19,0.77,0.59
0.19,0.77,0.59
0.18,0.77,0.59
0.18,0.77,0.59
0.18,0.77,0.59
0.18,0.77,0.59
0.17,0.77,0.59
0.17,0.77,0.59
0.18,0.77,0.59
0.18,0.77,0.59
0.18,0.77,0.6
0.18,0.77,0.6
0.17,0.77,0.6
0.17,0.77,0.6
0.17,0.77,0.6
0.18,0.77,0.59
0.18,0.77,0.59
0.18,0.77,0.6
0.18,0.77,0.59
0.19,0.77,0.59
0.18,0.76,0.59
0.18,0.77,0.59
0.18,0.77,0.59
0.19,0.77,0.59
0.18,0.77,0.6
0.18,0.77,0.59
0.18,0.77,0.59
0.19,0.77,0.59
0.19,0.77,0.59
0.19,0.77,0.59
0.19,0.77,0.59
0.19,0.77,0.59
0.18,0.77,0.59
0.18,0.77,0.59
0.19,0.77,0.59
0.19,0.77,0.59
0.19,0.77,0.59
0.19,0.77,0.59
0.19,0.77,0.59
0.19,0.77,0.59
0.19,0.77,0.59
0.19,0.77,0.59
0.19,0.77,0.59
0.19,0.77,0.59
0.19,0.77,0.59
0.19,0.77,0.6
0.18,0.77,0.6
0.18,0.77,0.6
0.18,0.77,0.6
0.18,0.77,0.6
0.18,0.77,0.6
0.18,0.77,0.6
0.19,0.77,0.6
0.18,0.77,0.6
0.18,0.77,0.6
0.18,0.77,0.6
0.18,0.77,0.59
0.18,0.77,0.59
0.18,0.77,0.59
0.18,0.77,0.59
0.18,0.77,0.58
0.18,0.77,0.59
0.18,0.77,0.59
0.18,0.77,0.59
0.18,0.77,0.59
0.18,0.77,0.59
0.19,0.77,0.59
0.19,0.77,0.59
0.19,0.77,0.59
0.19,0.77,0.59
0.19,0.77,0.6
0.19,0.77,0.6
0.19,0.77,0.6
0.19,0.77,0.6
0.19,0.77,0.59
0.19,0.77,0.59
0.19,0.77,0.59
0.18,0.77,0.59
0.18,0.77,0.59
0.18,0.77,0.59
0.19,0.77,0.59
0.19,0.77,0.59
0.19,0.77,0.59
0.19,0.77,0.59
0.19,0.77,0.59
0.19,0.77,0.59
0.18,0.77,0.59
0.19,0.78,0.59
0.19,0.78,0.58
0.19,0.77,0.58
0.19,0.77,0.58
0.19,0.77,0.58
0.19,0.78,0.58
0.19,0.78,0.58
0.2,0.78,0.58
0.2,0.77,0.58
0.21,0.78,0.58
0.21,0.78,0.58
0.21,0.78,0.58
0.21,0.78,0.59
0.21,0.78,0.59
0.2,0.78,0.58
0.2,0.77,0.59
0.19,0.77,0.58
0.19,0.77,0.58
0.19,0.77,0.57
0.2,0.75,0.57
0.21,0.74,0.58
0.21,0.75,0.59
0.2,0.75,0.59
0.19,0.75,0.58
0.19,0.75,0.58
0.2,0.74,0.57
0.2,0.73,0.57
0.21,0.74,0.57
0.21,0.74,0.58
0.22,0.74,0.58
0.23,0.74,0.58
0.24,0.74,0.58
0.26,0.73,0.57
0.27,0.73,0.57
0.28,0.73,0.57
0.29,0.73,0.56
0.3,0.72,0.57
0.31,0.71,0.56
0.32,0.7,0.56
0.34,0.69,0.55
0.33,0.69,0.55
0.32,0.65,0.54
0.28,0.57,0.52
0.26,0.45,0.49
0.27,0.34,0.46
0.29,0.25,0.4
0.48,0.33,0.39
0.53,0.47,0.39
0.55,0.58,0.41
0.55,0.63,0.44
0.51,0.64,0.47
0.46,0.65,0.49
0.42,0.67,0.48
0.36,0.69,0.48
0.31,0.69,0.48
0.26,0.69,0.48
0.23,0.69,0.48
0.24,0.67,0.48
0.28,0.65,0.5
0.32,0.64,0.52
0.36,0.63,0.51
0.41,0.62,0.48
0.48,0.6,0.45
0.52,0.59,0.43
0.52,0.59,0.42
0.51,0.57,0.43
0.48,0.56,0.46
0.45,0.55,0.48
0.44,0.53,0.51
0.45,0.51,0.52
0.47,0.48,0.54
0.5,0.45,0.6
0.61,0.44,0.6
0.7,0.43,0.58
0.76,0.42,0.56
0.77,0.43,0.57
0.75,0.45,0.59
0.73,0.45,0.61
0.73,0.44,0.62
0.75,0.42,0.63
0.8,0.42,0.61
0.85,0.41,0.59
0.9,0.39,0.59
0.93,0.38,0.59
1.01,0.37,0.58
1.14,0.34,0.59
1.17,0.32,0.54
1.32,0.36,0.39
1.42,0.34,0.38
1.22,0.26,0.46
1.05,0.23,0.49
1.01,0.23,0.52
1.01,0.23,0.55
0.99,0.19,0.56
1.02,0.13,0.57
1.09,0.08,0.56
1.13,0.05,0.53
1.14,0.05,0.47
1.11,0.07,0.46
1,0.06,0.48
0.89,0.02,0.51
0.81,-0.02,0.53
0.79,-0.05,0.56
0.8,-0.08,0.6
0.8,-0.13,0.62
0.8,-0.19,0.63
0.78,-0.24,0.64
0.77,-0.28,0.63
0.77,-0.31,0.61
0.78,-0.33,0.6
0.81,-0.33,0.58
0.8,-0.34,0.58
0.75,-0.35,0.59
0.69,-0.36,0.59
0.64,-0.36,0.59
0.58,-0.33,0.58
0.52,-0.33,0.59
0.49,-0.35,0.62
0.49,-0.36,0.63
0.51,-0.37,0.63
0.52,-0.39,0.63
0.53,-0.39,0.66
0.51,-0.43,0.66
0.51,-0.5,0.63
0.73,-0.57,0.62
0.75,-0.59,0.65
0.71,-0.55,0.78
0.71,-0.59,0.78
0.73,-0.65,0.72
0.68,-0.6,0.72
0.66,-0.54,0.64
0.71,-0.6,0.53
0.76,-0.64,0.53
0.75,-0.67,0.53
0.77,-0.67,0.52
0.82,-0.67,0.49
0.84,-0.69,0.49
0.85,-0.72,0.53
0.82,-0.75,0.55
0.84,-0.75,0.51
0.91,-0.73,0.48
0.93,-0.7,0.45
0.9,-0.66,0.42
0.87,-0.67,0.42
0.87,-0.69,0.42
0.88,-0.68,0.43
0.86,-0.67,0.45
0.85,-0.65,0.47
0.84,-0.62,0.49
0.84,-0.64,0.57
0.95,-0.7,0.6
1.03,-0.73,0.61
1.03,-0.75,0.66
0.94,-0.75,0.72
0.84,-0.75,0.73
0.83,-0.73,0.73
0.84,-0.71,0.74
0.82,-0.69,0.74
0.8,-0.66,0.74
0.75,-0.64,0.75
0.54,-0.58,0.73
0.31,-0.34,0.73
0.49,-0.31,0.76
0.74,-0.44,0.59
0.71,-0.34,0.53
0.68,-0.26,0.65
0.67,-0.25,0.63
0.67,-0.27,0.59
0.69,-0.27,0.57
0.67,-0.26,0.56
0.62,-0.27,0.55
0.59,-0.29,0.54
0.57,-0.29,0.54
0.56,-0.3,0.54
0.55,-0.31,0.53
0.53,-0.32,0.51
0.46,-0.34,0.46
0.41,-0.34,0.44
0.37,-0.34,0.42
0.36,-0.32,0.42
0.33,-0.31,0.42
0.3,-0.31,0.42
0.29,-0.32,0.42
0.29,-0.33,0.42
0.29,-0.34,0.41
0.29,-0.35,0.39
0.3,-0.38,0.37
0.34,-0.42,0.37
0.41,-0.45,0.35
0.44,-0.48,0.34
0.45,-0.52,0.35
0.45,-0.56,0.38
0.44,-0.62,0.38
0.47,-0.66,0.4
0.51,-0.69,0.43
0.54,-0.71,0.48
0.55,-0.68,0.53
0.58,-0.64,0.58
0.71,-0.62,0.68
0.86,-0.64,0.71
1.06,-0.64,0.71
1.37,-0.57,0.72
1.55,-0.96,0.62
1.66,-1.04,0.66
1.64,-0.93,0.53
1.46,-0.85,0.41
1.22,-0.82,0.31
1.04,-0.82,0.27
0.9,-0.81,0.25
0.8,-0.8,0.27
0.71,-0.8,0.31
0.63,-0.81,0.35
0.55,-0.82,0.42
0.38,-0.73,0.5
0.37,-0.76,0.57
0.57,-0.87,0.62
0.53,-0.84,0.56
0.38,-0.79,0.54
0.37,-0.73,0.6
0.39,-0.73,0.61
0.4,-0.75,0.59
0.4,-0.71,0.56
0.49,-0.68,0.56
0.68,-0.59,0.56
0.67,-0.56,0.41
0.54,-0.68,0.36
0.48,-0.81,0.44
0.46,-0.88,0.4
0.51,-0.59,0.35
0.48,-0.47,0.36
0.48,-0.46,0.37
0.54,-0.5,0.37
0.6,-0.53,0.36
0.64,-0.53,0.36
0.68,-0.49,0.37
0.73,-0.46,0.36
0.78,-0.48,0.36
0.81,-0.52,0.35
0.83,-0.55,0.31
0.85,-0.56,0.29
0.88,-0.54,0.31
0.89,-0.54,0.31
0.89,-0.55,0.29
0.88,-0.57,0.28
0.85,-0.58,0.27
0.84,-0.6,0.28
0.83,-0.61,0.28
0.82,-0.62,0.29
0.79,-0.63,0.3
0.77,-0.64,0.32
0.75,-0.66,0.33
0.74,-0.67,0.34
0.73,-0.68,0.35
0.71,-0.69,0.37
0.7,-0.7,0.4
0.68,-0.69,0.4
0.67,-0.68,0.4
0.66,-0.68,0.4
0.66,-0.68,0.4
0.66,-0.68,0.4
0.66,-0.67,0.39
0.66,-0.66,0.39
0.66,-0.65,0.39
0.67,-0.64,0.39
0.67,-0.64,0.38
0.67,-0.64,0.38
0.67,-0.63,0.38
0.68,-0.63,0.38
0.68,-0.63,0.37
0.69,-0.62,0.37
0.7,-0.62,0.36
0.7,-0.62,0.36
0.7,-0.62,0.36
0.71,-0.62,0.35
0.71,-0.62,0.35
0.72,-0.62,0.35
0.72,-0.62,0.36
0.72,-0.63,0.36
0.72,-0.63,0.36
0.71,-0.63,0.37
0.71,-0.63,0.37
0.71,-0.64,0.37
0.7,-0.63,0.37
0.7,-0.63,0.37
0.7,-0.64,0.37
0.7,-0.64,0.37
0.7,-0.64,0.37
0.7,-0.64,0.37
0.71,-0.64,0.37
0.71,-0.64,0.37
0.71,-0.64,0.37
0.71,-0.64,0.37
0.72,-0.64,0.36
0.72,-0.64,0.36
0.72,-0.64,0.36
0.72,-0.63,0.36
0.71,-0.63,0.36
0.71,-0.63,0.36
0.71,-0.63,0.36
0.71,-0.63,0.36
0.7,-0.63,0.36
0.7,-0.63,0.37
0.7,-0.63,0.37
0.7,-0.63,0.37
0.7,-0.63,0.37
0.7,-0.63,0.37
0.69,-0.64,0.37
0.7,-0.64,0.38
0.7,-0.64,0.38
0.7,-0.64,0.38
0.7,-0.64,0.38
0.7,-0.64,0.37
0.7,-0.64,0.38
0.7,-0.64,0.37
0.7,-0.64,0.37
0.71,-0.64,0.37
0.71,-0.64,0.37
0.71,-0.64,0.36
0.7,-0.64,0.36
0.71,-0.63,0.36
0.71,-0.63,0.37
0.71,-0.63,0.37
0.71,-0.63,0.37
0.71,-0.63,0.37
0.7,-0.63,0.37
0.71,-0.63,0.37
0.71,-0.63,0.37
0.7,-0.63,0.37
0.7,-0.63,0.37
0.71,-0.63,0.37
0.71,-0.63,0.37
0.71,-0.63,0.37
0.71,-0.63,0.37
0.71,-0.63,0.37
0.71,-0.63,0.37
0.71,-0.63,0.37
0.7,-0.63,0.37
0.71,-0.63,0.37
0.71,-0.63,0.36
0.71,-0.63,0.37
0.7,-0.63,0.37
0.7,-0.63,0.37
0.7,-0.63,0.37
0.7,-0.64,0.37
0.7,-0.64,0.37
0.7,-0.64,0.37
0.7,-0.64,0.37
0.7,-0.64,0.37
0.7,-0.64,0.37
0.7,-0.64,0.37
0.7,-0.64,0.37
0.7,-0.64,0.37
0.7,-0.64,0.37
0.7,-0.64,0.37
0.7,-0.63,0.37
0.7,-0.63,0.37
0.7,-0.63,0.37
0.7,-0.63,0.37
0.7,-0.63,0.37
0.7,-0.64,0.37
0.7,-0.64,0.37
0.7,-0.64,0.37
0.7,-0.64,0.37
0.7,-0.64,0.37
0.7,-0.64,0.37
0.7,-0.64,0.37
0.7,-0.64,0.37
0.7,-0.64,0.37
0.7,-0.64,0.37
0.7,-0.64,0.37
0.7,-0.64,0.37
0.7,-0.64,0.37
0.7,-0.64,0.37
0.7,-0.64,0.37
0.7,-0.64,0.37
0.7,-0.64,0.37
0.7,-0.64,0.37
0.7,-0.64,0.38
0.7,-0.64,0.38
0.7,-0.64,0.37
0.7,-0.64,0.38
0.7,-0.64,0.37
0.7,-0.64,0.37
0.7,-0.64,0.37
0.7,-0.64,0.37
0.7,-0.64,0.37
0.7,-0.64,0.37
0.7,-0.64,0.37
0.7,-0.64,0.37
0.7,-0.64,0.37
0.7,-0.64,0.37
0.7,-0.64,0.37
0.7,-0.64,0.37
0.7,-0.64,0.37
0.7,-0.64,0.37
0.7,-0.64,0.37
0.7,-0.64,0.37
0.7,-0.64,0.37
0.7,-0.64,0.37
0.7,-0.64,0.37
0.7,-0.65,0.38
0.69,-0.64,0.37
0.7,-0.64,0.37
0.7,-0.64,0.37
0.7,-0.64,0.37
0.7,-0.63,0.37
0.7,-0.63,0.37
0.7,-0.63,0.37
0.7,-0.64,0.37
0.7,-0.64,0.37
0.7,-0.64,0.37
0.7,-0.64,0.37
0.7,-0.64,0.37
0.7,-0.64,0.37
0.7,-0.64,0.37
0.7,-0.64,0.37
0.7,-0.64,0.37
0.7,-0.63,0.37
0.69,-0.63,0.37
0.69,-0.64,0.37
0.69,-0.64,0.37
0.7,-0.64,0.37
0.7,-0.64,0.37
0.7,-0.64,0.38
0.7,-0.65,0.38
0.7,-0.65,0.38
0.7,-0.65,0.38
0.7,-0.64,0.38
0.7,-0.64,0.37
0.69,-0.64,0.37
0.7,-0.64,0.37
0.7,-0.64,0.37
0.7,-0.64,0.37
0.7,-0.64,0.37
0.7,-0.64,0.37
0.7,-0.64,0.36
0.7,-0.64,0.36
0.7,-0.64,0.36
0.7,-0.63,0.37
0.7,-0.63,0.37
0.7,-0.64,0.37
0.69,-0.64,0.37
0.69,-0.63,0.37
0.69,-0.63,0.37
0.69,-0.64,0.37
0.7,-0.64,0.37
0.7,-0.64,0.38
0.7,-0.64,0.38
0.7,-0.64,0.38
0.7,-0.64,0.38
0.71,-0.64,0.38
0.71,-0.64,0.37
0.71,-0.64,0.37
0.71,-0.64,0.37
0.7,-0.64,0.37
0.7,-0.64,0.37
0.7,-0.64,0.37
0.7,-0.64,0.37
0.7,-0.63,0.37
0.69,-0.63,0.37
0.69,-0.64,0.37
0.69,-0.64,0.37
0.69,-0.63,0.37
0.7,-0.64,0.37
0.7,-0.64,0.37
0.7,-0.64,0.37
0.71,-0.64,0.37
0.71,-0.64,0.38
0.7,-0.64,0.37
0.7,-0.64,0.37
0.7,-0.64,0.37
0.7,-0.64,0.37
0.7,-0.64,0.37
0.7,-0.64,0.37
0.7,-0.64,0.37
0.7,-0.64,0.38
0.7,-0.64,0.37
0.7,-0.63,0.37
0.7,-0.63,0.37
0.7,-0.63,0.37
0.7,-0.63,0.37
0.7,-0.63,0.37
0.7,-0.63,0.37
0.7,-0.64,0.37
0.7,-0.64,0.37
0.71,-0.64,0.37
0.71,-0.64,0.38
0.7,-0.65,0.38
0.7,-0.65,0.38
0.69,-0.64,0.38
0.69,-0.65,0.37
0.69,-0.64,0.37
0.69,-0.64,0.38
0.69,-0.64,0.38
0.69,-0.64,0.37
0.7,-0.64,0.37
0.7,-0.64,0.37
0.71,-0.64,0.36
0.71,-0.64,0.37
0.71,-0.64,0.37
0.71,-0.64,0.37
0.71,-0.64,0.37
0.71,-0.64,0.37
0.7,-0.64,0.37
0.7,-0.64,0.37
0.7,-0.64,0.37
0.7,-0.64,0.37
0.7,-0.64,0.37
0.7,-0.65,0.37
0.7,-0.65,0.37
0.7,-0.64,0.37
0.71,-0.64,0.37
0.72,-0.65,0.38
0.74,-0.66,0.38
0.76,-0.66,0.39
0.77,-0.67,0.4
0.79,-0.67,0.4
0.79,-0.67,0.4
0.8,-0.67,0.4
0.82,-0.68,0.4
0.83,-0.69,0.41
0.86,-0.7,0.42
0.89,-0.71,0.43
0.92,-0.73,0.46
0.92,-0.74,0.48
0.89,-0.74,0.48
0.88,-0.74,0.47
0.89,-0.74,0.47
0.91,-0.72,0.47
0.93,-0.71,0.47
0.96,-0.69,0.48
0.98,-0.67,0.48
0.97,-0.66,0.48
0.96,-0.63,0.46
1,-0.59,0.54
0.95,-0.63,0.54
0.88,-0.54,0.48
0.92,-0.4,0.55
0.9,-0.45,0.53
0.84,-0.49,0.5
0.81,-0.45,0.51
0.8,-0.42,0.51
0.79,-0.32,0.55
0.7,-0.29,0.58
0.69,-0.29,0.61
0.7,-0.27,0.61
0.73,-0.24,0.62
0.76,-0.21,0.63
0.74,-0.18,0.64
0.74,-0.17,0.66
0.76,-0.15,0.69
0.75,-0.14,0.71
0.72,-0.13,0.7
0.71,-0.1,0.69
0.73,-0.07,0.67
0.75,-0.05,0.66
0.76,-0.03,0.66
0.78,-0.02,0.68
0.81,-0.01,0.71
0.85,0,0.74
0.88,0.02,0.74
0.94,0.03,0.75
0.97,0.05,0.74
0.93,0.06,0.72
0.87,0.09,0.7
0.82,0.12,0.67
0.83,0.14,0.64
0.86,0.17,0.61
0.87,0.23,0.63
0.95,0.26,0.63
0.95,0.27,0.64
0.88,0.28,0.67
0.8,0.31,0.69
0.79,0.35,0.71
0.78,0.37,0.71
0.71,0.38,0.7
0.67,0.39,0.69
0.68,0.41,0.66
0.72,0.43,0.61
0.76,0.43,0.59
0.73,0.47,0.6
0.7,0.51,0.57
0.7,0.5,0.55
0.7,0.48,0.52
0.69,0.48,0.49
0.72,0.5,0.45
0.74,0.52,0.44
0.72,0.54,0.43
0.69,0.54,0.43
0.69,0.53,0.43
0.69,0.53,0.44
0.67,0.54,0.46
0.64,0.55,0.46
0.62,0.55,0.43
0.64,0.55,0.39
0.69,0.54,0.38
0.68,0.53,0.39
0.66,0.53,0.4
0.61,0.53,0.41
0.57,0.51,0.41
0.53,0.51,0.41
0.5,0.52,0.42
0.49,0.52,0.45
0.51,0.5,0.49
0.53,0.47,0.52
0.52,0.45,0.51
0.47,0.46,0.52
0.42,0.46,0.52
0.42,0.46,0.48
0.43,0.45,0.43
0.44,0.46,0.37
0.43,0.48,0.31
0.41,0.52,0.26
0.38,0.56,0.24
0.35,0.59,0.25
0.29,0.6,0.28
0.24,0.62,0.31
0.2,0.64,0.32
0.2,0.67,0.32
0.23,0.69,0.3
0.26,0.71,0.34
0.29,0.74,0.35
0.28,0.75,0.34
0.26,0.77,0.34
0.22,0.78,0.34
0.18,0.8,0.35
0.16,0.81,0.38
0.15,0.82,0.39
0.17,0.83,0.4
0.18,0.83,0.4
0.17,0.82,0.39
0.14,0.81,0.4
0.12,0.81,0.4
0.1,0.83,0.39
0.09,0.86,0.4
0.12,0.93,0.42
0.16,1.04,0.44
0.19,1.1,0.43
0.2,1.05,0.41
0.19,0.94,0.4
0.18,0.83,0.4
0.2,0.8,0.38
0.21,0.83,0.36
0.21,0.88,0.35
0.19,0.9,0.35
0.15,0.91,0.35
0.13,0.92,0.32
0.16,0.93,0.28
0.17,0.94,0.25
0.16,0.94,0.24
0.15,0.94,0.24
0.14,0.96,0.24
0.13,0.96,0.23
0.11,0.94,0.22
0.09,0.93,0.21
0.08,0.94,0.22
0.08,0.95,0.22
0.09,0.96,0.22
0.1,0.97,0.22
0.13,0.98,0.21
0.15,0.97,0.2
0.17,0.96,0.19
0.17,0.96,0.19
0.16,0.96,0.18
0.15,0.96,0.18
0.14,0.96,0.18
0.14,0.96,0.19
0.14,0.96,0.2
0.15,0.95,0.21
0.15,0.95,0.21
0.15,0.95,0.21
0.15,0.95,0.21
0.16,0.95,0.21
0.17,0.94,0.2
0.18,0.95,0.2
0.19,0.96,0.2
0.19,0.95,0.21
0.18,0.95,0.21
0.17,0.95,0.21
0.16,0.95,0.2
0.16,0.95,0.2
0.14,0.95,0.2
0.13,0.96,0.21
0.13,0.96,0.2
0.13,0.96,0.19
0.13,0.96,0.18
0.13,0.96,0.17
0.13,0.96,0.17
0.12,0.96,0.17
0.12,0.96,0.17
0.11,0.96,0.17
0.11,0.96,0.17
0.11,0.96,0.18
0.1,0.95,0.18
0.1,0.96,0.19
0.1,0.96,0.2
0.11,0.95,0.2
0.12,0.95,0.21
0.13,0.95,0.21
0.14,0.95,0.21
0.15,0.95,0.21
0.14,0.95,0.21
0.14,0.95,0.21
0.14,0.95,0.21
0.13,0.95,0.21
0.12,0.95,0.22
0.12,0.95,0.22
0.13,0.95,0.22
0.14,0.95,0.22
0.14,0.96,0.22
0.13,0.95,0.22
0.13,0.95,0.22
0.12,0.95,0.22
0.12,0.95,0.21
0.11,0.95,0.21
0.1,0.95,0.21
0.1,0.95,0.2
0.1,0.95,0.2
0.11,0.95,0.2
0.12,0.95,0.21
0.12,0.95,0.22
0.12,0.95,0.22
0.12,0.95,0.22
0.11,0.95,0.22
0.11,0.96,0.22
0.11,0.95,0.22
0.12,0.95,0.22
0.12,0.95,0.22
0.12,0.95,0.22
0.11,0.95,0.22
0.11,0.95,0.23
0.12,0.95,0.23
0.13,0.95,0.23
0.13,0.95,0.24
0.12,0.94,0.25
0.12,0.95,0.25
0.12,0.95,0.24
0.12,0.94,0.24
0.13,0.95,0.24
0.13,0.95,0.24
0.13,0.94,0.24
0.13,0.94,0.24
0.13,0.95,0.25
0.12,0.95,0.24
0.12,0.94,0.24
0.12,0.94,0.24
0.12,0.94,0.24
0.13,0.95,0.24
0.14,0.95,0.24
0.14,0.95,0.24
0.14,0.95,0.24
0.14,0.94,0.24
0.14,0.94,0.24
0.13,0.95,0.25
0.13,0.95,0.25
0.13,0.94,0.25
0.13,0.94,0.25
0.14,0.94,0.24
0.14,0.94,0.24
0.14,0.94,0.24
0.14,0.94,0.25
0.14,0.94,0.24
0.14,0.95,0.24
0.14,0.95,0.24
0.14,0.95,0.23
0.14,0.95,0.23
0.13,0.95,0.24
0.13,0.95,0.24
0.12,0.95,0.24
0.12,0.94,0.24
0.12,0.94,0.23
0.12,0.94,0.23
0.13,0.94,0.24
0.14,0.94,0.24
0.14,0.94,0.24
0.14,0.94,0.24
0.14,0.94,0.25
0.14,0.94,0.25
0.14,0.94,0.25
0.14,0.94,0.25
0.14,0.94,0.25
0.14,0.94,0.24
0.14,0.95,0.23
0.14,0.95,0.24
0.14,0.94,0.23
0.14,0.95,0.24
0.14,0.95,0.24
0.14,0.94,0.24
0.13,0.94,0.24
0.13,0.94,0.23
0.13,0.94,0.24
0.13,0.94,0.24
0.12,0.94,0.24
0.13,0.94,0.23
0.14,0.94,0.23
0.14,0.94,0.24
0.13,0.95,0.24
0.13,0.94,0.24
0.13,0.94,0.24
0.13,0.94,0.24
0.13,0.95,0.24
0.13,0.95,0.24
0.13,0.94,0.23
0.14,0.94,0.24
0.14,0.94,0.24
0.14,0.94,0.23
0.14,0.94,0.23
0.14,0.94,0.23
0.13,0.95,0.24
0.13,0.94,0.24
0.13,0.94,0.24
0.14,0.94,0.24
0.14,0.94,0.25
0.14,0.94,0.25
0.14,0.94,0.25
0.15,0.94,0.26
0.15,0.94,0.26
0.16,0.94,0.26
0.16,0.94,0.26
0.15,0.94,0.26
0.16,0.94,0.26
0.16,0.94,0.26
0.15,0.94,0.26
0.16,0.94,0.26
0.16,0.94,0.25
0.16,0.94,0.25
0.16,0.94,0.25
0.15,0.94,0.25
0.15,0.94,0.25
0.15,0.94,0.24
0.14,0.94,0.24
0.13,0.94,0.23
0.14,0.94,0.23
0.14,0.94,0.23
0.14,0.94,0.24
0.13,0.94,0.25
0.13,0.94,0.25
0.14,0.94,0.25
0.14,0.94,0.25
0.14,0.94,0.25
0.14,0.94,0.26
0.14,0.94,0.25
0.15,0.94,0.25
0.15,0.94,0.25
0.15,0.94,0.26
0.15,0.94,0.26
0.16,0.94,0.26
0.16,0.94,0.26
0.15,0.94,0.26
0.14,0.94,0.26
0.14,0.94,0.25
0.14,0.94,0.25
0.14,0.94,0.25
0.14,0.94,0.25
0.14,0.94,0.25
0.14,0.94,0.24
0.14,0.94,0.25
0.14,0.94,0.25
0.14,0.94,0.25
0.14,0.94,0.25
0.14,0.94,0.25
0.15,0.94,0.25
0.15,0.94,0.25
0.15,0.94,0.25
0.15,0.94,0.25
0.15,0.94,0.25
0.15,0.94,0.25
0.15,0.94,0.25
0.15,0.94,0.25
0.15,0.94,0.26
0.15,0.94,0.26
0.15,0.94,0.25
0.15,0.94,0.25
0.14,0.94,0.25
0.14,0.94,0.25
0.14,0.94,0.25
0.14,0.94,0.25
0.14,0.94,0.25
0.14,0.94,0.25
0.14,0.94,0.25
0.14,0.94,0.25
0.14,0.94,0.25
0.14,0.94,0.25
0.15,0.94,0.25
0.15,0.94,0.25
0.15,0.94,0.25
0.15,0.94,0.25
0.15,0.94,0.25
0.15,0.94,0.25
0.15,0.94,0.26
0.15,0.94,0.26
0.15,0.94,0.26
0.15,0.94,0.26
0.15,0.94,0.26
0.15,0.94,0.26
0.16,0.94,0.26
0.15,0.94,0.26
0.15,0.94,0.25
0.15,0.94,0.25
0.15,0.94,0.25
0.15,0.94,0.25
0.15,0.94,0.25
0.14,0.94,0.25
0.14,0.94,0.25
0.14,0.94,0.25
0.14,0.94,0.25
0.14,0.94,0.25
0.14,0.94,0.25
0.14,0.94,0.26
0.15,0.94,0.26
0.15,0.94,0.26
0.15,0.94,0.26
0.15,0.94,0.26
0.14,0.94,0.26
0.14,0.94,0.26
0.14,0.94,0.25
0.14,0.94,0.25
0.14,0.94,0.25
0.15,0.94,0.26
0.14,0.94,0.26
0.14,0.94,0.26
0.15,0.94,0.26
0.15,0.94,0.26
0.14,0.94,0.26
0.14,0.94,0.26
0.14,0.94,0.26
0.15,0.94,0.25
0.14,0.94,0.26
0.14,0.94,0.26
0.14,0.94,0.25
0.14,0.94,0.25
0.14,0.94,0.25
0.14,0.94,0.26
0.14,0.94,0.26
0.14,0.94,0.26
0.14,0.94,0.26
0.14,0.94,0.25
0.14,0.93,0.25
0.15,0.93,0.25
0.15,0.95,0.26
0.14,0.94,0.26
0.14,0.93,0.25
0.14,0.94,0.26
0.14,0.94,0.26
0.14,0.94,0.26
0.14,0.94,0.25
0.14,0.94,0.25
0.14,0.94,0.25
0.14,0.94,0.25
0.14,0.94,0.25
0.14,0.94,0.25
0.14,0.94,0.25
0.14,0.94,0.26
0.14,0.94,0.26
0.15,0.94,0.26
0.14,0.94,0.26
0.14,0.94,0.26
0.14,0.94,0.25
0.15,0.94,0.25
0.15,0.94,0.26
0.15,0.94,0.26
0.14,0.94,0.26
0.14,0.94,0.26
0.14,0.94,0.26
0.14,0.94,0.26
0.14,0.94,0.26
0.14,0.94,0.26
0.15,0.93,0.26
0.15,0.94,0.25
0.15,0.94,0.25
0.14,0.94,0.25
0.14,0.94,0.25
0.14,0.94,0.26
0.15,0.94,0.26
0.15,0.94,0.26
0.14,0.94,0.26
0.15,0.94,0.26
0.15,0.94,0.26
0.15,0.94,0.26
0.14,0.94,0.25
0.14,0.94,0.25
0.14,0.94,0.25
0.14,0.94,0.25
0.14,0.94,0.25
0.14,0.94,0.26
0.14,0.94,0.26
0.14,0.94,0.25
0.14,0.94,0.26
0.15,0.94,0.26
0.15,0.94,0.26
0.15,0.94,0.26
0.15,0.94,0.26
0.15,0.94,0.26
0.15,0.94,0.26
0.15,0.94,0.26
0.15,0.94,0.26
0.14,0.94,0.26
0.15,0.94,0.26
0.15,0.94,0.26
0.15,0.94,0.26
0.15,0.94,0.26
0.15,0.94,0.26
0.15,0.94,0.26
0.14,0.94,0.26
0.14,0.94,0.26
0.14,0.94,0.26
0.14,0.93,0.26
0.13,0.94,0.26
0.13,0.94,0.26
0.13,0.94,0.26
0.13,0.94,0.26
0.13,0.94,0.26
0.13,0.94,0.26
0.14,0.94,0.26
0.15,0.94,0.25
0.15,0.94,0.25
0.15,0.94,0.25
0.15,0.94,0.25
0.15,0.94,0.25
0.15,0.94,0.26
0.15,0.94,0.26
0.15,0.93,0.25
0.14,0.94,0.26
0.14,0.94,0.26
0.15,0.93,0.26
0.15,0.94,0.26
0.16,0.94,0.25
0.16,0.94,0.26
0.16,0.94,0.26
0.16,0.94,0.25
0.15,0.94,0.25
0.15,0.94,0.25
0.15,0.94,0.26
0.15,0.93,0.26
0.15,0.94,0.26
0.15,0.94,0.26
0.15,0.94,0.26
0.15,0.93,0.26
0.14,0.93,0.26
0.14,0.94,0.26
0.15,0.94,0.26
0.15,0.94,0.26
0.14,0.94,0.26
0.14,0.94,0.26
0.14,0.94,0.26
0.14,0.94,0.26
0.14,0.94,0.26
0.13,0.94,0.26
0.13,0.94,0.26
0.14,0.94,0.26
0.15,0.94,0.26
0.15,0.94,0.26
0.15,0.94,0.26
0.15,0.94,0.25
0.15,0.94,0.26
0.15,0.94,0.25
0.15,0.94,0.25
0.15,0.94,0.25
0.14,0.94,0.25
0.14,0.94,0.26
0.14,0.94,0.26
0.14,0.93,0.26
0.15,0.93,0.26
0.15,0.94,0.26
0.15,0.94,0.27
0.16,0.94,0.27
0.15,0.94,0.27
0.15,0.94,0.27
0.15,0.94,0.26
0.14,0.94,0.26
0.14,0.94,0.27
0.14,0.94,0.27
0.14,0.94,0.26
0.14,0.94,0.26
0.14,0.93,0.26
0.14,0.94,0.26
0.14,0.94,0.26
0.14,0.94,0.26
0.14,0.94,0.26
0.14,0.94,0.26
0.14,0.94,0.26
0.14,0.94,0.26
0.14,0.94,0.26
0.14,0.94,0.26
0.14,0.94,0.26
0.13,0.94,0.26
0.13,0.94,0.26
0.14,0.94,0.26
0.14,0.93,0.26
0.14,0.93,0.26
0.14,0.94,0.26
0.15,0.94,0.27
0.14,0.94,0.27
0.14,0.94,0.27
0.14,0.93,0.27
0.14,0.93,0.27
0.14,0.93,0.27
0.14,0.94,0.26
0.14,0.94,0.27
0.14,0.94,0.27
0.14,0.94,0.26
0.14,0.94,0.26
0.14,0.93,0.26
0.15,0.94,0.26
0.14,0.94,0.26
0.14,0.94,0.26
0.14,0.93,0.27
0.14,0.93,0.27
0.14,0.93,0.27
0.14,0.93,0.27
0.14,0.93,0.27
0.14,0.93,0.27
0.14,0.94,0.27
0.14,0.94,0.27
0.14,0.93,0.27
0.14,0.94,0.27
0.14,0.94,0.27
0.14,0.94,0.27
0.14,0.94,0.27
0.14,0.94,0.27
0.14,0.94,0.27
0.14,0.94,0.26
0.14,0.93,0.26
0.13,0.94,0.27
0.13,0.94,0.27
0.13,0.94,0.27
0.13,0.94,0.27
0.13,0.94,0.27
0.13,0.94,0.27
0.13,0.94,0.27
0.13,0.94,0.27
0.14,0.94,0.27
0.15,0.94,0.27
0.15,0.94,0.27
0.15,0.94,0.27
0.14,0.94,0.27
0.13,0.93,0.27
0.13,0.93,0.27
0.12,0.93,0.28
0.12,0.93,0.28
0.12,0.93,0.28
0.11,0.93,0.28
0.11,0.93,0.29
0.11,0.93,0.29
0.11,0.93,0.29
0.11,0.93,0.29
0.12,0.93,0.29
0.12,0.93,0.29
0.13,0.93,0.28
0.14,0.93,0.28
0.14,0.93,0.28
0.14,0.93,0.28
0.13,0.93,0.28
0.13,0.93,0.28
0.13,0.93,0.28
0.12,0.93,0.28
0.12,0.93,0.28
0.12,0.93,0.28
0.13,0.93,0.28
0.13,0.93,0.28
0.13,0.94,0.28
0.13,0.93,0.28
0.13,0.93,0.28
0.13,0.93,0.28
0.13,0.93,0.28
0.12,0.93,0.28
0.12,0.93,0.28
0.12,0.94,0.28
0.13,0.94,0.28
0.13,0.93,0.29
0.13,0.93,0.29
0.13,0.93,0.29
0.13,0.93,0.29
0.14,0.93,0.29
0.14,0.93,0.29
0.13,0.93,0.29
0.13,0.93,0.29
0.13,0.93,0.29
0.13,0.93,0.29
0.13,0.93,0.29
0.13,0.93,0.29
0.13,0.93,0.29
0.13,0.93,0.29
0.13,0.93,0.29
0.13,0.93,0.29
0.13,0.93,0.28
0.13,0.93,0.29
0.13,0.93,0.29
0.13,0.93,0.29
0.13,0.93,0.29
0.13,0.93,0.29
0.12,0.93,0.29
0.12,0.93,0.29
0.12,0.93,0.29
0.12,0.93,0.29
0.12,0.93,0.29
0.13,0.93,0.29
0.13,0.93,0.29
0.13,0.93,0.29
0.14,0.93,0.29
0.13,0.93,0.29
0.14,0.93,0.29
0.13,0.93,0.29
0.13,0.93,0.29
0.13,0.93,0.29
0.12,0.93,0.28
0.13,0.93,0.28
0.13,0.93,0.28
0.13,0.93,0.28
0.13,0.93,0.28
0.13,0.94,0.28
0.13,0.94,0.28
0.13,0.93,0.27
0.13,0.93,0.27
0.13,0.94,0.27
0.13,0.93,0.27
0.13,0.93,0.28
0.13,0.93,0.28
0.13,0.93,0.28
0.13,0.93,0.28
0.13,0.93,0.28
0.13,0.93,0.28
0.13,0.93,0.28
0.13,0.93,0.28
0.13,0.93,0.28
0.14,0.93,0.28
0.14,0.93,0.28
0.14,0.93,0.28
0.14,0.93,0.28
0.14,0.93,0.28
0.13,0.93,0.28
0.13,0.93,0.29
0.13,0.93,0.28
0.13,0.93,0.28
0.13,0.93,0.28
0.13,0.93,0.28
0.13,0.93,0.28
0.13,0.94,0.28
0.13,0.93,0.28
0.13,0.93,0.28
0.12,0.93,0.27
0.12,0.94,0.27
0.13,0.93,0.27
0.13,0.93,0.27
0.13,0.94,0.27
0.14,0.94,0.27
0.13,0.93,0.27
0.13,0.93,0.28
0.13,0.93,0.28
0.13,0.93,0.28
0.13,0.93,0.28
0.13,0.94,0.28
0.13,0.94,0.28
0.13,0.93,0.28
0.13,0.93,0.28
0.13,0.93,0.28
0.13,0.94,0.28
0.12,0.93,0.29
0.12,0.93,0.29
0.12,0.93,0.28
0.12,0.93,0.29
0.11,0.93,0.3
0.1,0.93,0.31
0.11,0.93,0.32
0.13,0.93,0.31
0.14,0.93,0.29
0.15,0.93,0.28
0.15,0.93,0.28
0.17,0.93,0.27
0.18,0.94,0.26
0.19,0.94,0.25
0.18,0.94,0.25
0.17,0.94,0.24
0.15,0.94,0.24
0.14,0.94,0.23
0.13,0.94,0.23
0.13,0.94,0.22
0.13,0.94,0.22
0.13,0.95,0.23
0.13,0.94,0.24
0.12,0.95,0.24
0.12,0.94,0.24
0.12,0.94,0.24
0.12,0.94,0.24
0.12,0.94,0.24
0.13,0.94,0.24
0.13,0.94,0.24
0.13,0.94,0.24
0.14,0.94,0.24
0.14,0.94,0.24
0.14,0.94,0.24
0.14,0.94,0.25
0.14,0.94,0.24
0.15,0.94,0.25
0.15,0.94,0.25
0.15,0.94,0.25
0.15,0.95,0.24
0.14,0.95,0.24
0.14,0.94,0.24
0.14,0.94,0.24
0.14,0.94,0.24
0.14,0.94,0.24
0.14,0.94,0.25
0.14,0.94,0.25
0.14,0.94,0.25
0.14,0.94,0.26
0.14,0.94,0.26
0.13,0.94,0.26
0.13,0.94,0.26
0.13,0.94,0.26
0.13,0.94,0.26
0.13,0.94,0.26
0.13,0.94,0.26
0.14,0.94,0.26
0.13,0.94,0.26
0.12,0.94,0.26
0.12,0.94,0.26
0.12,0.94,0.26
0.12,0.94,0.27
0.11,0.94,0.27
0.1,0.94,0.27
0.11,0.94,0.26
0.11,0.94,0.26
0.11,0.94,0.26
0.11,0.94,0.26
0.12,0.94,0.27
0.12,0.94,0.28
0.11,0.93,0.28
0.11,0.93,0.28
0.11,0.93,0.28
0.1,0.94,0.29
0.1,0.94,0.29
0.1,0.93,0.29
0.11,0.93,0.29
0.11,0.94,0.28
0.12,0.94,0.28
0.13,0.93,0.27
0.13,0.94,0.27
0.13,0.94,0.27
0.13,0.93,0.27
0.13,0.94,0.27
0.12,0.94,0.27
0.12,0.94,0.27
0.12,0.94,0.27
0.12,0.94,0.27
0.13,0.94,0.27
0.13,0.94,0.27
0.13,0.94,0.27
0.13,0.94,0.27
0.13,0.93,0.27
0.13,0.94,0.28
0.13,0.94,0.28
0.13,0.93,0.28
0.13,0.93,0.28
0.13,0.93,0.28
0.13,0.93,0.28
0.13,0.93,0.28
0.13,0.94,0.28
0.13,0.93,0.27
0.13,0.93,0.27
0.13,0.94,0.28
0.13,0.94,0.28
0.13,0.94,0.27
0.12,0.93,0.27
0.12,0.93,0.28
0.12,0.94,0.28
0.12,0.93,0.28
0.12,0.93,0.28
0.12,0.93,0.28
0.12,0.93,0.28
0.13,0.94,0.29
0.12,0.93,0.28
0.13,0.93,0.28
0.12,0.93,0.28
0.12,0.93,0.28
0.12,0.94,0.28
0.12,0.94,0.28
0.12,0.93,0.28
0.12,0.93,0.28
0.12,0.93,0.28
0.13,0.93,0.28
0.13,0.93,0.29
0.13,0.94,0.29
0.12,0.93,0.29
0.12,0.93,0.29
0.12,0.93,0.29
0.12,0.93,0.29
0.12,0.93,0.29
0.12,0.93,0.29
0.12,0.93,0.29
0.12,0.93,0.29
0.12,0.93,0.28
0.12,0.93,0.28
0.12,0.93,0.28
0.11,0.93,0.29
0.11,0.93,0.29
0.11,0.93,0.29
0.11,0.93,0.29
0.11,0.94,0.3
0.12,0.94,0.3
0.12,0.93,0.3
0.13,0.93,0.3
0.14,0.93,0.3
0.14,0.93,0.31
0.13,0.94,0.32
0.12,0.93,0.32
0.12,0.94,0.32
0.12,0.94,0.31
0.12,0.94,0.3
0.1,0.93,0.29
0.11,0.92,0.28
0.14,0.93,0.29
0.17,0.94,0.29
0.17,0.93,0.27
0.18,0.92,0.26
0.18,0.92,0.27
0.19,0.93,0.28
0.23,0.94,0.28
0.26,0.93,0.24
0.26,0.93,0.21
0.2,0.94,0.23
0.11,0.94,0.23
0.09,0.93,0.22
0.12,0.93,0.19
0.15,0.94,0.16
0.15,0.95,0.16
0.14,0.94,0.16
0.13,0.94,0.14
0.14,0.94,0.12
0.17,0.95,0.12
0.17,0.96,0.13
0.15,0.95,0.21
0.08,0.96,0.23
0.07,0.96,0.24
0.07,0.95,0.23
0.08,0.95,0.24
0.1,0.95,0.25
0.1,0.95,0.26
0.1,0.95,0.28
0.11,0.94,0.3
0.12,0.94,0.32
0.13,0.93,0.32
0.14,0.93,0.31
0.13,0.94,0.3
0.13,0.94,0.3
0.12,0.94,0.31
0.11,0.94,0.31
0.1,0.94,0.29
0.1,0.94,0.28
0.1,0.95,0.28
0.11,0.95,0.28
0.11,0.95,0.27
0.11,0.94,0.26
0.1,0.94,0.25
0.09,0.94,0.25
0.07,0.94,0.26
0.07,0.95,0.26
0.07,0.96,0.24
0.07,0.95,0.23
0.07,0.94,0.22
0.05,0.95,0.22
0.04,0.95,0.23
0.03,0.95,0.23
0.03,0.95,0.23
0.02,0.95,0.22
0.02,0.95,0.23
0.02,0.95,0.24
0.02,0.95,0.25
0.03,0.95,0.25
0.03,0.95,0.25
0.04,0.95,0.26
0.04,0.95,0.26
0.05,0.95,0.25
0.07,0.95,0.25
0.08,0.95,0.25
0.08,0.95,0.24
0.06,0.95,0.24
0.05,0.95,0.24
0.04,0.95,0.24
0.03,0.95,0.25
0.02,0.95,0.27
0.01,0.95,0.27
0.02,0.95,0.26
0.04,0.95,0.23
0.07,0.96,0.22
0.06,0.96,0.22
0.05,0.96,0.21
0.03,0.95,0.21
0.02,0.95,0.23
0,0.95,0.24
0,0.95,0.23
0.01,0.95,0.25
0.02,0.95,0.28
0.03,0.95,0.28
0.06,0.94,0.27
0.08,0.95,0.25
0.08,0.95,0.24
0.07,0.95,0.24
0.05,0.95,0.24
0.05,0.95,0.24
0.04,0.96,0.23
0.04,0.96,0.23
0.05,0.96,0.24
0.04,0.96,0.25
0.05,0.96,0.25
0.06,0.95,0.24
0.06,0.95,0.23
0.06,0.95,0.23
0.05,0.95,0.23
0.05,0.96,0.21
0.06,0.96,0.22
0.04,0.95,0.24
0.04,0.94,0.24
0.04,0.95,0.23
0.05,0.96,0.22
0.05,0.95,0.22
0.04,0.95,0.23
0.04,0.95,0.24
0.04,0.95,0.24
0.06,0.95,0.24
0.07,0.96,0.23
0.08,0.96,0.24
0.08,0.96,0.25
0.08,0.96,0.27
0.07,0.95,0.27
0.05,0.94,0.27
0.05,0.94,0.27
0.05,0.95,0.26
0.04,0.94,0.24
0.04,0.95,0.23
0.03,0.95,0.23
0.01,0.95,0.25
0,0.95,0.26
0.02,0.95,0.23
0.01,0.93,0.19
0.01,0.94,0.35
0.03,0.93,0.34
0.07,0.93,0.28
0.11,0.95,0.25
0.11,0.95,0.25
0.08,0.95,0.25
0.06,0.95,0.25
0.06,0.95,0.23
0.07,0.95,0.23
0.07,0.96,0.22
0.06,0.96,0.23
0.05,0.95,0.23
0.04,0.95,0.23
0.04,0.95,0.24
0.04,0.95,0.24
0.05,0.95,0.24
0.05,0.95,0.24
0.05,0.95,0.24
0.05,0.95,0.25
0.06,0.95,0.26
0.06,0.95,0.26
0.08,0.95,0.25
0.08,0.95,0.25
0.09,0.95,0.25
0.09,0.95,0.24
0.1,0.95,0.24
0.1,0.95,0.26
0.09,0.95,0.24
0.1,0.96,0.23
0.09,0.96,0.23
0.08,0.95,0.24
0.08,0.95,0.24
0.09,0.95,0.24
0.09,0.96,0.23
0.08,0.96,0.23
0.06,0.95,0.24
0.06,0.95,0.24
0.07,0.95,0.23
0.08,0.95,0.22
0.09,0.95,0.21
0.07,0.96,0.21
0.05,0.96,0.23
0.04,0.96,0.23
0.05,0.95,0.24
0.05,0.94,0.24
0.05,0.95,0.24
0.06,0.95,0.25
0.05,0.95,0.27
0.05,0.95,0.26
0.06,0.95,0.25
0.08,0.95,0.25
0.07,0.95,0.25
0.06,0.95,0.25
0.08,0.95,0.23
0.08,0.95,0.24
0.07,0.95,0.24
0.06,0.95,0.25
0.06,0.95,0.25
0.07,0.95,0.25
0.07,0.95,0.26
0.08,0.95,0.25
0.08,0.95,0.24
0.08,0.95,0.24
0.08,0.95,0.23
0.08,0.95,0.22
0.08,0.96,0.22
0.08,0.95,0.22
0.08,0.95,0.22
0.07,0.95,0.24
0.06,0.95,0.26
0.04,0.94,0.26
0.03,0.94,0.26
0.03,0.95,0.26
0.03,0.95,0.26
0.04,0.95,0.26
0.05,0.95,0.26
0.06,0.95,0.26
0.07,0.95,0.25
0.07,0.95,0.24
0.08,0.95,0.23
0.09,0.94,0.23
0.08,0.95,0.27
0.07,0.95,0.29
0.08,0.94,0.28
0.09,0.94,0.25
0.1,0.95,0.23
0.1,0.95,0.23
0.08,0.95,0.24
0.07,0.95,0.24
0.07,0.95,0.23
0.06,0.95,0.23
0.06,0.96,0.23
0.06,0.95,0.23
0.05,0.95,0.23
0.06,0.95,0.22
0.07,0.95,0.23
0.08,0.95,0.23
0.08,0.95,0.23
0.08,0.95,0.24
0.09,0.95,0.24
0.09,0.95,0.24
0.08,0.95,0.24
0.08,0.95,0.23
0.08,0.95,0.22
0.09,0.96,0.21
0.08,0.94,0.25
0.07,0.95,0.24
0.11,0.96,0.23
0.1,0.96,0.23
0.08,0.95,0.24
0.07,0.95,0.24
0.08,0.95,0.23
0.1,0.96,0.23
0.1,0.96,0.23
0.1,0.96,0.23
0.1,0.95,0.23
0.11,0.95,0.22
0.11,0.96,0.22
0.1,0.96,0.21
0.09,0.96,0.22
0.06,0.96,0.24
0.05,0.95,0.25
0.06,0.95,0.25
0.06,0.95,0.24
0.07,0.95,0.24
0.07,0.95,0.24
0.07,0.95,0.24
0.06,0.95,0.25
0.06,0.95,0.24
0.07,0.96,0.23
0.08,0.96,0.23
0.09,0.95,0.24
0.09,0.95,0.25
0.09,0.95,0.25
0.08,0.94,0.23
0.08,0.95,0.22
0.07,0.95,0.21
0.08,0.95,0.2
0.08,0.95,0.22
0.07,0.95,0.23
0.06,0.95,0.24
0.07,0.96,0.23
0.07,0.95,0.22
0.06,0.95,0.22
0.06,0.95,0.23
0.05,0.95,0.23
0.05,0.95,0.22
0.07,0.95,0.22
0.09,0.95,0.22
0.09,0.96,0.22
0.09,0.95,0.23
0.09,0.95,0.23
0.09,0.95,0.23
0.09,0.95,0.24
0.1,0.95,0.24
0.09,0.95,0.24
0.08,0.95,0.25
0.08,0.95,0.25
0.08,0.95,0.24
0.08,0.95,0.23
0.09,0.95,0.22
0.08,0.95,0.22
0.08,0.95,0.24
0.06,0.95,0.24
0.06,0.95,0.24
0.06,0.95,0.23
0.05,0.96,0.23
0.04,0.95,0.23
0.04,0.95,0.23
0.05,0.95,0.24
0.05,0.95,0.25
0.05,0.94,0.26
0.05,0.95,0.26
0.05,0.95,0.26
0.06,0.94,0.25
0.07,0.95,0.25
0.06,0.95,0.25
0.06,0.95,0.25
0.05,0.95,0.25
0.05,0.95,0.25
0.05,0.95,0.25
0.04,0.94,0.26
0.04,0.94,0.26
0.03,0.95,0.25
0.04,0.95,0.24
0.05,0.95,0.23
0.06,0.95,0.22
0.08,0.95,0.22
0.09,0.96,0.21
0.11,0.96,0.18
0.12,0.95,0.19
0.12,0.95,0.2
0.14,0.96,0.2
0.17,0.96,0.2
0.17,0.96,0.22
0.15,0.95,0.24
0.14,0.94,0.25
0.15,0.94,0.25
0.16,0.94,0.25
0.15,0.94,0.25
0.15,0.94,0.22
0.17,0.93,0.2
0.19,0.92,0.2
0.22,0.91,0.2
0.26,0.92,0.19
0.29,0.93,0.19
0.29,0.93,0.19
0.28,0.92,0.19
0.27,0.91,0.19
0.25,0.92,0.19
0.24,0.92,0.17
0.29,0.91,0.15
0.31,0.92,0.15
0.29,0.93,0.18
0.28,0.92,0.18
0.3,0.92,0.15
0.32,0.93,0.14
0.33,0.93,0.14
0.32,0.93,0.13
0.32,0.92,0.12
0.33,0.91,0.12
0.35,0.91,0.12
0.39,0.91,0.13
0.41,0.91,0.14
0.41,0.91,0.14
0.39,0.92,0.13
0.38,0.92,0.12
0.4,0.92,0.1
0.42,0.92,0.08
0.44,0.91,0.07
0.46,0.91,0.07
0.46,0.91,0.07
0.46,0.91,0.07
0.46,0.9,0.08
0.47,0.9,0.08
0.48,0.91,0.06
0.45,0.91,0.09
0.42,0.9,0.12
0.38,0.9,0.15
0.33,0.9,0.19
0.29,0.9,0.22
0.26,0.9,0.25
0.24,0.9,0.28
0.23,0.9,0.29
0.24,0.89,0.26
0.29,0.89,0.24
0.31,0.91,0.21
0.29,0.91,0.19
0.27,0.92,0.18
0.25,0.92,0.17
0.23,0.92,0.18
0.23,0.92,0.18
0.26,0.91,0.18
0.3,0.91,0.18
0.33,0.91,0.17
0.34,0.92,0.16
0.35,0.91,0.17
0.37,0.9,0.22
0.36,0.89,0.26
0.35,0.88,0.27
0.38,0.87,0.27
0.42,0.87,0.19
0.4,0.87,0.16
0.46,0.88,0.11
0.42,0.93,0.1
0.35,0.93,0.01
0.42,0.89,-0.12
0.45,0.91,-0.12
0.49,0.88,-0.05
0.33,0.94,0.12
0.14,0.96,0.16
0.31,0.85,0.03
0.51,0.89,-0.08
0.52,0.95,-0.1
0.46,0.94,-0.08
0.44,0.92,-0.07
0.44,0.92,-0.07
0.42,0.92,-0.09
0.39,0.93,-0.09
0.37,0.93,-0.09
0.38,0.93,-0.11
0.38,0.92,-0.11
0.37,0.92,-0.09
0.38,0.93,-0.08
0.38,0.93,-0.06
0.37,0.93,-0.05
0.37,0.92,-0.04
0.36,0.92,-0.02
0.35,0.92,0
0.33,0.92,0.01
0.33,0.92,0.02
0.33,0.92,0.03
0.34,0.92,0.03
0.37,0.91,0.02
0.4,0.92,0.02
0.39,0.92,0.03
0.39,0.91,0.03
0.4,0.91,0.02
0.4,0.92,0.02
0.4,0.91,0.03
0.39,0.91,0.03
0.38,0.91,0.04
0.36,0.91,0.06
0.35,0.9,0.08
0.34,0.89,0.1
0.34,0.9,0.11
0.35,0.91,0.1
0.36,0.91,0.09
0.4,0.92,0.09
0.41,0.92,0.08
0.38,0.92,0.07
0.35,0.91,0.06
0.34,0.91,0.06
0.35,0.91,0.05
0.35,0.93,0.06
0.33,0.93,0.05
0.34,0.91,0.06
0.35,0.91,0.07
0.37,0.91,0.1
0.37,0.91,0.13
0.38,0.9,0.15
0.39,0.89,0.17
0.38,0.89,0.19
0.36,0.88,0.23
0.34,0.88,0.25
0.35,0.88,0.26
0.36,0.88,0.27
0.35,0.87,0.28
0.35,0.87,0.28
0.39,0.88,0.28
0.4,0.88,0.3
0.38,0.88,0.29
0.37,0.87,0.28
0.38,0.87,0.26
0.37,0.88,0.25
0.34,0.89,0.22
0.3,0.9,0.15
0.27,0.91,0.08
0.28,0.92,0.05
0.29,0.92,0.08
0.31,0.92,0.13
0.38,0.89,0.15
0.4,0.88,0.17
0.39,0.87,0.17
0.4,0.85,0.15
0.44,0.9,0.15
0.43,0.94,0.04
0.43,0.9,-0.12
0.47,0.88,-0.17
0.53,0.78,-0.12
0.41,0.87,0.03
0.18,0.97,0.11
0.25,0.87,-0.01
0.4,0.87,-0.13
0.42,0.93,-0.14
0.43,0.93,-0.11
0.48,0.92,-0.09
0.5,0.92,-0.07
0.49,0.9,-0.05
0.5,0.89,-0.08
0.53,0.91,-0.12
0.53,0.92,-0.15
0.49,0.9,-0.18
0.47,0.89,-0.18
0.45,0.9,-0.17
0.44,0.91,-0.14
0.43,0.9,-0.06
0.44,0.9,-0.06
0.45,0.89,-0.06
0.43,0.89,-0.05
0.41,0.9,-0.03
0.41,0.9,-0.02
0.41,0.91,-0.02
0.39,0.91,-0.03
0.38,0.91,0
0.35,0.9,0.02
0.36,0.9,0.01
0.4,0.91,-0.01
0.4,0.91,-0.01
0.4,0.9,0
0.4,0.9,0
0.4,0.9,0.01
0.41,0.91,0.01
0.41,0.91,0
0.4,0.9,0
0.39,0.9,0
0.38,0.9,0
0.37,0.9,0.02
0.37,0.9,0.03
0.38,0.9,0.04
0.39,0.91,0.04
0.4,0.91,0.03
0.4,0.91,0.04
0.37,0.9,0.04
0.37,0.91,0.04
0.35,0.91,0.05
0.33,0.91,0.08
0.34,0.91,0.09
0.36,0.91,0.07
0.4,0.91,0.04
0.41,0.92,0.01
0.4,0.91,-0.01
0.39,0.91,-0.01
0.38,0.91,-0.01
0.38,0.91,0
0.37,0.92,0.01
0.37,0.92,0.02
0.37,0.92,0.03
0.36,0.92,0.03
0.36,0.92,0.04
0.36,0.92,0.05
0.36,0.92,0.07
0.36,0.91,0.08
0.36,0.91,0.08
0.36,0.91,0.09
0.35,0.91,0.08
0.36,0.91,0.07
0.36,0.91,0.08
0.35,0.92,0.08
0.33,0.92,0.08
0.35,0.92,0.07
0.34,0.92,0.06
0.32,0.91,0.06
0.34,0.92,0.06
0.32,0.93,0.07
0.3,0.92,0.07
0.3,0.92,0.07
0.31,0.93,0.07
0.31,0.93,0.07
0.33,0.93,0.05
0.36,0.92,0.04
0.36,0.92,0.04
0.36,0.92,0.04
0.36,0.92,0.05
0.34,0.93,0.06
0.32,0.92,0.07
0.31,0.92,0.07
0.32,0.92,0.06
0.33,0.93,0.06
0.32,0.93,0.05
0.31,0.92,0.05
0.3,0.93,0.04
0.3,0.93,0.04
0.29,0.93,0.04
0.29,0.92,0.04
0.29,0.93,0.05
0.29,0.93,0.06
0.28,0.93,0.08
0.29,0.92,0.09
0.32,0.92,0.08
0.35,0.92,0.06
0.36,0.93,0.06
0.36,0.93,0.04
0.36,0.92,0.03
0.36,0.92,0.03
0.34,0.93,0.03
0.33,0.93,0.03
0.32,0.93,0.04
0.32,0.92,0.05
0.33,0.92,0.06
0.34,0.91,0.07
0.39,0.92,0.04
0.43,0.93,0.01
0.42,0.93,0.02
0.4,0.91,0.03
0.36,0.91,0.03
0.34,0.92,0.04
0.32,0.92,0.04
0.32,0.92,0.04
0.33,0.92,0.03
0.34,0.92,0.02
0.37,0.92,0
0.42,0.91,0
0.44,0.91,0
0.44,0.91,0
0.43,0.91,0.02
0.41,0.91,0.04
0.4,0.91,0.06
0.4,0.91,0.07
0.39,0.9,0.09
0.4,0.9,0.1
0.39,0.9,0.11
0.38,0.9,0.12
0.38,0.9,0.12
0.39,0.9,0.11
0.39,0.9,0.11
0.4,0.9,0.11
0.4,0.9,0.11
0.4,0.9,0.11
0.42,0.89,0.1
0.42,0.9,0.1
0.4,0.9,0.1
0.39,0.9,0.11
0.39,0.9,0.11
0.4,0.9,0.1
0.41,0.9,0.1
0.4,0.9,0.1
0.4,0.89,0.11
0.4,0.89,0.11
0.4,0.9,0.12
0.4,0.9,0.11
0.39,0.89,0.11
0.39,0.9,0.12
0.38,0.9,0.12
0.38,0.9,0.13
0.39,0.9,0.13
0.4,0.89,0.13
0.41,0.9,0.12
0.41,0.9,0.11
0.41,0.9,0.11
0.4,0.89,0.12
0.4,0.9,0.12
0.4,0.9,0.12
0.4,0.9,0.12
0.39,0.9,0.12
0.38,0.89,0.12
0.38,0.89,0.11
0.39,0.89,0.11
0.4,0.89,0.11
0.41,0.9,0.1
0.42,0.9,0.1
0.41,0.89,0.1
0.41,0.89,0.1
0.4,0.9,0.11
0.4,0.9,0.11
0.4,0.9,0.11
0.39,0.9,0.12
0.39,0.9,0.12
0.39,0.9,0.13
0.4,0.9,0.12
0.4,0.9,0.12
0.39,0.9,0.11
0.39,0.9,0.11
0.39,0.9,0.12
0.38,0.9,0.12
0.38,0.9,0.12
0.38,0.9,0.12
0.38,0.9,0.11
0.38,0.9,0.11
0.38,0.9,0.12
0.39,0.91,0.12
0.39,0.9,0.12
0.39,0.9,0.11
0.39,0.9,0.11
0.39,0.9,0.11
0.38,0.9,0.11
0.38,0.9,0.12
0.38,0.91,0.12
0.38,0.9,0.12
0.38,0.9,0.11
0.37,0.9,0.11
0.37,0.9,0.11
0.37,0.9,0.12
0.37,0.9,0.12
0.38,0.9,0.12
0.38,0.9,0.11
0.38,0.9,0.11
0.38,0.9,0.11
0.37,0.9,0.11
0.36,0.9,0.12
0.36,0.9,0.12
0.36,0.9,0.12
0.37,0.9,0.12
0.37,0.9,0.12
0.37,0.9,0.12
0.37,0.9,0.12
0.38,0.9,0.11
0.38,0.9,0.11
0.39,0.9,0.11
0.39,0.9,0.11
0.39,0.9,0.11
0.4,0.9,0.11
0.39,0.9,0.11
0.39,0.9,0.11
0.4,0.9,0.1
0.41,0.9,0.1
0.39,0.9,0.1
0.39,0.9,0.1
0.4,0.9,0.1
0.4,0.91,0.1
0.4,0.9,0.1
0.4,0.9,0.09
0.4,0.9,0.1
0.39,0.91,0.1
0.39,0.91,0.1
0.38,0.9,0.1
0.38,0.9,0.1
0.37,0.9,0.1
0.37,0.9,0.11
0.37,0.9,0.11
0.37,0.9,0.11
0.37,0.9,0.11
0.37,0.91,0.11
0.38,0.9,0.11
0.38,0.9,0.1
0.38,0.9,0.1
0.38,0.9,0.1
0.38,0.9,0.11
0.38,0.9,0.1
0.38,0.9,0.1
0.38,0.9,0.1
0.38,0.9,0.11
0.39,0.9,0.1
0.39,0.9,0.1
0.39,0.9,0.1
0.39,0.9,0.1
0.39,0.9,0.11
0.38,0.9,0.11
0.38,0.9,0.11
0.38,0.9,0.11
0.39,0.9,0.11
0.39,0.9,0.11
0.38,0.9,0.1
0.38,0.9,0.1
0.37,0.9,0.1
0.38,0.91,0.11
0.38,0.91,0.11
0.38,0.9,0.11
0.37,0.9,0.1
0.37,0.91,0.1
0.37,0.91,0.1
0.37,0.91,0.1
0.38,0.9,0.1
0.38,0.9,0.1
0.38,0.91,0.1
0.38,0.9,0.1
0.38,0.9,0.1
0.37,0.9,0.1
0.38,0.9,0.1
0.39,0.9,0.09
0.39,0.9,0.1
0.39,0.9,0.1
0.39,0.9,0.11
0.39,0.9,0.11
0.4,0.9,0.11
0.4,0.9,0.11
0.4,0.9,0.11
0.4,0.9,0.11
0.39,0.9,0.12
0.39,0.9,0.12
0.38,0.9,0.12
0.38,0.9,0.12
0.38,0.9,0.11
0.38,0.9,0.11
0.38,0.9,0.11
0.38,0.9,0.11
0.37,0.9,0.11
0.38,0.9,0.11
0.38,0.9,0.11
0.37,0.9,0.11
0.37,0.9,0.11
0.38,0.9,0.11
0.38,0.9,0.11
0.38,0.91,0.1
0.38,0.91,0.1
0.38,0.91,0.1
0.38,0.9,0.1
0.38,0.9,0.11
0.38,0.9,0.11
0.38,0.9,0.11
0.38,0.9,0.11
0.38,0.9,0.11
0.38,0.9,0.11
0.38,0.9,0.12
0.38,0.9,0.12
0.38,0.9,0.12
0.38,0.9,0.12
0.38,0.9,0.12
0.38,0.9,0.12
0.38,0.9,0.12
