Acc_x,Acc_y,Acc_z
-1.08,-0.4,0.24
-1.14,-0.42,0.25
-1.17,-0.42,0.26
-1.19,-0.41,0.28
-1.22,-0.41,0.29
-1.24,-0.41,0.29
-1.26,-0.4,0.26
-1.27,-0.39,0.24
-1.27,-0.37,0.21
-1.26,-0.33,0.18
-1.26,-0.33,0.21
-1.22,-0.32,0.25
-1.15,-0.3,0.27
-1.09,-0.29,0.28
-1.1,-0.27,0.29
-1.12,-0.26,0.28
-1.08,-0.24,0.25
-1.05,-0.23,0.21
-1.05,-0.21,0.19
-1.08,-0.2,0.18
-1.12,-0.19,0.17
-1.16,-0.18,0.16
-1.19,-0.17,0.12
-1.22,-0.16,0.09
-1.25,-0.15,0.06
-1.24,-0.14,0.03
-1.22,-0.14,0.01
-1.21,-0.14,0.02
-1.2,-0.14,0.02
-1.11,-0.13,0.03
-1.01,-0.12,0.04
-1.02,-0.1,0.06
-1.08,-0.11,0.07
-1.08,-0.11,0.09
-1.02,-0.1,0.12
-1.02,-0.06,0.15
-1.09,-0.06,0.19
-1.06,-0.06,0.21
-1.03,-0.05,0.21
-0.99,-0.05,0.23
-0.92,-0.03,0.28
-0.85,-0.01,0.31
-0.81,0.01,0.33
-0.78,0.02,0.35
-0.73,0.03,0.37
-0.67,0.05,0.38
-0.62,0.06,0.38
-0.62,0.08,0.4
-0.66,0.1,0.43
-0.71,0.1,0.46
-0.75,0.1,0.48
-0.81,0.11,0.51
-0.89,0.12,0.56
-0.99,0.13,0.6
-1.06,0.12,0.63
-1.05,0.13,0.62
-0.96,0.13,0.57
-0.82,0.15,0.52
-0.71,0.19,0.49
-0.65,0.22,0.48
-0.61,0.22,0.48
-0.55,0.24,0.51
-0.4,0.25,0.54
-0.37,0.27,0.58
-0.4,0.28,0.61
-0.45,0.29,0.64
-0.47,0.29,0.66
-0.47,0.3,0.67
-0.46,0.31,0.69
-0.45,0.31,0.71
-0.42,0.3,0.73
-0.39,0.3,0.74
-0.36,0.31,0.75
-0.32,0.32,0.76
-0.31,0.32,0.76
-0.32,0.31,0.77
-0.32,0.31,0.77
-0.32,0.3,0.76
-0.3,0.3,0.74
-0.29,0.3,0.73
-0.3,0.31,0.73
-0.32,0.31,0.74
-0.33,0.31,0.74
-0.34,0.3,0.73
-0.36,0.28,0.73
-0.37,0.26,0.72
-0.37,0.24,0.7
-0.37,0.23,0.67
-0.39,0.21,0.63
-0.39,0.22,0.6
-0.39,0.22,0.57
-0.36,0.22,0.54
-0.32,0.23,0.51
-0.28,0.22,0.48
-0.26,0.2,0.45
-0.25,0.18,0.43
-0.25,0.17,0.4
-0.23,0.19,0.36
-0.2,0.23,0.31
-0.18,0.26,0.29
-0.15,0.28,0.28
-0.13,0.29,0.29
-0.11,0.27,0.3
-0.09,0.24,0.3
-0.07,0.23,0.3
-0.04,0.26,0.31
-0.01,0.32,0.31
-0.01,0.37,0.32
-0.03,0.4,0.3
-0.04,0.42,0.25
-0.01,0.43,0.17
0.07,0.45,0.1
0.19,0.49,0.01
0.31,0.56,-0.04
0.48,0.75,0.02
0.58,0.79,0.12
0.67,0.74,0.21
0.76,0.66,0.28
0.87,0.58,0.39
1.01,0.56,0.5
1.12,0.54,0.6
1.13,0.5,0.64
1.03,0.48,0.61
0.85,0.46,0.61
0.72,0.43,0.65
0.71,0.43,0.72
0.73,0.41,0.8
0.74,0.37,0.91
0.69,0.33,1.04
0.58,0.27,1.12
0.46,0.19,1.18
0.34,0.1,1.22
0.25,0,1.24
0.19,-0.09,1.2
0.13,-0.17,1.15
0.08,-0.25,1.13
0.03,-0.31,1.13
-0.04,-0.37,1.13
-0.09,-0.49,1.26
0,-0.49,2.9
2.24,-0.95,3.95
2.87,-1.14,4
2.25,-1.09,3.29
2.12,-0.76,2.13
1.66,-0.53,1.3
1.08,-0.38,0.72
0.72,-0.28,0.4
0.54,-0.28,0.25
0.44,-0.32,0.22
0.28,-0.33,0.25
0.09,-0.31,0.27
-0.03,-0.31,0.28
-0.02,-0.33,0.29
0.07,-0.33,0.29
0.15,-0.31,0.3
0.19,-0.29,0.33
0.2,-0.28,0.39
0.21,-0.27,0.47
0.28,-0.24,0.56
0.44,-0.2,0.72
0.73,-0.17,0.92
1.07,-0.13,1.16
1.2,-0.09,1.43
1.02,-0.11,1.66
0.66,-0.19,1.73
0.35,-0.27,1.62
0.23,-0.26,1.15
0.26,-0.24,0.95
0.25,-0.23,0.8
0.22,-0.23,0.72
0.19,-0.22,0.67
0.2,-0.21,0.66
0.24,-0.21,0.67
0.31,-0.2,0.7
0.38,-0.2,0.75
0.44,-0.19,0.83
0.46,-0.19,0.9
0.49,-0.2,0.95
0.51,-0.2,0.97
0.53,-0.21,0.96
0.53,-0.22,0.95
0.54,-0.22,0.94
0.54,-0.23,0.92
0.52,-0.23,0.9
0.5,-0.24,0.87
0.48,-0.24,0.84
0.46,-0.23,0.82
0.45,-0.22,0.81
0.44,-0.22,0.81
0.44,-0.22,0.82
0.44,-0.21,0.84
0.45,-0.21,0.86
0.45,-0.21,0.9
0.45,-0.21,0.92
0.45,-0.21,0.92
0.44,-0.22,0.91
0.44,-0.22,0.9
0.44,-0.22,0.88
0.44,-0.22,0.87
0.45,-0.22,0.86
0.46,-0.21,0.85
0.47,-0.21,0.86
0.48,-0.21,0.86
0.48,-0.21,0.87
0.48,-0.21,0.87
0.47,-0.21,0.87
0.46,-0.21,0.87
0.46,-0.22,0.87
0.45,-0.22,0.87
0.45,-0.22,0.87
0.45,-0.22,0.87
0.46,-0.22,0.87
0.46,-0.22,0.87
0.47,-0.22,0.87
0.47,-0.22,0.87
0.47,-0.22,0.87
0.47,-0.22,0.87
0.47,-0.22,0.87
0.47,-0.22,0.87
0.46,-0.22,0.87
0.46,-0.22,0.87
0.46,-0.22,0.87
0.46,-0.22,0.87
0.46,-0.22,0.87
0.46,-0.22,0.87
0.47,-0.22,0.87
0.47,-0.22,0.87
0.47,-0.22,0.87
0.47,-0.22,0.87
0.47,-0.22,0.87
0.47,-0.22,0.87
0.47,-0.22,0.87
0.47,-0.22,0.86
0.46,-0.22,0.87
0.46,-0.22,0.87
0.47,-0.22,0.87
0.47,-0.22,0.87
0.47,-0.22,0.87
0.47,-0.21,0.87
0.47,-0.21,0.87
0.47,-0.21,0.87
0.47,-0.21,0.87
0.47,-0.21,0.87
0.47,-0.21,0.87
0.47,-0.21,0.87
0.47,-0.21,0.87
0.47,-0.22,0.87
0.47,-0.22,0.87
0.47,-0.22,0.87
0.46,-0.22,0.87
0.47,-0.22,0.87
0.47,-0.22,0.87
0.47,-0.22,0.87
0.47,-0.22,0.87
0.47,-0.22,0.87
0.47,-0.22,0.87
0.47,-0.22,0.86
0.47,-0.22,0.86
0.47,-0.22,0.87
0.47,-0.22,0.87
0.47,-0.22,0.87
0.47,-0.22,0.87
0.47,-0.21,0.87
0.47,-0.21,0.87
0.47,-0.21,0.87
0.47,-0.22,0.87
0.47,-0.22,0.87
0.47,-0.22,0.86
0.47,-0.22,0.87
0.47,-0.22,0.87
0.47,-0.21,0.87
0.47,-0.22,0.87
0.47,-0.22,0.87
0.47,-0.22,0.87
0.47,-0.22,0.87
0.47,-0.22,0.87
0.47,-0.22,0.87
0.47,-0.22,0.87
0.46,-0.22,0.87
0.46,-0.22,0.87
0.47,-0.22,0.87
0.47,-0.22,0.87
0.47,-0.22,0.87
0.47,-0.21,0.87
0.47,-0.22,0.87
0.47,-0.22,0.87
0.47,-0.22,0.87
0.47,-0.21,0.86
0.47,-0.21,0.86
0.47,-0.22,0.87
0.47,-0.22,0.87
0.47,-0.22,0.87
0.47,-0.22,0.87
0.47,-0.22,0.87
0.47,-0.22,0.87
0.47,-0.22,0.87
0.47,-0.22,0.87
0.46,-0.22,0.87
0.47,-0.22,0.87
0.47,-0.22,0.87
0.47,-0.21,0.87
0.47,-0.22,0.87
0.47,-0.22,0.87
0.47,-0.22,0.87
0.47,-0.22,0.86
0.47,-0.22,0.86
0.47,-0.22,0.87
0.47,-0.22,0.87
0.47,-0.22,0.87
0.46,-0.22,0.87
0.47,-0.22,0.87
0.47,-0.22,0.86
0.47,-0.22,0.86
0.47,-0.21,0.87
0.47,-0.21,0.87
0.47,-0.22,0.87
0.47,-0.22,0.87
0.47,-0.21,0.87
0.47,-0.22,0.87
0.47,-0.22,0.87
0.47,-0.21,0.87
0.47,-0.21,0.87
0.47,-0.22,0.87
0.47,-0.22,0.87
0.47,-0.22,0.87
0.47,-0.21,0.87
0.47,-0.21,0.87
0.47,-0.22,0.87
0.47,-0.22,0.87
0.47,-0.22,0.87
0.47,-0.21,0.87
0.47,-0.21,0.87
0.47,-0.22,0.87
0.47,-0.22,0.87
0.47,-0.22,0.87
0.47,-0.22,0.87
0.47,-0.22,0.87
0.47,-0.22,0.87
0.47,-0.22,0.87
0.47,-0.21,0.87
0.47,-0.22,0.87
0.47,-0.22,0.87
0.47,-0.22,0.87
0.47,-0.22,0.87
0.47,-0.22,0.87
0.47,-0.22,0.87
0.47,-0.22,0.87
0.47,-0.22,0.87
0.46,-0.22,0.87
0.46,-0.22,0.87
0.47,-0.22,0.87
0.46,-0.22,0.87
0.47,-0.22,0.87
0.46,-0.22,0.87
0.46,-0.22,0.87
0.47,-0.22,0.87
0.47,-0.22,0.87
0.47,-0.21,0.87
0.47,-0.22,0.87
0.47,-0.22,0.86
0.47,-0.22,0.86
0.46,-0.22,0.87
0.47,-0.22,0.87
0.47,-0.22,0.87
0.47,-0.22,0.87
0.47,-0.22,0.87
0.47,-0.22,0.87
0.47,-0.22,0.87
0.47,-0.22,0.87
0.47,-0.22,0.87
0.46,-0.22,0.87
0.46,-0.22,0.87
0.46,-0.21,0.87
0.47,-0.22,0.87
0.47,-0.21,0.87
0.47,-0.22,0.86
0.47,-0.22,0.86
0.47,-0.22,0.87
0.47,-0.22,0.87
0.47,-0.22,0.87
0.46,-0.22,0.87
0.46,-0.22,0.87
0.46,-0.22,0.87
0.47,-0.22,0.87
0.47,-0.22,0.87
0.47,-0.22,0.87
0.47,-0.22,0.87
0.47,-0.21,0.87
0.47,-0.21,0.87
0.47,-0.21,0.87
0.47,-0.21,0.87
0.47,-0.22,0.87
0.46,-0.22,0.87
0.47,-0.22,0.87
0.47,-0.22,0.87
0.47,-0.22,0.87
0.47,-0.22,0.87
0.46,-0.22,0.86
0.47,-0.22,0.86
0.47,-0.22,0.87
0.47,-0.21,0.87
0.47,-0.22,0.87
0.47,-0.21,0.87
0.47,-0.22,0.87
0.47,-0.22,0.87
0.47,-0.22,0.87
0.47,-0.22,0.87
0.47,-0.22,0.87
0.47,-0.22,0.87
0.47,-0.22,0.87
0.47,-0.22,0.87
0.47,-0.22,0.87
0.47,-0.22,0.87
0.47,-0.22,0.87
0.47,-0.22,0.87
0.47,-0.22,0.87
0.47,-0.22,0.87
0.47,-0.22,0.87
0.47,-0.22,0.87
0.47,-0.22,0.87
0.47,-0.22,0.87
0.47,-0.22,0.87
0.47,-0.22,0.87
0.47,-0.22,0.87
0.48,-0.22,0.87
0.49,-0.22,0.87
0.49,-0.23,0.89
0.5,-0.24,0.95
0.51,-0.25,0.98
0.52,-0.26,1
0.53,-0.28,1.01
0.58,-0.29,1.01
0.64,-0.3,1.03
0.67,-0.29,1.06
0.69,-0.29,1.09
0.73,-0.29,1.11
0.81,-0.29,1.11
0.89,-0.3,1.1
0.95,-0.3,1.06
0.98,-0.29,1.02
0.99,-0.27,0.96
0.98,-0.26,0.91
0.96,-0.25,0.87
0.95,-0.21,0.86
0.93,-0.16,0.86
0.92,-0.14,0.85
0.93,-0.12,0.84
0.95,-0.1,0.82
0.92,-0.08,0.82
0.87,-0.07,0.81
0.8,-0.05,0.78
0.81,-0.02,0.7
0.9,0.03,0.76
0.65,-0.02,0.65
0.37,0.06,0.67
0.58,0.16,0.63
0.69,0.18,0.58
0.65,0.2,0.57
0.52,0.2,0.6
0.38,0.18,0.6
0.36,0.23,0.59
0.45,0.31,0.54
0.52,0.35,0.48
0.49,0.36,0.44
0.45,0.39,0.4
0.45,0.39,0.37
0.45,0.39,0.35
0.43,0.41,0.32
0.39,0.44,0.31
0.33,0.47,0.35
0.33,0.51,0.35
0.37,0.55,0.32
0.38,0.56,0.29
0.39,0.58,0.24
0.41,0.57,0.18
0.39,0.56,0.16
0.4,0.59,0.19
0.42,0.63,0.2
0.38,0.61,0.16
0.32,0.55,0.02
0.39,0.45,0.06
0.32,0.34,0.36
0.16,0.24,1
0.23,0.11,1.59
0.83,0.22,1.88
1.47,0.42,1.72
1.56,0.35,1.12
1.43,0.32,0.59
1.36,0.44,0.26
1.18,0.52,0.05
0.97,0.55,-0.08
0.84,0.56,-0.11
0.79,0.57,-0.03
0.78,0.59,0.1
0.75,0.58,0.24
0.74,0.55,0.34
0.74,0.52,0.39
0.75,0.49,0.37
0.77,0.48,0.32
0.81,0.48,0.27
0.84,0.49,0.24
0.86,0.49,0.22
0.88,0.5,0.23
0.89,0.5,0.24
0.87,0.51,0.26
0.85,0.52,0.28
0.81,0.52,0.3
0.8,0.51,0.3
0.79,0.51,0.3
0.77,0.52,0.29
0.77,0.52,0.28
0.78,0.51,0.26
0.8,0.51,0.25
0.81,0.5,0.25
0.82,0.51,0.25
0.83,0.51,0.24
0.82,0.51,0.24
0.82,0.5,0.24
0.82,0.51,0.24
0.83,0.51,0.24
0.85,0.5,0.24
0.85,0.5,0.25
0.85,0.5,0.26
0.85,0.5,0.26
0.85,0.5,0.27
0.85,0.5,0.28
0.85,0.5,0.28
0.86,0.5,0.28
0.86,0.5,0.27
0.86,0.49,0.26
0.85,0.49,0.27
0.85,0.49,0.27
0.85,0.49,0.27
0.83,0.49,0.27
0.84,0.49,0.27
0.85,0.49,0.27
0.85,0.49,0.27
0.85,0.5,0.27
0.85,0.49,0.27
0.85,0.49,0.26
0.84,0.49,0.27
0.82,0.49,0.27
0.81,0.49,0.27
0.81,0.49,0.28
0.82,0.49,0.27
0.82,0.49,0.27
0.82,0.5,0.26
0.82,0.5,0.27
0.82,0.51,0.26
0.82,0.51,0.26
0.82,0.51,0.27
0.82,0.51,0.27
0.83,0.5,0.27
0.83,0.5,0.27
0.83,0.5,0.28
0.83,0.5,0.28
0.83,0.5,0.28
0.83,0.5,0.28
0.85,0.5,0.3
0.86,0.5,0.31
0.86,0.5,0.32
0.87,0.5,0.32
0.86,0.5,0.31
0.83,0.5,0.31
0.81,0.5,0.27
0.85,0.5,0.24
0.89,0.53,0.24
0.88,0.55,0.27
0.86,0.54,0.33
0.87,0.54,0.38
0.89,0.54,0.45
0.91,0.54,0.51
0.94,0.54,0.54
0.94,0.54,0.53
0.93,0.54,0.51
0.91,0.55,0.47
0.9,0.56,0.44
0.85,0.57,0.43
0.82,0.57,0.41
0.82,0.57,0.37
0.82,0.57,0.34
0.82,0.58,0.32
0.8,0.59,0.3
0.76,0.61,0.28
0.72,0.62,0.25
0.66,0.64,0.24
0.64,0.65,0.22
0.62,0.65,0.2
0.6,0.65,0.17
0.59,0.65,0.16
0.58,0.66,0.14
0.57,0.67,0.12
0.57,0.67,0.09
0.57,0.68,0.06
0.57,0.68,0.02
0.57,0.69,-0.03
0.56,0.71,-0.09
0.55,0.72,-0.14
0.54,0.72,-0.14
0.54,0.72,-0.13
0.52,0.72,-0.12
0.47,0.71,-0.1
0.42,0.71,-0.08
0.39,0.71,-0.05
0.38,0.69,0
0.38,0.66,0.05
0.34,0.61,0.2
0.33,0.52,0.65
0.28,0.26,1.32
0.82,0.24,1.53
1.39,0.59,1.19
1.15,0.49,0.62
1.23,0.5,0.14
1.09,0.67,-0.06
0.91,0.69,-0.11
0.75,0.67,-0.03
0.58,0.69,0.12
0.5,0.69,0.26
0.49,0.69,0.33
0.51,0.68,0.32
0.57,0.68,0.27
0.63,0.71,0.24
0.66,0.72,0.24
0.68,0.69,0.24
0.71,0.69,0.25
0.72,0.68,0.27
0.72,0.68,0.29
0.72,0.68,0.3
0.71,0.68,0.3
0.69,0.68,0.3
0.68,0.68,0.29
0.67,0.69,0.28
0.66,0.69,0.27
0.65,0.69,0.26
0.63,0.69,0.25
0.62,0.7,0.24
0.6,0.7,0.24
0.59,0.69,0.25
0.6,0.69,0.25
0.62,0.69,0.27
0.64,0.69,0.28
0.66,0.69,0.29
0.67,0.69,0.29
0.68,0.7,0.29
0.67,0.7,0.28
0.67,0.69,0.27
0.67,0.67,0.26
0.67,0.66,0.25
0.67,0.65,0.25
0.66,0.63,0.26
0.66,0.63,0.27
0.65,0.63,0.27
0.65,0.63,0.27
0.66,0.63,0.27
0.67,0.64,0.27
0.67,0.64,0.27
0.7,0.65,0.24
0.73,0.66,0.22
0.73,0.68,0.21
0.71,0.7,0.21
0.72,0.72,0.21
0.73,0.76,0.2
0.73,0.79,0.19
0.73,0.78,0.2
0.72,0.76,0.21
0.7,0.74,0.24
0.7,0.72,0.27
0.68,0.71,0.27
0.65,0.71,0.26
0.6,0.72,0.23
0.53,0.72,0.21
0.51,0.72,0.22
0.53,0.73,0.26
0.55,0.73,0.33
0.59,0.72,0.38
0.62,0.71,0.4
0.63,0.7,0.39
0.62,0.7,0.37
0.63,0.71,0.31
0.64,0.73,0.26
0.64,0.75,0.22
0.65,0.76,0.19
0.67,0.75,0.18
0.67,0.75,0.19
0.66,0.74,0.21
0.64,0.73,0.22
0.62,0.71,0.23
0.59,0.71,0.24
0.6,0.71,0.26
0.63,0.72,0.23
0.67,0.74,0.17
0.65,0.76,0.11
0.65,0.76,0.07
0.64,0.76,0.05
0.58,0.74,0.06
0.54,0.72,0.06
0.53,0.73,0.06
0.52,0.74,0.05
0.52,0.74,0.06
0.53,0.73,0.1
0.53,0.72,0.17
0.58,0.73,0.34
0.51,0.65,0.58
0.77,0.41,0.49
1.08,0.53,0.34
0.98,0.79,0.35
0.96,0.7,0.24
0.93,0.63,0.15
0.82,0.68,0.07
0.73,0.71,0.01
0.7,0.7,-0.02
0.71,0.71,-0.01
0.73,0.71,0.02
0.72,0.69,0.07
0.7,0.67,0.16
0.69,0.67,0.17
0.73,0.68,0.16
0.73,0.68,0.14
0.73,0.68,0.13
0.74,0.68,0.12
0.74,0.68,0.13
0.74,0.68,0.14
0.74,0.67,0.15
0.73,0.67,0.15
0.73,0.67,0.15
0.74,0.68,0.14
0.73,0.68,0.14
0.73,0.68,0.13
0.73,0.68,0.13
0.72,0.68,0.13
0.72,0.68,0.14
0.72,0.68,0.14
0.71,0.68,0.15
0.71,0.68,0.15
0.71,0.68,0.15
0.7,0.69,0.14
0.68,0.68,0.12
0.67,0.68,0.11
0.69,0.69,0.12
0.72,0.69,0.13
0.73,0.68,0.15
0.72,0.68,0.14
0.72,0.68,0.13
0.74,0.69,0.12
0.74,0.7,0.13
0.72,0.69,0.14
0.7,0.68,0.16
0.69,0.68,0.18
0.68,0.69,0.21
0.66,0.68,0.22
0.67,0.67,0.2
0.7,0.68,0.2
0.71,0.7,0.22
0.7,0.69,0.24
0.69,0.68,0.25
0.68,0.67,0.26
0.68,0.68,0.28
0.69,0.68,0.29
0.7,0.69,0.27
0.7,0.69,0.26
0.69,0.69,0.26
0.7,0.68,0.26
0.7,0.68,0.23
0.7,0.69,0.22
0.69,0.69,0.23
0.69,0.69,0.24
0.7,0.69,0.24
0.7,0.7,0.22
0.71,0.68,0.23
0.73,0.69,0.25
0.72,0.7,0.21
0.68,0.7,0.15
0.65,0.71,0.12
0.61,0.71,0.12
0.56,0.72,0.14
0.53,0.72,0.15
0.52,0.73,0.12
0.54,0.74,0.11
0.57,0.74,0.12
0.57,0.73,0.16
0.66,0.71,0.31
0.59,0.66,0.57
0.49,0.53,0.49
0.78,0.47,0.27
0.96,0.58,0.28
0.93,0.7,0.29
0.95,0.72,0.27
0.91,0.68,0.21
0.8,0.66,0.14
0.7,0.68,0.11
0.65,0.71,0.09
0.61,0.71,0.08
0.62,0.69,0.1
0.65,0.68,0.2
0.67,0.67,0.23
0.68,0.66,0.25
0.7,0.66,0.24
0.73,0.67,0.22
0.76,0.68,0.2
0.75,0.68,0.19
0.74,0.68,0.2
0.73,0.67,0.21
0.72,0.67,0.22
0.7,0.67,0.22
0.69,0.67,0.23
0.69,0.68,0.22
0.69,0.68,0.21
0.68,0.68,0.21
0.68,0.68,0.21
0.68,0.68,0.21
0.68,0.68,0.21
0.68,0.68,0.22
0.69,0.67,0.22
0.7,0.67,0.21
0.7,0.67,0.21
0.71,0.68,0.21
0.71,0.68,0.2
0.71,0.68,0.21
0.71,0.68,0.21
0.7,0.68,0.22
0.7,0.67,0.22
0.69,0.67,0.22
0.69,0.68,0.22
0.7,0.68,0.22
0.69,0.68,0.22
0.69,0.68,0.21
0.7,0.67,0.21
0.71,0.68,0.21
0.71,0.68,0.21
0.7,0.68,0.21
0.7,0.68,0.22
0.69,0.68,0.22
0.7,0.68,0.22
0.7,0.68,0.22
0.7,0.68,0.22
0.7,0.68,0.22
0.69,0.67,0.22
0.69,0.67,0.22
0.7,0.67,0.21
0.7,0.67,0.21
0.69,0.68,0.22
0.7,0.68,0.22
0.69,0.68,0.23
0.7,0.68,0.22
0.7,0.68,0.22
0.69,0.67,0.22
0.69,0.68,0.22
0.7,0.68,0.22
0.7,0.68,0.21
0.7,0.68,0.21
0.71,0.68,0.22
0.7,0.68,0.22
0.7,0.68,0.22
0.7,0.67,0.22
0.71,0.67,0.23
0.72,0.67,0.23
0.71,0.67,0.23
0.71,0.67,0.23
0.71,0.68,0.23
0.7,0.67,0.23
0.7,0.67,0.23
0.7,0.67,0.23
0.69,0.67,0.23
0.69,0.67,0.23
0.68,0.68,0.23
0.68,0.68,0.23
0.68,0.67,0.24
0.68,0.67,0.24
0.68,0.67,0.24
0.68,0.67,0.23
0.69,0.67,0.23
0.7,0.67,0.23
0.7,0.67,0.23
0.7,0.67,0.23
0.7,0.67,0.23
0.7,0.67,0.23
0.7,0.67,0.23
0.7,0.67,0.23
0.71,0.67,0.23
0.7,0.67,0.23
0.7,0.67,0.24
0.7,0.67,0.24
0.69,0.67,0.24
0.69,0.67,0.24
0.69,0.67,0.24
0.69,0.67,0.24
0.7,0.67,0.23
0.71,0.67,0.23
0.72,0.67,0.23
0.71,0.67,0.23
0.7,0.67,0.24
0.7,0.66,0.24
0.69,0.66,0.24
0.69,0.66,0.24
0.7,0.66,0.23
0.71,0.66,0.23
0.73,0.66,0.23
0.73,0.66,0.24
0.71,0.66,0.24
0.7,0.66,0.24
0.71,0.66,0.24
0.72,0.66,0.23
0.71,0.67,0.23
0.71,0.66,0.23
0.71,0.66,0.23
0.72,0.66,0.23
0.71,0.66,0.23
0.71,0.66,0.24
0.7,0.66,0.24
0.71,0.66,0.24
0.71,0.66,0.24
0.71,0.66,0.24
0.72,0.66,0.24
0.71,0.66,0.24
0.71,0.65,0.24
0.71,0.65,0.24
0.72,0.65,0.24
0.72,0.66,0.24
0.72,0.66,0.24
0.72,0.66,0.24
0.72,0.65,0.24
0.71,0.65,0.25
0.71,0.65,0.25
0.7,0.65,0.25
0.7,0.65,0.24
0.71,0.66,0.24
0.71,0.66,0.24
0.71,0.66,0.25
0.71,0.65,0.24
0.71,0.65,0.24
0.7,0.65,0.24
0.7,0.66,0.24
0.71,0.66,0.24
0.72,0.65,0.25
0.71,0.66,0.25
0.71,0.66,0.25
0.71,0.65,0.25
0.71,0.65,0.25
0.71,0.65,0.24
0.71,0.65,0.24
0.72,0.66,0.24
0.71,0.65,0.25
0.71,0.65,0.25
0.71,0.65,0.25
0.7,0.65,0.25
0.7,0.65,0.25
0.71,0.65,0.25
0.71,0.65,0.25
0.71,0.66,0.25
0.7,0.66,0.25
0.7,0.66,0.24
0.72,0.65,0.24
0.72,0.65,0.24
0.71,0.65,0.24
0.71,0.66,0.24
0.72,0.66,0.24
0.72,0.65,0.24
0.72,0.65,0.24
0.72,0.65,0.25
0.72,0.65,0.25
0.71,0.65,0.25
0.71,0.65,0.25
0.71,0.65,0.25
0.71,0.65,0.24
0.71,0.66,0.24
0.71,0.65,0.25
0.71,0.65,0.25
0.71,0.65,0.25
0.71,0.65,0.24
0.71,0.66,0.24
0.71,0.66,0.24
0.71,0.65,0.24
0.7,0.65,0.24
0.7,0.65,0.24
0.71,0.66,0.24
0.71,0.65,0.24
0.72,0.65,0.24
0.71,0.65,0.24
0.72,0.66,0.24
0.72,0.66,0.24
0.71,0.66,0.25
0.71,0.65,0.25
0.71,0.65,0.24
0.72,0.65,0.24
0.71,0.65,0.25
0.71,0.65,0.25
0.71,0.65,0.25
0.71,0.65,0.25
0.71,0.65,0.25
0.71,0.65,0.25
0.71,0.65,0.25
0.71,0.65,0.24
0.71,0.65,0.25
0.71,0.65,0.25
0.72,0.65,0.24
0.72,0.65,0.25
0.72,0.65,0.25
0.72,0.65,0.25
0.72,0.65,0.25
0.72,0.65,0.25
0.71,0.65,0.25
0.71,0.65,0.25
0.71,0.65,0.25
0.71,0.65,0.25
0.71,0.65,0.25
0.71,0.65,0.24
0.71,0.65,0.24
0.71,0.65,0.23
0.72,0.65,0.23
0.71,0.65,0.24
0.7,0.65,0.24
0.7,0.65,0.23
0.73,0.65,0.23
0.74,0.65,0.23
0.71,0.65,0.25
0.71,0.65,0.26
0.71,0.65,0.26
0.69,0.65,0.24
0.68,0.65,0.22
0.69,0.65,0.2
0.68,0.66,0.2
0.69,0.66,0.21
0.7,0.67,0.22
0.7,0.67,0.25
0.68,0.66,0.27
0.68,0.65,0.28
0.71,0.65,0.29
0.74,0.65,0.29
0.75,0.64,0.3
0.76,0.64,0.31
0.73,0.64,0.31
0.7,0.64,0.3
0.69,0.64,0.31
0.7,0.65,0.32
0.7,0.65,0.33
0.72,0.65,0.34
0.71,0.64,0.34
0.7,0.64,0.34
0.72,0.65,0.33
0.73,0.65,0.31
0.7,0.66,0.3
0.67,0.66,0.3
0.67,0.66,0.31
0.67,0.66,0.32
0.67,0.66,0.33
0.68,0.66,0.39
0.67,0.63,0.44
0.72,0.62,0.48
0.76,0.64,0.48
0.75,0.65,0.41
0.75,0.66,0.33
0.72,0.67,0.23
0.66,0.68,0.13
0.62,0.7,0.04
0.57,0.73,-0.04
0.51,0.64,0.05
0.4,0.67,0.16
0.74,0.69,0.32
0.87,0.61,0.43
0.86,0.61,0.43
0.85,0.63,0.38
0.82,0.64,0.29
0.77,0.67,0.21
0.73,0.7,0.14
0.71,0.69,0.1
0.69,0.68,0.11
0.69,0.66,0.14
0.7,0.66,0.19
0.7,0.66,0.22
0.69,0.66,0.25
0.7,0.65,0.26
0.7,0.65,0.26
0.71,0.66,0.25
0.73,0.66,0.24
0.73,0.66,0.24
0.73,0.66,0.23
0.73,0.66,0.24
0.72,0.66,0.24
0.71,0.66,0.24
0.7,0.66,0.24
0.7,0.65,0.24
0.7,0.66,0.24
0.7,0.66,0.24
0.71,0.65,0.24
0.71,0.65,0.23
0.7,0.66,0.24
0.7,0.66,0.24
0.71,0.66,0.24
0.7,0.66,0.24
0.7,0.66,0.23
0.71,0.66,0.23
0.71,0.66,0.24
0.71,0.66,0.24
0.71,0.66,0.25
0.71,0.66,0.25
0.72,0.65,0.24
0.72,0.65,0.24
0.72,0.65,0.25
0.71,0.66,0.25
0.7,0.66,0.25
0.69,0.66,0.25
0.69,0.66,0.25
0.69,0.66,0.25
0.69,0.66,0.25
0.7,0.66,0.25
0.71,0.66,0.25
0.72,0.66,0.25
0.72,0.65,0.25
0.72,0.65,0.26
0.71,0.65,0.26
0.71,0.65,0.26
0.71,0.65,0.26
0.71,0.66,0.26
0.7,0.65,0.26
0.71,0.65,0.26
0.71,0.66,0.26
0.71,0.66,0.26
0.7,0.66,0.26
0.7,0.66,0.26
0.7,0.65,0.26
0.7,0.65,0.26
0.7,0.66,0.26
0.71,0.65,0.26
0.71,0.65,0.26
0.71,0.65,0.26
0.71,0.65,0.26
0.7,0.65,0.27
0.71,0.65,0.26
0.71,0.65,0.26
0.7,0.65,0.26
0.71,0.65,0.27
0.71,0.65,0.27
0.71,0.65,0.27
0.71,0.65,0.27
0.72,0.65,0.27
0.72,0.65,0.27
0.72,0.65,0.27
0.7,0.65,0.27
0.7,0.65,0.27
0.7,0.65,0.27
0.7,0.65,0.27
0.7,0.65,0.27
0.7,0.65,0.27
0.7,0.65,0.27
0.7,0.65,0.27
0.7,0.65,0.27
0.71,0.65,0.27
0.71,0.65,0.27
0.7,0.65,0.27
0.71,0.65,0.27
0.71,0.65,0.27
0.71,0.65,0.27
0.71,0.65,0.27
0.71,0.65,0.27
0.71,0.65,0.27
0.71,0.65,0.28
0.7,0.65,0.28
0.7,0.65,0.28
0.7,0.65,0.28
0.7,0.65,0.28
0.7,0.65,0.28
0.71,0.65,0.28
0.71,0.65,0.28
0.71,0.65,0.28
0.7,0.65,0.28
0.7,0.65,0.29
0.7,0.65,0.29
0.7,0.65,0.28
0.7,0.65,0.28
0.7,0.65,0.28
0.7,0.65,0.28
0.7,0.65,0.29
0.69,0.65,0.3
0.68,0.65,0.3
0.69,0.65,0.3
0.7,0.65,0.29
0.7,0.65,0.29
0.7,0.65,0.29
0.7,0.65,0.29
0.7,0.65,0.29
0.69,0.65,0.3
0.69,0.65,0.29
0.69,0.65,0.29
0.68,0.65,0.29
0.69,0.65,0.29
0.7,0.65,0.3
0.7,0.65,0.31
0.68,0.65,0.31
0.68,0.65,0.31
0.68,0.65,0.3
0.69,0.65,0.3
0.69,0.65,0.3
0.69,0.65,0.31
0.7,0.65,0.31
0.69,0.65,0.32
0.68,0.65,0.32
0.67,0.65,0.32
0.67,0.65,0.32
0.67,0.65,0.32
0.67,0.66,0.3
0.67,0.65,0.3
0.68,0.65,0.3
0.69,0.65,0.32
0.7,0.65,0.34
0.69,0.65,0.35
0.68,0.65,0.35
0.67,0.65,0.35
0.67,0.65,0.34
0.67,0.65,0.34
0.67,0.65,0.33
0.67,0.65,0.33
0.67,0.65,0.33
0.67,0.65,0.33
0.68,0.65,0.33
0.68,0.65,0.34
0.68,0.65,0.34
0.68,0.65,0.34
0.68,0.65,0.34
0.67,0.65,0.34
0.68,0.65,0.34
0.68,0.65,0.34
0.68,0.65,0.34
0.68,0.65,0.33
0.68,0.65,0.33
0.67,0.65,0.33
0.68,0.65,0.34
0.68,0.65,0.33
0.68,0.65,0.33
0.68,0.65,0.33
0.68,0.65,0.33
0.67,0.65,0.33
0.68,0.65,0.33
0.69,0.65,0.32
0.69,0.65,0.32
0.69,0.65,0.32
0.69,0.65,0.32
0.68,0.65,0.32
0.68,0.65,0.32
0.68,0.65,0.32
0.68,0.65,0.32
0.68,0.65,0.32
0.69,0.65,0.31
0.69,0.65,0.31
0.69,0.65,0.31
0.69,0.65,0.31
0.69,0.65,0.31
0.69,0.65,0.31
0.68,0.65,0.31
0.68,0.65,0.31
0.69,0.65,0.3
0.69,0.65,0.3
0.69,0.65,0.31
0.7,0.65,0.31
0.7,0.65,0.31
0.69,0.64,0.3
0.7,0.65,0.3
0.69,0.65,0.29
0.69,0.65,0.3
0.7,0.65,0.3
0.71,0.65,0.29
0.71,0.65,0.3
0.69,0.65,0.3
0.69,0.65,0.3
0.68,0.65,0.3
0.68,0.65,0.29
0.69,0.66,0.29
0.69,0.65,0.29
0.68,0.66,0.3
0.68,0.65,0.3
0.68,0.65,0.3
0.68,0.65,0.3
0.69,0.66,0.3
0.69,0.65,0.3
0.69,0.65,0.3
0.69,0.65,0.31
0.69,0.65,0.31
0.69,0.65,0.3
0.69,0.65,0.3
0.69,0.65,0.3
0.69,0.66,0.3
0.69,0.66,0.31
0.69,0.65,0.31
0.69,0.65,0.3
0.69,0.65,0.3
0.68,0.65,0.3
0.68,0.65,0.3
0.68,0.65,0.31
0.68,0.65,0.31
0.68,0.65,0.31
0.68,0.66,0.31
0.68,0.65,0.31
0.68,0.66,0.31
0.68,0.66,0.31
0.68,0.65,0.31
0.68,0.65,0.31
0.68,0.66,0.31
0.69,0.65,0.31
0.69,0.65,0.31
0.68,0.65,0.31
0.68,0.65,0.31
0.68,0.65,0.32
0.68,0.65,0.32
0.68,0.65,0.31
0.68,0.65,0.31
0.68,0.65,0.31
0.68,0.65,0.31
0.68,0.65,0.31
0.68,0.65,0.32
0.69,0.65,0.32
0.69,0.65,0.32
0.69,0.65,0.32
0.69,0.65,0.32
0.68,0.65,0.32
0.68,0.65,0.32
0.67,0.65,0.32
0.68,0.65,0.33
0.68,0.65,0.32
0.69,0.65,0.32
0.69,0.65,0.32
0.68,0.65,0.32
0.68,0.65,0.32
0.67,0.65,0.33
0.68,0.65,0.33
0.68,0.65,0.33
0.68,0.65,0.33
0.69,0.65,0.33
0.69,0.65,0.32
0.69,0.65,0.32
0.69,0.65,0.33
0.69,0.65,0.33
0.68,0.65,0.33
0.68,0.65,0.33
0.68,0.65,0.32
0.67,0.65,0.32
0.67,0.65,0.32
0.67,0.65,0.32
0.68,0.65,0.32
0.68,0.65,0.32
0.68,0.65,0.32
0.68,0.65,0.32
0.68,0.64,0.33
0.68,0.64,0.33
0.68,0.65,0.34
0.7,0.64,0.33
0.69,0.65,0.33
0.69,0.65,0.33
0.68,0.65,0.32
0.67,0.65,0.32
0.67,0.64,0.32
0.67,0.64,0.32
0.68,0.64,0.32
0.68,0.65,0.31
0.69,0.65,0.31
0.7,0.64,0.32
0.71,0.64,0.32
0.71,0.64,0.32
0.71,0.64,0.31
0.71,0.64,0.31
0.7,0.64,0.31
0.7,0.65,0.3
0.69,0.65,0.31
0.69,0.64,0.31
0.69,0.64,0.31
0.7,0.64,0.3
0.7,0.65,0.3
0.69,0.65,0.3
0.69,0.64,0.29
0.7,0.64,0.29
0.7,0.64,0.3
0.7,0.63,0.32
0.7,0.64,0.32
0.7,0.64,0.32
0.7,0.64,0.32
0.7,0.64,0.32
0.7,0.64,0.31
0.7,0.64,0.31
0.7,0.64,0.3
0.71,0.64,0.3
0.7,0.64,0.31
0.7,0.64,0.31
0.7,0.64,0.31
0.7,0.64,0.32
0.7,0.64,0.32
0.7,0.64,0.31
0.7,0.64,0.31
0.71,0.64,0.3
0.71,0.64,0.3
0.7,0.64,0.31
0.7,0.64,0.31
0.69,0.64,0.31
0.69,0.64,0.31
0.7,0.64,0.31
0.7,0.64,0.31
0.7,0.64,0.31
0.7,0.64,0.3
0.71,0.64,0.3
0.7,0.64,0.29
0.71,0.64,0.29
0.72,0.64,0.3
0.72,0.64,0.3
0.72,0.64,0.31
0.72,0.64,0.31
0.71,0.64,0.32
0.7,0.64,0.31
0.7,0.64,0.3
0.69,0.64,0.3
0.68,0.64,0.3
0.68,0.64,0.31
0.69,0.64,0.31
0.7,0.64,0.32
0.7,0.64,0.31
0.7,0.64,0.31
0.7,0.64,0.31
0.69,0.64,0.32
0.69,0.64,0.32
0.69,0.64,0.31
0.69,0.64,0.31
0.68,0.64,0.31
0.68,0.64,0.31
0.68,0.64,0.31
0.68,0.64,0.31
0.69,0.64,0.33
0.69,0.64,0.34
0.69,0.64,0.35
0.69,0.64,0.34
0.68,0.64,0.33
0.68,0.64,0.33
0.69,0.64,0.32
0.69,0.64,0.33
0.69,0.64,0.33
0.68,0.64,0.33
0.68,0.64,0.34
0.68,0.64,0.34
0.68,0.64,0.35
0.68,0.64,0.35
0.68,0.64,0.34
0.68,0.64,0.33
0.67,0.64,0.32
0.68,0.65,0.33
0.69,0.65,0.34
0.69,0.64,0.35
0.69,0.64,0.35
0.69,0.64,0.35
0.69,0.64,0.35
0.68,0.64,0.34
0.68,0.64,0.34
0.68,0.65,0.33
0.69,0.65,0.34
0.69,0.64,0.34
0.69,0.64,0.35
0.69,0.64,0.34
0.68,0.64,0.34
0.67,0.64,0.34
0.68,0.64,0.34
0.68,0.64,0.34
0.68,0.65,0.34
0.68,0.64,0.35
0.68,0.64,0.35
0.68,0.65,0.35
0.67,0.64,0.35
0.66,0.64,0.35
0.67,0.65,0.35
0.68,0.65,0.35
0.69,0.64,0.35
0.68,0.64,0.35
0.67,0.64,0.34
0.67,0.64,0.34
0.68,0.65,0.33
0.68,0.64,0.34
0.69,0.64,0.34
0.69,0.64,0.34
0.69,0.64,0.34
0.68,0.64,0.34
0.68,0.65,0.34
0.67,0.64,0.33
0.67,0.65,0.34
0.67,0.65,0.34
0.68,0.65,0.34
0.68,0.64,0.34
0.68,0.64,0.35
0.68,0.64,0.35
0.68,0.64,0.34
0.68,0.65,0.33
0.68,0.64,0.33
0.68,0.64,0.34
0.68,0.64,0.34
0.68,0.64,0.35
0.68,0.64,0.35
0.68,0.64,0.34
0.68,0.64,0.34
0.68,0.65,0.34
0.68,0.65,0.34
0.69,0.64,0.34
0.68,0.64,0.34
0.68,0.64,0.33
0.68,0.65,0.33
0.68,0.65,0.33
0.68,0.65,0.33
0.68,0.64,0.34
0.68,0.64,0.34
0.68,0.64,0.35
0.68,0.64,0.34
0.68,0.64,0.34
0.68,0.64,0.34
0.68,0.64,0.34
0.68,0.64,0.34
0.68,0.64,0.34
0.68,0.64,0.34
0.68,0.64,0.34
0.68,0.64,0.34
0.68,0.64,0.34
0.68,0.64,0.34
0.68,0.64,0.34
0.69,0.64,0.34
0.68,0.65,0.34
0.68,0.65,0.34
0.69,0.64,0.34
0.69,0.64,0.34
0.68,0.64,0.34
0.68,0.64,0.34
0.68,0.64,0.34
0.68,0.64,0.34
0.69,0.65,0.34
0.68,0.64,0.34
0.68,0.64,0.34
0.69,0.64,0.34
0.69,0.64,0.34
0.68,0.64,0.34
0.68,0.65,0.34
0.68,0.64,0.34
0.68,0.64,0.34
0.69,0.64,0.34
0.68,0.64,0.34
0.68,0.64,0.34
0.68,0.65,0.34
0.68,0.65,0.34
0.68,0.64,0.34
0.68,0.64,0.33
0.68,0.64,0.33
0.69,0.64,0.33
0.69,0.64,0.33
0.69,0.65,0.33
0.68,0.65,0.33
0.68,0.65,0.34
0.68,0.64,0.34
0.68,0.65,0.34
0.68,0.65,0.34
0.68,0.65,0.34
0.68,0.65,0.34
0.68,0.65,0.34
0.68,0.65,0.33
0.69,0.65,0.33
0.69,0.65,0.33
0.69,0.64,0.33
0.69,0.64,0.33
0.69,0.65,0.33
0.68,0.65,0.33
0.68,0.65,0.33
0.68,0.65,0.33
0.68,0.65,0.33
0.67,0.65,0.34
0.68,0.65,0.33
0.68,0.65,0.33
0.68,0.65,0.33
0.68,0.65,0.33
0.68,0.65,0.33
0.68,0.65,0.34
0.68,0.65,0.34
0.68,0.65,0.33
0.67,0.65,0.33
0.67,0.65,0.33
0.67,0.65,0.33
0.68,0.65,0.33
0.68,0.65,0.33
0.69,0.65,0.33
0.69,0.65,0.33
0.69,0.65,0.33
0.69,0.65,0.33
0.68,0.65,0.33
0.68,0.65,0.33
0.68,0.65,0.33
0.68,0.65,0.33
0.68,0.65,0.33
0.68,0.65,0.33
0.68,0.65,0.33
0.68,0.65,0.33
0.68,0.65,0.33
0.68,0.65,0.33
0.68,0.65,0.33
0.68,0.65,0.33
0.68,0.65,0.33
0.68,0.65,0.32
0.68,0.65,0.32
0.68,0.65,0.32
0.68,0.65,0.33
0.68,0.65,0.33
0.68,0.65,0.33
0.69,0.65,0.33
0.69,0.65,0.32
0.69,0.65,0.33
0.68,0.65,0.33
0.68,0.65,0.33
0.67,0.65,0.33
0.67,0.65,0.33
0.68,0.65,0.33
0.68,0.65,0.32
0.69,0.65,0.32
0.68,0.65,0.32
0.68,0.65,0.32
0.68,0.65,0.32
0.68,0.65,0.32
0.68,0.65,0.32
0.68,0.65,0.32
0.68,0.66,0.32
0.68,0.65,0.32
0.68,0.65,0.32
0.68,0.65,0.32
0.68,0.65,0.32
0.68,0.65,0.32
0.68,0.65,0.32
0.68,0.65,0.32
0.68,0.66,0.32
0.68,0.66,0.32
0.67,0.65,0.32
0.67,0.65,0.32
0.68,0.65,0.32
0.68,0.65,0.32
0.69,0.65,0.32
0.68,0.65,0.32
0.68,0.65,0.32
0.68,0.65,0.32
0.68,0.65,0.32
0.68,0.65,0.32
0.68,0.66,0.32
0.68,0.66,0.32
0.67,0.65,0.32
0.67,0.66,0.31
0.67,0.66,0.32
0.68,0.65,0.32
0.67,0.65,0.32
0.68,0.66,0.31
0.68,0.65,0.31
0.68,0.65,0.31
0.69,0.66,0.32
0.69,0.66,0.32
0.68,0.65,0.31
0.68,0.65,0.31
0.67,0.66,0.3
0.68,0.66,0.3
0.68,0.66,0.31
0.68,0.65,0.31
0.68,0.65,0.31
0.68,0.65,0.31
0.69,0.65,0.31
0.68,0.65,0.31
0.68,0.65,0.31
0.69,0.66,0.31
0.69,0.65,0.31
0.68,0.66,0.32
0.68,0.66,0.32
0.68,0.66,0.31
0.68,0.65,0.31
0.68,0.65,0.32
0.68,0.65,0.31
0.68,0.65,0.31
0.69,0.65,0.31
0.69,0.65,0.32
0.69,0.65,0.32
0.69,0.65,0.31
0.69,0.65,0.31
0.69,0.65,0.31
0.68,0.65,0.31
0.68,0.65,0.31
0.69,0.65,0.31
0.69,0.65,0.31
0.69,0.65,0.32
0.69,0.65,0.32
0.68,0.65,0.31
0.68,0.65,0.32
0.68,0.65,0.32
0.69,0.65,0.32
0.69,0.65,0.32
0.69,0.65,0.32
0.69,0.65,0.32
0.69,0.65,0.32
0.69,0.65,0.32
0.68,0.65,0.32
0.68,0.65,0.32
0.68,0.65,0.32
0.68,0.65,0.32
0.68,0.65,0.32
0.68,0.65,0.32
0.68,0.65,0.31
0.69,0.65,0.31
0.69,0.64,0.31
0.69,0.65,0.32
0.69,0.65,0.32
0.69,0.65,0.32
0.69,0.65,0.32
0.68,0.65,0.32
0.68,0.65,0.32
0.68,0.65,0.32
0.68,0.65,0.32
0.69,0.65,0.32
0.69,0.65,0.31
0.69,0.65,0.32
0.69,0.65,0.32
0.69,0.65,0.32
0.69,0.65,0.32
0.69,0.65,0.32
0.69,0.65,0.32
0.69,0.65,0.32
0.69,0.65,0.32
0.69,0.65,0.32
0.69,0.65,0.32
0.69,0.65,0.32
0.69,0.65,0.32
0.69,0.65,0.32
0.68,0.65,0.31
0.69,0.65,0.31
0.69,0.65,0.31
0.69,0.65,0.32
0.69,0.65,0.33
0.69,0.64,0.33
0.69,0.64,0.32
0.69,0.64,0.32
0.69,0.65,0.32
0.69,0.65,0.32
0.69,0.65,0.32
0.69,0.65,0.31
0.68,0.64,0.32
0.69,0.64,0.32
0.69,0.65,0.32
0.69,0.65,0.32
0.69,0.64,0.32
0.69,0.65,0.32
0.7,0.65,0.32
0.7,0.65,0.32
0.7,0.64,0.32
0.7,0.64,0.32
0.7,0.64,0.32
0.69,0.65,0.32
0.69,0.65,0.32
0.69,0.65,0.32
0.68,0.65,0.32
0.68,0.65,0.32
0.69,0.64,0.32
0.69,0.64,0.32
0.7,0.64,0.32
0.7,0.64,0.32
0.7,0.64,0.32
0.69,0.64,0.32
0.69,0.64,0.32
0.69,0.64,0.32
0.69,0.64,0.32
0.69,0.64,0.32
0.69,0.64,0.32
0.7,0.64,0.32
0.7,0.64,0.32
0.7,0.64,0.32
0.69,0.64,0.32
0.69,0.64,0.32
0.69,0.64,0.32
0.69,0.64,0.32
0.69,0.64,0.32
0.69,0.64,0.32
0.7,0.64,0.32
0.7,0.64,0.32
0.69,0.64,0.32
0.7,0.64,0.32
0.7,0.64,0.32
0.69,0.64,0.32
0.69,0.64,0.32
0.69,0.64,0.32
0.7,0.64,0.32
0.7,0.64,0.32
0.69,0.64,0.32
0.69,0.64,0.32
0.7,0.64,0.32
0.69,0.64,0.32
0.69,0.64,0.32
0.69,0.64,0.32
0.69,0.64,0.32
0.69,0.64,0.32
0.69,0.64,0.32
0.69,0.64,0.32
0.69,0.64,0.32
0.69,0.64,0.32
0.7,0.64,0.32
0.69,0.64,0.32
0.69,0.64,0.32
0.7,0.64,0.32
0.7,0.64,0.32
0.7,0.64,0.32
0.69,0.64,0.32
0.69,0.64,0.32
0.69,0.64,0.32
0.68,0.64,0.32
0.69,0.64,0.31
0.69,0.64,0.32
0.69,0.64,0.32
0.7,0.64,0.32
0.7,0.64,0.33
0.7,0.64,0.32
0.7,0.64,0.32
0.69,0.64,0.32
0.69,0.64,0.32
0.69,0.64,0.32
0.69,0.64,0.31
0.69,0.64,0.32
0.69,0.64,0.32
0.69,0.64,0.32
0.69,0.64,0.32
0.69,0.64,0.32
0.69,0.64,0.32
0.69,0.64,0.33
0.7,0.64,0.33
0.7,0.64,0.32
0.7,0.64,0.32
0.7,0.64,0.32
0.7,0.64,0.32
0.7,0.64,0.32
0.69,0.64,0.32
0.68,0.64,0.32
0.68,0.64,0.32
0.69,0.64,0.32
0.69,0.64,0.32
0.7,0.64,0.32
0.7,0.64,0.32
0.7,0.64,0.31
0.7,0.64,0.31
0.7,0.64,0.32
0.69,0.64,0.32
0.69,0.64,0.32
0.69,0.64,0.32
0.69,0.64,0.32
0.69,0.64,0.32
0.69,0.64,0.32
0.7,0.64,0.32
0.69,0.64,0.32
0.7,0.64,0.32
0.7,0.64,0.32
0.7,0.64,0.32
0.69,0.64,0.32
0.69,0.64,0.32
0.69,0.64,0.32
0.69,0.64,0.32
0.69,0.64,0.32
0.69,0.64,0.32
0.7,0.64,0.32
0.7,0.64,0.32
0.69,0.64,0.32
0.69,0.64,0.32
0.69,0.64,0.32
0.69,0.64,0.32
0.69,0.64,0.32
0.7,0.64,0.32
0.7,0.64,0.32
0.69,0.64,0.32
0.69,0.64,0.32
0.69,0.64,0.32
0.7,0.64,0.32
0.7,0.64,0.32
0.7,0.64,0.32
0.7,0.64,0.32
0.69,0.64,0.32
0.69,0.64,0.32
0.7,0.64,0.32
0.7,0.64,0.32
0.7,0.64,0.32
0.69,0.64,0.32
0.7,0.64,0.31
0.7,0.64,0.31
0.69,0.64,0.32
0.7,0.64,0.32
0.7,0.64,0.32
0.69,0.64,0.32
0.7,0.64,0.31
0.7,0.64,0.31
0.69,0.64,0.31
0.7,0.64,0.31
0.7,0.64,0.32
0.7,0.64,0.32
0.7,0.64,0.32
0.7,0.64,0.31
0.7,0.64,0.31
0.7,0.64,0.31
0.7,0.64,0.31
0.7,0.64,0.31
0.7,0.64,0.31
0.7,0.64,0.31
0.69,0.64,0.32
0.69,0.64,0.31
0.71,0.64,0.31
0.71,0.64,0.32
0.7,0.64,0.32
0.71,0.64,0.32
0.7,0.64,0.32
0.7,0.63,0.32
0.7,0.63,0.32
0.69,0.64,0.32
0.69,0.64,0.31
0.7,0.64,0.31
0.7,0.64,0.31
0.71,0.64,0.31
0.7,0.64,0.31
0.7,0.64,0.31
0.7,0.64,0.31
0.7,0.63,0.31
0.7,0.64,0.31
0.7,0.64,0.31
0.71,0.64,0.31
0.71,0.64,0.31
0.71,0.64,0.31
0.7,0.64,0.31
0.7,0.64,0.31
0.69,0.64,0.31
0.69,0.64,0.31
0.7,0.64,0.31
0.7,0.64,0.31
0.7,0.64,0.31
0.71,0.64,0.31
0.73,0.64,0.32
0.73,0.64,0.33
0.72,0.64,0.33
0.73,0.65,0.33
0.73,0.65,0.34
0.71,0.65,0.35
0.72,0.64,0.37
0.75,0.65,0.39
0.77,0.65,0.41
0.79,0.65,0.42
0.8,0.66,0.44
0.81,0.68,0.45
0.81,0.7,0.48
0.8,0.71,0.52
0.79,0.72,0.54
0.79,0.71,0.55
0.79,0.73,0.54
0.79,0.76,0.52
0.78,0.8,0.49
0.77,0.83,0.45
0.75,0.86,0.42
0.74,0.88,0.39
0.72,0.9,0.35
0.67,0.9,0.33
0.65,0.89,0.31
0.63,0.9,0.3
0.62,0.91,0.28
0.6,0.91,0.23
0.57,0.91,0.2
0.54,0.91,0.2
0.54,0.91,0.18
0.56,0.89,0.15
0.55,0.87,0.11
0.5,0.87,0.07
0.44,0.87,0.07
0.38,0.87,0.07
0.36,0.86,0.07
0.35,0.85,0.06
0.32,0.85,0.03
0.3,0.86,0.03
0.29,0.85,0.04
0.27,0.83,0.05
0.25,0.82,0.08
0.24,0.8,0.1
0.23,0.79,0.1
0.21,0.79,0.09
0.19,0.79,0.09
0.18,0.79,0.1
0.17,0.78,0.11
0.18,0.76,0.13
0.18,0.76,0.16
0.17,0.77,0.17
0.15,0.79,0.18
0.15,0.8,0.18
0.13,0.81,0.17
0.11,0.8,0.18
0.12,0.81,0.2
0.13,0.82,0.21
0.13,0.82,0.22
0.14,0.84,0.22
0.14,0.87,0.22
0.14,0.89,0.22
0.16,0.9,0.23
0.16,0.91,0.24
0.17,0.91,0.24
0.18,0.91,0.24
0.18,0.91,0.25
0.19,0.91,0.26
0.2,0.91,0.27
0.19,0.92,0.27
0.18,0.92,0.28
0.17,0.92,0.29
0.17,0.93,0.29
0.18,0.93,0.28
0.19,0.93,0.29
0.19,0.93,0.28
0.19,0.93,0.27
0.18,0.93,0.28
0.18,0.93,0.29
0.19,0.93,0.29
0.19,0.92,0.29
0.2,0.91,0.29
0.2,0.92,0.28
0.2,0.93,0.27
0.19,0.94,0.27
0.17,0.94,0.28
0.17,0.94,0.29
0.16,0.93,0.29
0.16,0.92,0.29
0.17,0.91,0.29
0.16,0.89,0.3
0.15,0.9,0.3
0.16,0.9,0.29
0.16,0.91,0.28
0.16,0.91,0.27
0.16,0.92,0.28
0.18,0.92,0.28
0.2,0.93,0.27
0.2,0.93,0.27
0.19,0.92,0.27
0.18,0.92,0.27
0.19,0.92,0.28
0.18,0.91,0.28
0.16,0.91,0.28
0.15,0.92,0.29
0.15,0.92,0.31
0.15,0.91,0.31
0.15,0.91,0.31
0.16,0.92,0.3
0.16,0.91,0.3
0.16,0.91,0.3
0.16,0.91,0.3
0.16,0.91,0.28
0.17,0.91,0.28
0.16,0.91,0.28
0.15,0.92,0.28
0.15,0.92,0.27
0.14,0.92,0.28
0.14,0.92,0.29
0.16,0.92,0.29
0.16,0.93,0.29
0.17,0.93,0.29
0.17,0.93,0.3
0.16,0.94,0.3
0.15,0.93,0.3
0.16,0.93,0.29
0.16,0.93,0.29
0.16,0.94,0.29
0.17,0.94,0.29
0.16,0.94,0.29
0.15,0.93,0.28
0.15,0.93,0.28
0.15,0.92,0.29
0.15,0.92,0.3
0.14,0.92,0.3
0.14,0.92,0.3
0.14,0.93,0.3
0.14,0.93,0.29
0.14,0.93,0.29
0.14,0.93,0.29
0.15,0.93,0.29
0.15,0.93,0.29
0.15,0.93,0.29
0.15,0.93,0.28
0.16,0.93,0.28
0.16,0.93,0.28
0.15,0.93,0.28
0.16,0.92,0.28
0.16,0.92,0.28
0.16,0.92,0.28
0.16,0.92,0.28
0.16,0.93,0.29
0.16,0.92,0.28
0.16,0.92,0.28
0.17,0.92,0.28
0.16,0.93,0.28
0.16,0.93,0.28
0.16,0.93,0.28
0.16,0.93,0.28
0.16,0.93,0.28
0.16,0.92,0.29
0.15,0.92,0.29
0.16,0.93,0.29
0.16,0.94,0.28
0.16,0.94,0.28
0.16,0.94,0.28
0.16,0.94,0.29
0.16,0.93,0.29
0.16,0.93,0.29
0.15,0.92,0.29
0.15,0.92,0.29
0.16,0.92,0.29
0.16,0.92,0.29
0.17,0.93,0.29
0.17,0.93,0.28
0.17,0.93,0.28
0.17,0.93,0.28
0.16,0.93,0.28
0.16,0.93,0.27
0.16,0.92,0.28
0.16,0.92,0.28
0.16,0.93,0.28
0.15,0.93,0.28
0.16,0.93,0.28
0.17,0.94,0.28
0.17,0.93,0.28
0.17,0.93,0.28
0.17,0.93,0.29
0.17,0.93,0.28
0.16,0.93,0.28
0.16,0.93,0.28
0.16,0.93,0.28
0.16,0.93,0.28
0.15,0.93,0.28
0.16,0.93,0.28
0.16,0.93,0.28
0.16,0.93,0.28
0.16,0.93,0.28
0.16,0.93,0.28
0.17,0.94,0.28
0.17,0.94,0.28
0.17,0.94,0.28
0.16,0.93,0.29
0.16,0.93,0.29
0.16,0.93,0.29
0.15,0.93,0.28
0.15,0.93,0.28
0.15,0.93,0.28
0.16,0.93,0.27
0.16,0.93,0.27
0.16,0.93,0.27
0.17,0.93,0.27
0.16,0.93,0.27
0.16,0.93,0.27
0.16,0.93,0.28
0.16,0.93,0.28
0.16,0.93,0.28
0.16,0.93,0.28
0.16,0.93,0.28
0.15,0.93,0.28
0.15,0.93,0.29
0.16,0.93,0.28
0.16,0.93,0.28
0.15,0.93,0.28
0.15,0.93,0.28
0.15,0.93,0.27
0.16,0.93,0.27
0.16,0.93,0.28
0.16,0.93,0.28
0.16,0.93,0.28
0.16,0.93,0.28
0.16,0.93,0.28
0.16,0.93,0.28
0.16,0.93,0.28
0.15,0.93,0.28
0.15,0.93,0.28
0.16,0.93,0.28
0.16,0.93,0.28
0.16,0.93,0.28
0.16,0.93,0.28
0.16,0.93,0.28
0.16,0.92,0.28
0.16,0.93,0.28
0.16,0.93,0.28
0.16,0.94,0.27
0.16,0.94,0.27
0.16,0.93,0.28
0.16,0.93,0.28
0.16,0.93,0.28
0.16,0.92,0.28
0.17,0.93,0.29
0.16,0.93,0.28
0.16,0.93,0.28
0.16,0.93,0.28
0.16,0.93,0.28
0.16,0.92,0.28
0.16,0.92,0.28
0.16,0.92,0.28
0.16,0.93,0.28
0.16,0.93,0.28
0.16,0.94,0.27
0.15,0.94,0.27
0.15,0.94,0.27
0.15,0.93,0.28
0.15,0.93,0.28
0.15,0.93,0.28
0.15,0.93,0.28
0.15,0.93,0.28
0.16,0.93,0.28
0.16,0.93,0.28
0.16,0.93,0.27
0.16,0.93,0.27
0.16,0.93,0.27
0.16,0.93,0.27
0.15,0.93,0.27
0.15,0.93,0.28
0.15,0.93,0.28
0.16,0.93,0.28
0.17,0.93,0.28
0.17,0.93,0.28
0.17,0.93,0.29
0.16,0.93,0.28
0.16,0.93,0.28
0.16,0.94,0.27
0.15,0.94,0.27
0.16,0.93,0.28
0.15,0.93,0.27
0.15,0.93,0.27
0.16,0.93,0.28
0.15,0.93,0.28
0.16,0.93,0.28
0.16,0.93,0.28
0.16,0.93,0.28
0.16,0.93,0.27
0.16,0.93,0.28
0.16,0.93,0.27
0.16,0.93,0.28
0.15,0.93,0.28
0.14,0.93,0.29
0.15,0.93,0.28
0.15,0.93,0.28
0.16,0.93,0.28
0.16,0.93,0.28
0.16,0.93,0.27
0.16,0.93,0.27
0.16,0.93,0.27
0.15,0.93,0.27
0.16,0.93,0.27
0.16,0.93,0.28
0.15,0.93,0.28
0.15,0.93,0.28
0.16,0.93,0.28
0.16,0.93,0.28
0.16,0.93,0.27
0.16,0.94,0.27
0.16,0.94,0.27
0.16,0.93,0.27
0.16,0.94,0.27
0.16,0.94,0.27
0.16,0.94,0.28
0.16,0.94,0.28
0.16,0.94,0.28
0.16,0.93,0.28
0.16,0.93,0.28
0.16,0.93,0.28
0.16,0.93,0.27
0.16,0.93,0.27
0.16,0.93,0.27
0.15,0.94,0.27
0.15,0.93,0.27
0.15,0.93,0.27
0.15,0.93,0.27
0.15,0.93,0.28
0.15,0.92,0.27
0.15,0.93,0.27
0.15,0.93,0.28
0.15,0.93,0.28
0.15,0.94,0.27
0.15,0.94,0.27
0.16,0.93,0.27
0.16,0.93,0.28
0.16,0.93,0.28
0.15,0.93,0.29
0.15,0.93,0.29
0.15,0.93,0.28
0.15,0.94,0.28
0.16,0.94,0.27
0.15,0.93,0.27
0.15,0.93,0.27
0.15,0.93,0.28
0.15,0.93,0.28
0.16,0.93,0.28
0.16,0.93,0.28
0.15,0.93,0.28
0.15,0.93,0.28
0.15,0.93,0.27
0.15,0.93,0.27
0.16,0.93,0.28
0.16,0.93,0.28
0.16,0.93,0.28
0.16,0.93,0.29
0.15,0.92,0.28
0.15,0.93,0.27
0.16,0.93,0.27
0.16,0.93,0.27
0.16,0.93,0.27
0.16,0.92,0.27
0.16,0.93,0.27
0.16,0.93,0.27
0.16,0.93,0.27
0.16,0.93,0.28
0.16,0.93,0.28
0.15,0.93,0.28
0.15,0.93,0.29
0.16,0.93,0.29
0.16,0.93,0.29
0.16,0.93,0.29
0.15,0.93,0.29
0.15,0.93,0.29
0.15,0.94,0.28
0.15,0.94,0.28
0.15,0.93,0.28
0.15,0.93,0.27
0.15,0.93,0.27
0.16,0.93,0.27
0.15,0.93,0.27
0.15,0.93,0.28
0.15,0.93,0.28
0.15,0.93,0.28
0.16,0.93,0.29
0.16,0.93,0.28
0.16,0.93,0.28
0.16,0.93,0.28
0.16,0.93,0.28
0.16,0.93,0.28
0.16,0.93,0.28
0.16,0.93,0.28
0.16,0.94,0.28
0.15,0.94,0.28
0.15,0.94,0.28
0.15,0.94,0.28
0.15,0.93,0.28
0.16,0.93,0.28
0.15,0.93,0.28
0.15,0.93,0.28
0.16,0.93,0.28
0.16,0.93,0.28
0.16,0.94,0.28
0.16,0.94,0.28
0.16,0.94,0.28
0.16,0.93,0.29
0.16,0.93,0.29
0.16,0.93,0.29
0.16,0.93,0.29
0.17,0.93,0.29
0.16,0.93,0.28
0.16,0.92,0.28
0.16,0.92,0.29
0.16,0.92,0.28
0.16,0.93,0.28
0.16,0.93,0.28
0.17,0.93,0.28
0.16,0.93,0.28
0.16,0.92,0.28
0.16,0.92,0.28
0.16,0.92,0.28
0.16,0.92,0.28
0.16,0.91,0.28
0.16,0.91,0.28
0.17,0.92,0.28
0.17,0.92,0.28
0.17,0.92,0.28
0.18,0.91,0.28
0.18,0.92,0.29
0.18,0.93,0.29
0.19,0.93,0.3
0.19,0.93,0.3
0.18,0.93,0.3
0.17,0.93,0.3
0.16,0.93,0.31
0.15,0.92,0.31
0.14,0.93,0.31
0.12,0.93,0.31
0.12,0.93,0.31
0.13,0.92,0.31
0.13,0.92,0.31
0.14,0.91,0.31
0.14,0.91,0.3
0.14,0.9,0.28
0.15,0.91,0.26
0.16,0.92,0.25
0.17,0.91,0.24
0.16,0.91,0.24
0.14,0.9,0.24
0.13,0.89,0.24
0.14,0.89,0.24
0.15,0.9,0.23
0.15,0.9,0.23
0.15,0.9,0.23
0.15,0.9,0.23
0.16,0.9,0.23
0.16,0.9,0.23
0.15,0.9,0.23
0.15,0.89,0.24
0.16,0.89,0.25
0.16,0.88,0.25
0.16,0.87,0.26
0.17,0.86,0.24
0.17,0.87,0.23
0.17,0.88,0.22
0.18,0.89,0.2
0.19,0.89,0.18
0.21,0.88,0.17
0.21,0.86,0.17
0.22,0.85,0.17
0.23,0.83,0.17
0.24,0.81,0.16
0.24,0.81,0.15
0.22,0.85,0.14
0.19,0.89,0.14
0.19,0.9,0.14
0.2,0.89,0.12
0.23,0.87,0.09
0.26,0.85,0.07
0.29,0.83,0.07
0.31,0.81,0.06
0.32,0.81,0.07
0.34,0.82,0.07
0.34,0.84,0.06
0.33,0.88,0.05
0.31,0.91,0.04
0.31,0.91,0.03
0.34,0.91,0.02
0.36,0.91,0.02
0.38,0.9,0.02
0.4,0.9,0.02
0.42,0.93,0.02
0.43,0.98,0
0.44,1.01,-0.02
0.46,1.02,-0.05
0.48,1,-0.07
0.49,0.99,-0.07
0.46,0.97,-0.05
0.44,0.95,-0.03
0.43,0.93,0
0.43,0.93,0.01
0.44,0.95,0.01
0.44,0.98,-0.01
0.44,1.01,-0.03
0.45,1.02,-0.06
0.46,1.01,-0.07
0.47,1.01,-0.08
0.47,0.99,-0.07
0.46,0.98,-0.06
0.44,0.96,-0.04
0.43,0.93,-0.01
0.44,0.92,0
0.46,0.92,0.01
0.47,0.92,0
0.47,0.93,-0.02
0.5,0.91,-0.03
0.49,0.89,-0.03
0.48,0.88,-0.03
0.47,0.86,-0.02
0.46,0.85,-0.01
0.45,0.84,0.01
0.45,0.83,0.03
0.46,0.84,0.04
0.46,0.85,0.05
0.46,0.85,0.06
0.47,0.86,0.07
0.48,0.86,0.07
0.5,0.85,0.08
0.51,0.82,0.09
0.52,0.8,0.1
0.53,0.78,0.12
0.53,0.75,0.13
0.53,0.74,0.15
0.52,0.73,0.18
0.52,0.72,0.2
0.52,0.7,0.21
0.53,0.69,0.23
0.53,0.68,0.24
0.52,0.69,0.23
0.52,0.68,0.2
0.53,0.66,0.17
0.56,0.63,0.18
0.6,0.62,0.2
0.63,0.62,0.22
0.66,0.62,0.24
0.69,0.62,0.26
0.71,0.62,0.28
0.73,0.63,0.3
0.75,0.65,0.32
0.76,0.64,0.31
0.77,0.61,0.28
0.81,0.57,0.26
0.88,0.56,0.25
0.91,0.55,0.26
0.93,0.54,0.28
0.93,0.55,0.32
0.92,0.58,0.37
0.9,0.6,0.41
0.88,0.6,0.44
0.85,0.58,0.45
0.82,0.54,0.44
0.79,0.48,0.44
0.75,0.43,0.47
0.71,0.4,0.51
0.64,0.37,0.56
0.58,0.36,0.62
0.53,0.34,0.74
0.47,0.27,0.79
0.48,0.23,0.82
0.49,0.2,0.85
0.5,0.18,0.87
0.51,0.17,0.88
0.52,0.15,0.88
0.55,0.13,0.87
0.59,0.11,0.86
0.63,0.09,0.85
0.64,0.08,0.83
0.64,0.07,0.82
0.64,0.06,0.82
0.65,0.03,0.81
0.67,0.01,0.8
0.68,-0.02,0.79
0.69,-0.03,0.78
0.7,-0.04,0.76
0.71,-0.04,0.75
0.71,-0.02,0.75
0.71,-0.03,0.75
0.7,-0.05,0.75
0.71,-0.06,0.76
0.72,-0.07,0.77
0.71,-0.07,0.77
0.7,-0.08,0.76
0.68,-0.08,0.75
0.67,-0.02,0.76
0.73,-0.01,0.76
0.84,-0.06,0.73
0.73,-0.05,0.73
0.64,-0.02,0.8
0.65,-0.04,0.8
0.72,-0.06,0.77
0.76,-0.06,0.76
0.77,-0.06,0.77
0.77,-0.05,0.77
0.76,-0.02,0.77
0.74,0,0.77
0.71,-0.03,0.76
0.73,-0.05,0.76
0.78,-0.06,0.77
0.85,-0.07,0.79
0.9,-0.08,0.79
0.92,-0.1,0.78
0.92,-0.1,0.76
0.89,-0.12,0.73
0.86,-0.14,0.7
0.82,-0.15,0.69
0.79,-0.16,0.7
0.78,-0.17,0.71
0.78,-0.19,0.73
0.77,-0.21,0.73
0.77,-0.23,0.72
0.79,-0.24,0.71
0.77,-0.24,0.71
0.75,-0.25,0.71
0.74,-0.27,0.71
0.74,-0.29,0.7
0.73,-0.31,0.71
0.71,-0.34,0.73
0.7,-0.36,0.75
0.71,-0.38,0.75
0.73,-0.37,0.73
0.74,-0.37,0.71
0.75,-0.37,0.67
0.75,-0.38,0.64
0.75,-0.38,0.61
0.72,-0.38,0.6
0.68,-0.39,0.58
0.66,-0.39,0.56
0.65,-0.37,0.53
0.62,-0.36,0.53
0.61,-0.36,0.53
0.61,-0.39,0.54
0.62,-0.42,0.53
0.62,-0.44,0.53
0.6,-0.45,0.53
0.6,-0.47,0.52
0.55,-0.51,0.49
0.5,-0.49,0.46
0.46,-0.47,0.43
0.43,-0.44,0.41
0.42,-0.41,0.41
0.44,-0.39,0.41
0.47,-0.4,0.41
0.5,-0.42,0.44
0.54,-0.43,0.49
0.55,-0.43,0.56
0.53,-0.42,0.63
0.5,-0.43,0.71
0.45,-0.42,0.79
0.39,-0.38,0.87
0.38,-0.33,0.98
0.42,-0.31,1.09
0.54,-0.29,1.2
0.66,-0.26,1.3
0.71,-0.27,1.36
0.72,-0.28,1.35
0.73,-0.25,1.28
0.71,-0.2,1.17
0.67,-0.18,1.05
0.64,-0.17,0.94
0.62,-0.15,0.86
0.59,-0.12,0.8
0.58,-0.12,0.72
0.6,-0.11,0.69
0.61,-0.11,0.67
0.6,-0.11,0.68
0.58,-0.14,0.69
0.56,-0.19,0.7
0.54,-0.22,0.73
0.52,-0.23,0.76
0.5,-0.23,0.79
0.51,-0.23,0.8
0.54,-0.21,0.79
0.59,-0.2,0.79
0.63,-0.19,0.79
0.65,-0.18,0.8
0.66,-0.16,0.81
0.67,-0.15,0.82
0.67,-0.14,0.82
0.69,-0.13,0.82
0.71,-0.13,0.82
0.73,-0.13,0.83
0.75,-0.13,0.84
0.77,-0.13,0.86
0.77,-0.13,0.87
0.76,-0.13,0.87
0.71,-0.12,0.85
0.63,-0.12,0.82
0.54,-0.13,0.75
0.49,-0.14,0.72
0.5,-0.14,0.71
0.52,-0.14,0.7
0.55,-0.14,0.7
0.58,-0.15,0.71
0.63,-0.14,0.73
0.66,-0.13,0.74
0.67,-0.12,0.77
0.67,-0.12,0.78
0.67,-0.11,0.8
0.65,-0.11,0.81
0.62,-0.11,0.81
0.59,-0.11,0.82
0.57,-0.11,0.82
0.57,-0.1,0.83
0.57,-0.1,0.83
0.58,-0.1,0.83
0.58,-0.09,0.83
0.57,-0.08,0.83
0.57,-0.08,0.83
0.58,-0.08,0.82
0.58,-0.07,0.81
0.58,-0.07,0.81
0.58,-0.07,0.79
0.59,-0.07,0.79
0.61,-0.06,0.78
0.62,-0.06,0.78
0.62,-0.05,0.78
0.62,-0.05,0.77
0.64,-0.06,0.77
0.65,-0.06,0.78
0.66,-0.06,0.8
0.67,-0.06,0.8
0.66,-0.07,0.78
0.67,-0.07,0.76
0.69,-0.06,0.75
0.69,-0.07,0.73
0.68,-0.07,0.72
0.66,-0.07,0.72
0.66,-0.06,0.73
0.65,-0.05,0.73
0.63,-0.05,0.72
0.63,-0.04,0.73
0.62,-0.04,0.72
0.61,-0.04,0.72
0.59,-0.04,0.72
0.6,-0.04,0.72
0.61,-0.04,0.72
0.61,-0.04,0.72
0.62,-0.04,0.73
0.63,-0.05,0.74
0.65,-0.06,0.75
0.66,-0.08,0.77
0.66,-0.08,0.78
0.66,-0.08,0.8
0.66,-0.1,0.81
0.66,-0.1,0.82
0.68,-0.1,0.82
0.68,-0.1,0.82
0.67,-0.12,0.82
0.65,-0.12,0.81
0.64,-0.12,0.79
0.64,-0.12,0.79
0.66,-0.12,0.78
0.68,-0.11,0.77
0.68,-0.11,0.76
0.68,-0.11,0.74
0.68,-0.11,0.72
0.68,-0.11,0.71
0.68,-0.11,0.71
0.69,-0.1,0.72
0.65,-0.09,0.68
0.65,-0.1,0.69
0.7,-0.09,0.72
0.7,-0.07,0.73
0.68,-0.09,0.73
0.68,-0.08,0.74
0.68,-0.09,0.74
0.68,-0.11,0.76
0.67,-0.12,0.77
0.67,-0.12,0.78
0.66,-0.13,0.78
0.65,-0.15,0.78
0.65,-0.15,0.78
0.65,-0.16,0.77
0.66,-0.17,0.77
0.67,-0.17,0.77
0.67,-0.17,0.77
0.67,-0.18,0.76
0.67,-0.18,0.76
0.68,-0.2,0.75
0.7,-0.18,0.74
0.72,-0.16,0.74
0.72,-0.15,0.74
0.7,-0.14,0.73
0.69,-0.13,0.73
0.7,-0.13,0.73
0.69,-0.12,0.73
0.68,-0.11,0.74
0.68,-0.11,0.74
0.68,-0.11,0.74
0.69,-0.11,0.74
0.69,-0.11,0.74
0.69,-0.11,0.74
0.68,-0.11,0.75
0.67,-0.11,0.75
0.67,-0.11,0.75
0.66,-0.12,0.75
0.66,-0.13,0.74
0.66,-0.13,0.75
0.66,-0.14,0.75
0.66,-0.14,0.75
0.65,-0.15,0.76
0.65,-0.14,0.76
0.64,-0.14,0.76
0.64,-0.14,0.76
0.66,-0.13,0.76
0.66,-0.12,0.75
0.67,-0.12,0.75
0.67,-0.11,0.75
0.67,-0.11,0.76
0.67,-0.11,0.76
0.68,-0.1,0.75
0.68,-0.1,0.75
0.68,-0.1,0.74
0.68,-0.1,0.74
0.68,-0.1,0.74
0.68,-0.1,0.74
0.68,-0.1,0.74
0.68,-0.1,0.74
0.67,-0.11,0.73
0.68,-0.1,0.73
0.68,-0.1,0.73
0.67,-0.1,0.74
0.67,-0.1,0.74
0.67,-0.1,0.74
0.67,-0.1,0.75
0.67,-0.1,0.75
0.67,-0.1,0.75
0.67,-0.1,0.75
0.67,-0.1,0.75
0.66,-0.1,0.75
0.66,-0.1,0.75
0.66,-0.1,0.74
0.66,-0.1,0.74
0.66,-0.1,0.74
0.66,-0.11,0.74
0.66,-0.11,0.75
0.66,-0.11,0.75
0.66,-0.11,0.76
0.66,-0.12,0.76
0.66,-0.12,0.76
0.66,-0.11,0.76
0.66,-0.11,0.77
0.67,-0.11,0.77
0.68,-0.11,0.77
0.68,-0.1,0.76
0.69,-0.1,0.75
0.69,-0.09,0.75
0.68,-0.1,0.74
0.68,-0.11,0.73
0.68,-0.1,0.73
0.67,-0.1,0.73
0.67,-0.1,0.74
0.67,-0.1,0.74
0.67,-0.1,0.75
0.67,-0.1,0.75
0.67,-0.1,0.74
0.68,-0.1,0.75
0.69,-0.11,0.75
0.68,-0.11,0.76
0.67,-0.11,0.76
0.67,-0.11,0.76
0.67,-0.12,0.76
0.67,-0.12,0.75
0.67,-0.11,0.75
0.66,-0.11,0.75
0.66,-0.11,0.74
0.66,-0.1,0.74
0.66,-0.1,0.74
0.67,-0.1,0.74
0.68,-0.09,0.73
0.68,-0.09,0.72
0.69,-0.09,0.72
0.69,-0.09,0.72
0.68,-0.1,0.72
0.68,-0.11,0.73
0.68,-0.12,0.73
0.68,-0.12,0.73
0.68,-0.12,0.73
0.69,-0.12,0.74
0.69,-0.13,0.74
0.68,-0.13,0.74
0.68,-0.12,0.74
0.68,-0.12,0.74
0.67,-0.11,0.74
0.66,-0.11,0.73
0.67,-0.1,0.73
0.69,-0.09,0.74
0.7,-0.09,0.74
0.72,-0.09,0.75
0.74,-0.1,0.76
0.74,-0.12,0.75
0.74,-0.11,0.74
0.75,-0.1,0.72
0.77,-0.1,0.71
0.78,-0.1,0.71
0.78,-0.1,0.71
0.77,-0.11,0.74
0.73,-0.12,0.75
0.69,-0.13,0.77
0.65,-0.13,0.79
0.62,-0.12,0.81
0.59,-0.12,0.82
0.56,-0.12,0.83
0.54,-0.12,0.83
0.53,-0.12,0.83
0.54,-0.11,0.82
0.56,-0.11,0.8
0.6,-0.1,0.77
0.62,-0.1,0.75
0.64,-0.09,0.73
0.66,-0.09,0.71
0.68,-0.08,0.7
0.7,-0.08,0.69
0.7,-0.08,0.69
0.7,-0.07,0.7
0.71,-0.06,0.7
0.72,-0.06,0.7
0.72,-0.06,0.71
0.72,-0.05,0.73
0.71,-0.05,0.74
0.68,-0.05,0.76
0.65,-0.06,0.78
0.63,-0.06,0.79
0.61,-0.08,0.81
0.59,-0.09,0.81
0.59,-0.1,0.82
0.6,-0.11,0.82
0.62,-0.11,0.81
0.62,-0.11,0.81
0.62,-0.11,0.8
0.64,-0.11,0.79
0.65,-0.11,0.78
0.66,-0.1,0.77
0.67,-0.09,0.77
0.68,-0.09,0.76
0.68,-0.09,0.75
0.68,-0.08,0.74
0.67,-0.08,0.74
0.67,-0.07,0.74
0.67,-0.08,0.75
0.67,-0.08,0.75
0.66,-0.08,0.76
0.65,-0.08,0.77
0.64,-0.08,0.77
0.63,-0.07,0.78
0.62,-0.07,0.78
0.62,-0.07,0.79
0.62,-0.06,0.79
0.62,-0.06,0.79
0.61,-0.06,0.8
0.61,-0.06,0.8
0.6,-0.06,0.79
0.6,-0.06,0.79
0.6,-0.06,0.79
0.6,-0.07,0.79
0.61,-0.07,0.79
0.61,-0.07,0.79
0.61,-0.08,0.8
0.61,-0.08,0.79
0.6,-0.08,0.79
0.6,-0.08,0.78
0.62,-0.08,0.78
0.63,-0.08,0.78
0.63,-0.08,0.78
0.63,-0.08,0.79
0.62,-0.07,0.79
0.62,-0.07,0.8
0.62,-0.07,0.8
0.61,-0.07,0.79
0.6,-0.07,0.79
0.6,-0.07,0.79
0.6,-0.06,0.79
0.6,-0.06,0.8
0.61,-0.06,0.8
0.61,-0.06,0.79
0.61,-0.06,0.79
0.61,-0.06,0.79
0.62,-0.07,0.79
0.63,-0.07,0.78
0.63,-0.07,0.79
0.63,-0.08,0.79
0.63,-0.08,0.79
0.64,-0.09,0.79
0.64,-0.09,0.79
0.64,-0.09,0.79
0.63,-0.09,0.79
0.64,-0.09,0.79
0.64,-0.09,0.79
0.63,-0.09,0.79
0.63,-0.08,0.79
0.63,-0.08,0.79
0.63,-0.08,0.79
0.63,-0.08,0.78
0.63,-0.08,0.78
0.63,-0.08,0.78
0.64,-0.08,0.79
0.64,-0.08,0.79
0.64,-0.08,0.78
0.64,-0.08,0.78
0.63,-0.08,0.78
0.63,-0.08,0.78
0.63,-0.08,0.78
0.63,-0.08,0.78
0.62,-0.08,0.78
0.63,-0.08,0.78
0.63,-0.08,0.79
0.63,-0.08,0.79
0.64,-0.08,0.78
0.63,-0.08,0.78
0.63,-0.08,0.78
0.63,-0.08,0.78
0.63,-0.08,0.78
0.62,-0.08,0.78
0.62,-0.08,0.78
0.62,-0.08,0.78
0.63,-0.08,0.78
0.63,-0.08,0.78
0.64,-0.08,0.79
0.64,-0.08,0.78
0.64,-0.08,0.78
0.64,-0.08,0.78
0.63,-0.08,0.78
0.63,-0.08,0.78
0.63,-0.08,0.78
0.63,-0.08,0.78
0.63,-0.08,0.79
0.64,-0.08,0.79
0.64,-0.08,0.78
0.64,-0.08,0.78
0.63,-0.08,0.78
0.63,-0.08,0.78
0.63,-0.08,0.77
0.63,-0.08,0.78
0.63,-0.08,0.78
0.63,-0.08,0.78
0.64,-0.08,0.78
0.64,-0.08,0.78
0.63,-0.08,0.78
0.63,-0.08,0.78
0.62,-0.08,0.78
0.62,-0.08,0.78
0.63,-0.08,0.78
0.63,-0.08,0.78
0.63,-0.08,0.78
0.63,-0.08,0.78
0.63,-0.08,0.78
0.63,-0.08,0.78
0.63,-0.08,0.78
0.63,-0.08,0.79
0.63,-0.08,0.78
0.63,-0.08,0.78
0.63,-0.09,0.78
0.63,-0.09,0.78
0.63,-0.09,0.78
0.64,-0.08,0.78
0.64,-0.08,0.78
0.63,-0.08,0.78
0.63,-0.08,0.78
0.63,-0.08,0.78
0.63,-0.08,0.78
0.63,-0.08,0.78
0.63,-0.08,0.79
0.63,-0.08,0.79
