Acc_x,Acc_y,Acc_z
1.47,-0.07,0.75
1.48,-0.09,0.76
1.47,-0.11,0.77
1.46,-0.13,0.77
1.46,-0.16,0.77
1.45,-0.21,0.78
1.43,-0.26,0.77
1.41,-0.31,0.76
1.4,-0.35,0.75
1.4,-0.38,0.75
1.41,-0.42,0.75
1.4,-0.49,0.74
1.39,-0.55,0.73
1.37,-0.6,0.72
1.34,-0.65,0.72
1.33,-0.72,0.72
1.31,-0.8,0.73
1.28,-0.87,0.73
1.24,-0.93,0.73
1.21,-0.99,0.74
1.2,-1.12,0.77
1.17,-1.18,0.79
1.18,-1.26,0.8
1.2,-1.33,0.81
1.21,-1.41,0.81
1.19,-1.49,0.82
1.17,-1.56,0.84
1.16,-1.62,0.86
1.13,-1.67,0.89
1.08,-1.73,0.9
1.06,-1.78,0.9
1.05,-1.82,0.89
1.04,-1.85,0.89
1.05,-1.88,0.88
1.05,-1.9,0.87
1.05,-1.91,0.87
1.06,-1.9,0.89
1.08,-1.91,0.91
1.08,-1.96,0.91
1.05,-1.99,0.92
1.02,-2,0.92
0.99,-2.01,0.93
0.96,-2.02,0.94
0.95,-2.01,0.94
0.92,-2.03,0.94
0.9,-2.03,0.94
0.92,-2.03,0.9
0.85,-2.13,0.88
0.73,-2.12,0.89
0.6,-2.08,0.89
0.56,-2.03,0.89
0.55,-1.95,0.9
0.53,-1.93,0.92
0.5,-1.96,0.94
0.45,-1.99,0.94
0.4,-2.01,0.91
0.38,-1.99,0.9
0.33,-1.97,0.91
0.26,-1.93,0.91
0.17,-1.87,0.93
0.11,-1.83,0.98
0.08,-1.82,1.03
0.09,-1.82,1.07
0.08,-1.83,1.1
0.03,-1.82,1.1
-0.07,-1.79,1.09
-0.17,-1.73,1.07
-0.23,-1.63,1.07
-0.24,-1.53,1.09
-0.23,-1.45,1.11
-0.23,-1.42,1.11
-0.25,-1.37,1.12
-0.28,-1.26,1.19
-0.34,-1.21,1.2
-0.32,-1.16,1.17
-0.28,-1.06,1.14
-0.26,-0.98,1.11
-0.26,-0.95,1.1
-0.22,-0.93,1.09
-0.2,-0.89,1.1
-0.21,-0.82,1.1
-0.18,-0.76,1.1
-0.14,-0.72,1.1
-0.09,-0.68,1.12
-0.06,-0.68,1.13
-0.04,-0.69,1.13
-0.04,-0.7,1.13
-0.02,-0.73,1.12
0.03,-0.76,1.12
0.09,-0.79,1.15
0.15,-0.83,1.2
0.16,-0.89,1.25
0.15,-0.97,1.29
0.15,-1.05,1.32
0.14,-1.11,1.33
0.14,-1.15,1.33
0.17,-1.18,1.34
0.2,-1.2,1.36
0.19,-1.21,1.37
0.17,-1.24,1.38
0.15,-1.28,1.37
0.13,-1.31,1.37
0.12,-1.36,1.36
0.12,-1.4,1.35
0.14,-1.45,1.34
0.17,-1.52,1.32
0.2,-1.58,1.31
0.22,-1.64,1.31
0.24,-1.68,1.31
0.27,-1.71,1.3
0.31,-1.75,1.3
0.34,-1.79,1.29
0.35,-1.84,1.27
0.34,-1.88,1.24
0.33,-1.92,1.21
0.34,-1.94,1.17
0.35,-1.96,1.12
0.38,-1.97,1.06
0.41,-1.92,1.01
0.44,-1.87,0.98
0.46,-1.85,0.96
0.47,-1.82,0.93
0.48,-1.74,0.88
0.49,-1.68,0.83
0.52,-1.61,0.75
0.49,-1.5,0.71
0.47,-1.46,0.68
0.46,-1.41,0.65
0.51,-1.4,0.6
0.54,-1.4,0.6
0.54,-1.4,0.61
0.53,-1.43,0.59
0.52,-1.44,0.53
0.56,-1.38,0.48
0.64,-1.31,0.44
0.7,-1.26,0.39
0.73,-1.22,0.35
0.78,-1.18,0.38
0.88,-1.14,0.44
0.95,-1.12,0.46
1,-1.11,0.44
1.1,-1.04,0.4
1.17,-0.95,0.36
1.19,-0.91,0.32
1.34,-0.84,0.29
1.54,-0.72,0.29
1.64,-0.63,0.33
1.72,-0.54,0.33
1.86,-0.4,0.32
1.99,-0.29,0.34
2.07,-0.23,0.37
2.13,-0.12,0.4
2.24,-0.04,0.43
2.28,-0.02,0.48
2.32,-0.01,0.53
2.36,0.02,0.58
2.36,0.06,0.63
2.31,0.07,0.69
2.29,0.08,0.74
2.29,0.09,0.76
2.27,0.09,0.75
2.22,0.04,0.73
2.16,-0.01,0.71
2.08,-0.06,0.67
2,-0.11,0.63
1.94,-0.16,0.58
1.91,-0.22,0.56
1.87,-0.29,0.57
1.8,-0.39,0.57
1.71,-0.5,0.59
1.66,-0.61,0.61
1.62,-0.71,0.63
1.58,-0.78,0.63
1.53,-0.85,0.61
1.52,-0.94,0.62
1.52,-1.05,0.67
1.52,-1.17,0.73
1.5,-1.37,0.75
1.42,-1.46,0.74
1.41,-1.58,0.76
1.4,-1.7,0.79
1.37,-1.78,0.82
1.33,-1.83,0.82
1.29,-1.91,0.8
1.23,-2,0.77
1.17,-2.1,0.75
1.11,-2.21,0.74
1.06,-2.26,0.75
1.02,-2.26,0.75
1,-2.26,0.75
0.96,-2.28,0.76
0.9,-2.29,0.75
0.84,-2.26,0.7
0.81,-2.28,0.65
0.76,-2.29,0.64
0.73,-2.24,0.67
0.72,-2.23,0.69
0.61,-2.23,0.71
0.53,-2.22,0.72
0.49,-2.19,0.71
0.46,-2.15,0.7
0.42,-2.12,0.7
0.38,-2.12,0.71
0.35,-2.08,0.77
0.29,-2.04,0.79
0.23,-2.01,0.8
0.15,-1.99,0.83
0.11,-1.95,0.87
0.08,-1.87,0.9
0.01,-1.83,0.92
-0.09,-1.79,0.94
-0.16,-1.71,0.92
-0.21,-1.63,0.91
-0.23,-1.56,0.96
-0.23,-1.5,0.99
-0.22,-1.41,1.01
-0.22,-1.34,1.05
-0.23,-1.34,1.13
-0.25,-1.35,1.18
-0.26,-1.33,1.17
-0.27,-1.27,1.16
-0.26,-1.2,1.16
-0.25,-1.12,1.18
-0.24,-1.05,1.21
-0.23,-0.98,1.25
-0.23,-0.94,1.27
-0.21,-0.92,1.27
-0.16,-0.91,1.28
-0.13,-0.91,1.3
-0.12,-0.91,1.34
-0.1,-0.96,1.31
-0.05,-0.97,1.27
-0.02,-0.99,1.23
0.01,-1.02,1.2
0.03,-1.05,1.21
0.07,-1.1,1.24
0.1,-1.16,1.26
0.13,-1.22,1.28
0.16,-1.27,1.27
0.17,-1.32,1.24
0.18,-1.36,1.21
0.19,-1.4,1.16
0.2,-1.44,1.09
0.2,-1.47,1.07
0.23,-1.51,1.09
0.27,-1.55,1.13
0.3,-1.61,1.16
0.32,-1.64,1.14
0.33,-1.67,1.12
0.33,-1.72,1.11
0.35,-1.74,1.08
0.36,-1.74,1.05
0.34,-1.75,1.04
0.32,-1.76,1.02
0.33,-1.77,0.97
0.34,-1.76,0.86
0.43,-1.75,0.82
0.47,-1.73,0.79
0.53,-1.68,0.77
0.57,-1.63,0.75
0.59,-1.58,0.73
0.61,-1.52,0.71
0.62,-1.46,0.69
0.64,-1.4,0.66
0.64,-1.35,0.64
0.64,-1.32,0.6
0.64,-1.29,0.57
0.65,-1.29,0.56
0.66,-1.29,0.54
0.67,-1.28,0.51
0.68,-1.27,0.48
0.68,-1.26,0.46
0.7,-1.24,0.41
0.85,-1.16,0.33
1.03,-1.06,0.26
1.1,-0.99,0.23
1.14,-0.99,0.24
1.18,-0.99,0.28
1.21,-0.89,0.32
1.2,-0.78,0.36
1.2,-0.71,0.42
1.28,-0.65,0.54
1.65,-0.49,0.58
1.84,-0.42,0.59
1.95,-0.34,0.63
1.99,-0.28,0.71
1.99,-0.22,0.81
2,-0.13,0.9
2.02,-0.06,0.93
2.02,-0.01,0.94
2.02,0.01,0.94
2.06,0.01,0.93
2.09,0.04,0.92
2.13,0.11,0.96
2.17,0.15,1.04
2.14,0.13,1.06
2.03,0.09,1.02
1.92,0.05,0.96
1.83,0.03,0.92
1.78,0,0.9
1.75,-0.05,0.87
1.71,-0.09,0.84
1.69,-0.13,0.8
1.68,-0.17,0.78
1.63,-0.24,0.75
1.56,-0.3,0.72
1.49,-0.37,0.68
1.43,-0.43,0.65
1.39,-0.54,0.6
1.39,-0.59,0.58
1.41,-0.65,0.57
1.43,-0.71,0.56
1.42,-0.79,0.61
1.39,-0.89,0.67
1.35,-0.97,0.7
1.31,-1.04,0.7
1.27,-1.09,0.69
1.24,-1.14,0.69
1.21,-1.2,0.7
1.2,-1.27,0.72
1.19,-1.32,0.74
1.17,-1.37,0.76
1.14,-1.41,0.79
1.1,-1.45,0.84
1.07,-1.48,0.86
1.04,-1.5,0.86
0.99,-1.5,0.89
0.94,-1.51,0.95
0.92,-1.53,0.98
0.91,-1.56,0.98
0.89,-1.59,0.96
0.86,-1.61,0.92
0.82,-1.62,0.91
0.79,-1.6,0.95
0.78,-1.6,1.01
0.75,-1.59,1.01
0.7,-1.57,1
0.62,-1.53,0.96
0.53,-1.48,0.9
0.45,-1.42,0.86
0.41,-1.38,0.85
0.39,-1.37,0.87
0.4,-1.39,0.94
0.42,-1.46,1.05
0.41,-1.55,1.11
0.35,-1.63,1.14
0.25,-1.7,1.15
0.1,-1.76,1.16
-0.03,-1.78,1.15
-0.16,-1.78,1.14
-0.3,-1.75,1.13
-0.44,-1.72,1.16
-0.57,-1.69,1.2
-0.67,-1.66,1.23
-0.75,-1.62,1.23
-0.83,-1.56,1.19
-0.92,-1.47,1.11
-0.98,-1.37,1.06
-0.99,-1.29,1.06
-0.98,-1.25,1.06
-0.97,-1.17,1.07
-0.92,-1.14,1.07
-0.86,-1.1,1.06
-0.81,-1.08,1.02
-0.76,-1.06,0.99
-0.72,-1.04,0.96
-0.68,-1.03,0.95
-0.63,-1.02,0.94
-0.57,-1.01,0.94
-0.51,-1,0.94
-0.46,-1.01,0.95
-0.42,-1.01,0.94
-0.39,-1.02,0.94
-0.36,-1.03,0.94
-0.34,-1.05,0.96
-0.32,-1.07,0.97
-0.31,-1.08,0.99
-0.28,-1.1,1.01
-0.26,-1.13,1.02
-0.23,-1.15,1.02
-0.19,-1.18,1.03
-0.17,-1.2,1.02
-0.14,-1.23,1.01
-0.11,-1.26,1.01
-0.07,-1.3,1.02
-0.03,-1.33,1.03
0.02,-1.38,1.04
0.12,-1.39,1.03
0.16,-1.41,1
0.19,-1.43,0.96
0.21,-1.45,0.94
0.25,-1.46,0.94
0.29,-1.49,0.94
0.33,-1.52,0.93
0.37,-1.52,0.94
0.41,-1.53,0.94
0.44,-1.56,0.92
0.46,-1.59,0.92
0.49,-1.63,0.93
0.52,-1.66,0.92
0.55,-1.69,0.9
0.57,-1.71,0.87
0.6,-1.71,0.85
0.63,-1.73,0.83
0.68,-1.76,0.79
0.77,-1.78,0.74
0.86,-1.78,0.68
0.93,-1.78,0.6
1.04,-1.73,0.47
1.19,-1.63,0.4
1.34,-1.56,0.4
1.43,-1.49,0.41
1.44,-1.41,0.44
1.41,-1.29,0.44
1.44,-1.21,0.4
1.5,-1.09,0.38
1.56,-0.94,0.4
1.57,-0.83,0.42
1.54,-0.78,0.4
1.54,-0.75,0.38
1.59,-0.73,0.41
1.65,-0.7,0.44
1.63,-0.65,0.46
1.58,-0.59,0.47
1.55,-0.53,0.49
1.53,-0.48,0.51
1.55,-0.44,0.51
1.59,-0.39,0.49
1.62,-0.33,0.5
1.64,-0.29,0.5
1.65,-0.24,0.49
1.68,-0.19,0.49
1.7,-0.15,0.5
1.7,-0.12,0.52
1.67,-0.09,0.52
1.66,-0.06,0.52
1.65,-0.05,0.52
1.64,-0.05,0.51
1.64,-0.05,0.47
1.62,-0.04,0.45
1.62,-0.04,0.47
1.61,-0.06,0.49
1.59,-0.07,0.51
1.58,-0.08,0.5
1.59,-0.1,0.49
1.6,-0.12,0.48
1.58,-0.15,0.48
1.55,-0.18,0.51
1.53,-0.22,0.53
1.53,-0.26,0.54
1.54,-0.29,0.55
1.53,-0.33,0.55
1.51,-0.38,0.53
1.51,-0.43,0.52
1.5,-0.49,0.54
1.48,-0.55,0.58
1.48,-0.6,0.6
1.48,-0.66,0.61
1.46,-0.72,0.62
1.44,-0.79,0.62
1.42,-0.87,0.61
1.4,-0.92,0.63
1.39,-0.98,0.66
1.36,-1.04,0.68
1.33,-1.11,0.7
1.28,-1.21,0.7
1.27,-1.24,0.7
1.26,-1.28,0.7
1.22,-1.33,0.72
1.18,-1.36,0.74
1.15,-1.38,0.76
1.13,-1.4,0.76
1.11,-1.43,0.77
1.09,-1.45,0.78
1.06,-1.43,0.8
1.02,-1.43,0.8
0.99,-1.44,0.79
0.95,-1.44,0.8
0.91,-1.43,0.85
0.88,-1.43,0.88
0.87,-1.43,0.91
0.82,-1.44,0.92
0.78,-1.46,0.92
0.76,-1.47,0.92
0.7,-1.45,0.92
0.64,-1.45,0.93
0.61,-1.45,0.94
0.65,-1.43,0.97
0.69,-1.45,1.04
0.68,-1.47,1.09
0.64,-1.46,1.1
0.55,-1.42,1.04
0.51,-1.43,1.01
0.47,-1.44,1.01
0.4,-1.44,1.06
0.35,-1.42,1.14
0.33,-1.39,1.21
0.31,-1.36,1.23
0.26,-1.32,1.2
0.21,-1.3,1.17
0.14,-1.28,1.15
0.05,-1.27,1.13
-0.02,-1.25,1.13
-0.04,-1.19,1.17
-0.05,-1.17,1.2
-0.09,-1.15,1.22
-0.11,-1.09,1.23
-0.15,-1.03,1.23
-0.21,-0.99,1.2
-0.26,-0.93,1.16
-0.29,-0.88,1.15
-0.32,-0.86,1.16
-0.33,-0.84,1.18
-0.33,-0.8,1.17
-0.3,-0.78,1.18
-0.31,-0.77,1.18
-0.32,-0.75,1.17
-0.31,-0.75,1.15
-0.27,-0.74,1.13
-0.24,-0.76,1.11
-0.21,-0.78,1.11
-0.18,-0.77,1.1
-0.17,-0.77,1.08
-0.15,-0.78,1.06
-0.14,-0.78,1.05
-0.11,-0.79,1.06
-0.09,-0.8,1.06
-0.07,-0.81,1.04
-0.07,-0.82,1.02
-0.06,-0.83,1.03
-0.05,-0.83,1.03
-0.03,-0.85,1.05
0,-0.86,1.06
0.03,-0.88,1.06
0.05,-0.9,1.02
0.05,-0.92,1
0.07,-0.94,1.01
0.1,-0.96,1.04
0.13,-0.97,1.07
0.14,-0.98,1.09
0.15,-0.99,1.1
0.16,-1.01,1.08
0.16,-1.02,1.04
0.17,-1.05,1.06
0.22,-1.07,1.08
0.25,-1.08,1.09
0.28,-1.1,1.08
0.29,-1.12,1.05
0.3,-1.14,1.03
0.32,-1.16,1.02
0.33,-1.2,1.01
0.35,-1.24,1.01
0.36,-1.28,1.03
0.36,-1.35,1.03
0.38,-1.4,1.02
0.41,-1.45,1
0.45,-1.48,0.98
0.49,-1.48,0.98
0.55,-1.52,0.96
0.62,-1.55,0.94
0.68,-1.54,0.93
0.7,-1.53,0.93
0.71,-1.53,0.93
0.72,-1.54,0.91
0.75,-1.56,0.92
0.78,-1.55,0.94
0.81,-1.53,0.95
0.83,-1.5,0.92
0.83,-1.47,0.88
0.86,-1.44,0.86
0.9,-1.41,0.84
0.91,-1.38,0.82
0.93,-1.33,0.76
0.98,-1.25,0.7
1.05,-1.18,0.67
1.12,-1.12,0.65
1.21,-1.04,0.63
1.28,-0.96,0.61
1.35,-0.92,0.58
1.36,-0.91,0.55
1.34,-0.88,0.53
1.34,-0.82,0.51
1.39,-0.74,0.49
1.45,-0.66,0.48
1.49,-0.59,0.47
1.53,-0.54,0.49
1.53,-0.49,0.51
1.48,-0.44,0.5
1.43,-0.38,0.48
1.42,-0.34,0.48
1.44,-0.31,0.51
1.5,-0.28,0.55
1.54,-0.24,0.57
1.55,-0.21,0.57
1.56,-0.18,0.57
1.56,-0.15,0.6
1.57,-0.11,0.61
1.55,-0.11,0.63
1.51,-0.11,0.64
1.5,-0.11,0.65
1.51,-0.11,0.66
1.51,-0.11,0.67
1.48,-0.12,0.69
1.46,-0.13,0.72
1.43,-0.14,0.74
1.42,-0.16,0.75
1.41,-0.16,0.74
1.39,-0.17,0.73
1.39,-0.18,0.73
1.4,-0.19,0.75
1.41,-0.2,0.77
1.45,-0.23,0.75
1.5,-0.27,0.72
1.52,-0.33,0.71
1.53,-0.39,0.7
1.52,-0.44,0.68
1.48,-0.46,0.66
1.44,-0.49,0.67
1.41,-0.53,0.7
1.39,-0.58,0.72
1.39,-0.62,0.73
1.38,-0.65,0.71
1.38,-0.76,0.7
1.34,-0.79,0.7
1.3,-0.81,0.71
1.28,-0.84,0.71
1.25,-0.87,0.71
1.22,-0.9,0.73
1.2,-0.93,0.76
1.18,-0.98,0.77
1.15,-1.03,0.77
1.12,-1.05,0.77
1.08,-1.05,0.75
1.06,-1.03,0.75
1.02,-1.02,0.75
0.98,-1.02,0.75
0.92,-1.02,0.74
0.87,-1.02,0.71
0.83,-1.02,0.68
0.8,-1.03,0.66
0.79,-1.03,0.67
0.79,-1.05,0.7
0.77,-1.06,0.73
0.74,-1.06,0.77
0.72,-1.07,0.78
0.72,-1.09,0.79
0.73,-1.11,0.81
0.71,-1.14,0.85
0.61,-1.17,0.87
0.59,-1.17,0.9
0.56,-1.17,0.92
0.52,-1.17,0.94
0.48,-1.17,0.96
0.47,-1.16,0.98
0.48,-1.15,0.99
0.49,-1.16,1
0.49,-1.18,1.02
0.45,-1.19,1.04
0.38,-1.17,1.06
0.32,-1.14,1.04
0.24,-1.11,1.04
0.21,-1.08,1.05
0.19,-1.07,1.08
0.14,-1.05,1.09
0.08,-1.02,1.07
0.05,-0.98,1.07
0.02,-0.94,1.08
-0.01,-0.91,1.06
-0.01,-0.86,1.05
-0.04,-0.81,1.05
-0.11,-0.77,1.06
-0.16,-0.72,1.05
-0.2,-0.67,1.04
-0.23,-0.64,1.06
-0.33,-0.6,1.11
-0.36,-0.57,1.11
-0.39,-0.53,1.12
-0.46,-0.52,1.12
-0.5,-0.53,1.13
-0.49,-0.52,1.14
-0.48,-0.53,1.16
-0.45,-0.55,1.18
-0.43,-0.56,1.18
-0.41,-0.58,1.19
-0.42,-0.6,1.2
-0.41,-0.61,1.19
-0.41,-0.63,1.18
-0.41,-0.64,1.17
-0.4,-0.65,1.16
-0.4,-0.66,1.16
-0.38,-0.67,1.15
-0.37,-0.67,1.15
-0.37,-0.67,1.14
-0.39,-0.67,1.13
-0.39,-0.69,1.11
-0.39,-0.71,1.1
-0.39,-0.73,1.09
-0.39,-0.75,1.1
-0.37,-0.77,1.12
-0.34,-0.79,1.11
-0.32,-0.82,1.08
-0.29,-0.84,1.09
-0.28,-0.85,1.1
-0.26,-0.85,1.11
-0.25,-0.86,1.11
-0.25,-0.88,1.11
-0.25,-0.89,1.11
-0.23,-0.9,1.11
-0.22,-0.92,1.09
-0.22,-0.94,1.08
-0.2,-0.95,1.11
-0.17,-0.97,1.12
-0.15,-0.98,1.12
-0.12,-0.99,1.14
-0.1,-1.01,1.13
-0.09,-1.03,1.12
-0.08,-1.05,1.12
-0.07,-1.07,1.12
-0.06,-1.08,1.12
-0.03,-1.1,1.12
0,-1.12,1.1
0.05,-1.14,1.08
0.08,-1.16,1.07
0.1,-1.18,1.05
0.13,-1.22,1.04
0.19,-1.27,1.02
0.28,-1.33,1.01
0.51,-1.33,0.98
0.58,-1.29,0.94
0.59,-1.25,0.91
0.61,-1.24,0.89
0.64,-1.21,0.89
0.68,-1.19,0.9
0.73,-1.2,0.92
0.79,-1.2,0.92
0.85,-1.17,0.9
0.9,-1.13,0.83
0.96,-1.03,0.75
0.96,-0.94,0.75
0.89,-0.92,0.79
0.85,-0.91,0.82
0.85,-0.9,0.82
0.89,-0.85,0.8
0.95,-0.79,0.79
0.96,-0.77,0.81
0.93,-0.78,0.84
0.92,-0.78,0.85
0.96,-0.77,0.83
1.02,-0.75,0.83
1.09,-0.72,0.85
1.17,-0.69,0.87
1.28,-0.63,0.89
1.37,-0.54,0.88
1.54,-0.37,0.88
1.63,-0.28,0.87
1.67,-0.22,0.84
1.66,-0.19,0.79
1.61,-0.17,0.74
1.56,-0.16,0.72
1.56,-0.14,0.73
1.61,-0.12,0.76
1.65,-0.1,0.78
1.66,-0.08,0.78
1.63,-0.06,0.77
1.56,-0.05,0.75
1.49,-0.04,0.75
1.45,-0.04,0.77
1.43,-0.04,0.76
1.42,-0.04,0.76
1.41,-0.04,0.75
1.39,-0.05,0.75
1.38,-0.05,0.74
1.38,-0.06,0.74
1.36,-0.09,0.73
1.34,-0.12,0.72
1.32,-0.14,0.71
1.3,-0.17,0.71
1.3,-0.19,0.72
1.31,-0.23,0.73
1.28,-0.31,0.72
1.26,-0.35,0.72
1.24,-0.39,0.73
1.25,-0.43,0.75
1.27,-0.48,0.78
1.29,-0.53,0.81
1.33,-0.58,0.83
1.38,-0.64,0.85
1.4,-0.74,0.87
1.38,-0.85,0.9
1.36,-0.98,0.93
1.34,-1.08,0.95
1.29,-1.14,0.94
1.23,-1.16,0.92
1.17,-1.19,0.92
1.12,-1.18,0.93
1.06,-1.14,0.95
1,-1.09,0.97
0.92,-1.07,0.98
0.84,-1.07,1
0.76,-1.05,1.02
0.68,-1.03,1.03
0.63,-1.02,1.05
0.59,-1,1.05
0.56,-0.98,1.05
0.54,-0.97,1.08
0.48,-0.98,1.09
0.48,-0.99,1.09
0.45,-1.02,1.08
0.43,-1.05,1.06
0.4,-1.07,1.06
0.4,-1.11,1.05
0.51,-1.17,1.05
0.63,-1.21,1.07
0.67,-1.25,1.12
0.65,-1.33,1.14
0.54,-1.36,1.1
0.39,-1.36,1.06
0.32,-1.36,1.06
0.33,-1.37,1.08
0.31,-1.39,1.1
0.28,-1.4,1.1
0.2,-1.41,1.1
0.11,-1.41,1.1
0.04,-1.39,1.1
-0.07,-1.35,1.1
-0.22,-1.31,1.12
-0.31,-1.28,1.12
-0.36,-1.23,1.1
-0.41,-1.22,1.1
-0.47,-1.2,1.09
-0.48,-1.19,1.11
-0.45,-1.1,1.1
-0.45,-1.09,1.1
-0.48,-1.1,1.11
-0.49,-1.09,1.1
-0.51,-1.07,1.08
-0.54,-1.05,1.1
-0.54,-0.99,1.1
-0.52,-0.97,1.1
-0.5,-0.95,1.11
-0.48,-0.89,1.1
-0.49,-0.88,1.08
-0.51,-0.87,1.06
-0.52,-0.85,1.05
-0.52,-0.83,1.05
-0.52,-0.8,1.05
-0.5,-0.77,1.04
-0.48,-0.75,1.02
-0.45,-0.71,1.01
-0.44,-0.69,1.01
-0.44,-0.68,1
-0.46,-0.66,0.99
-0.46,-0.65,0.98
-0.45,-0.66,0.96
-0.44,-0.66,0.94
-0.43,-0.67,0.92
-0.42,-0.68,0.91
-0.36,-0.73,0.94
-0.33,-0.76,0.97
-0.31,-0.79,1.01
-0.29,-0.81,1.05
-0.28,-0.84,1.08
-0.26,-0.87,1.09
-0.24,-0.9,1.08
-0.23,-0.94,1.07
-0.21,-0.98,1.05
-0.19,-1.02,1.04
-0.16,-1.05,1.03
-0.12,-1.08,1.03
-0.09,-1.11,1.06
-0.07,-1.14,1.11
-0.04,-1.16,1.15
-0.01,-1.19,1.15
0,-1.2,1.14
-0.01,-1.22,1.12
-0.02,-1.24,1.09
-0.03,-1.27,1.06
-0.02,-1.3,1.05
0.03,-1.32,1.06
0.07,-1.34,1.07
0.1,-1.36,1.08
0.1,-1.37,1.05
0.11,-1.37,1.03
0.15,-1.4,1
0.25,-1.39,0.98
0.31,-1.39,0.97
0.37,-1.4,0.98
0.42,-1.38,0.98
0.48,-1.34,0.99
0.51,-1.35,1
0.53,-1.36,1
0.54,-1.33,0.99
0.54,-1.3,0.99
0.52,-1.3,0.99
0.5,-1.32,0.99
0.48,-1.33,0.99
0.45,-1.34,0.96
0.43,-1.35,0.94
0.47,-1.35,0.94
0.55,-1.36,0.94
0.6,-1.4,0.97
0.63,-1.41,0.99
0.64,-1.4,0.94
0.68,-1.36,0.9
0.77,-1.33,0.93
0.86,-1.29,0.96
0.9,-1.23,0.96
0.9,-1.15,0.93
0.97,-1.03,0.89
1.13,-0.87,0.89
1.39,-0.85,0.9
1.51,-0.79,0.86
1.64,-0.69,0.81
1.7,-0.58,0.75
1.72,-0.45,0.69
1.73,-0.35,0.65
1.72,-0.29,0.63
1.67,-0.23,0.62
1.61,-0.2,0.61
1.56,-0.18,0.61
1.54,-0.14,0.61
1.57,-0.1,0.6
1.6,-0.09,0.57
1.61,-0.08,0.54
1.61,-0.06,0.49
1.59,-0.02,0.48
1.57,0.01,0.51
1.59,0.03,0.53
1.6,0.03,0.54
1.59,0,0.53
1.55,-0.02,0.53
1.52,-0.02,0.54
1.51,-0.03,0.56
1.48,-0.05,0.57
1.45,-0.06,0.58
1.45,-0.08,0.6
1.47,-0.14,0.62
1.47,-0.16,0.66
1.48,-0.2,0.72
1.48,-0.26,0.79
1.46,-0.3,0.84
1.41,-0.35,0.85
1.34,-0.37,0.85
1.3,-0.39,0.87
1.29,-0.44,0.93
1.28,-0.49,0.98
1.25,-0.53,1.01
1.22,-0.58,1.01
1.18,-0.64,1.02
1.13,-0.69,1.02
1.08,-0.75,1
1.04,-0.78,0.98
1.04,-0.8,0.98
1.04,-0.86,0.99
1.02,-0.93,0.99
1,-0.97,0.97
0.97,-1.01,0.92
0.96,-1.05,0.88
0.96,-1.07,0.86
0.95,-1.08,0.85
0.94,-1.08,0.87
0.92,-1.11,0.9
0.9,-1.19,0.87
0.87,-1.2,0.84
0.83,-1.19,0.82
0.79,-1.17,0.79
0.78,-1.16,0.75
0.78,-1.17,0.73
0.77,-1.2,0.73
0.72,-1.21,0.74
0.65,-1.16,0.76
0.59,-1.13,0.75
0.54,-1.12,0.73
0.51,-1.1,0.69
0.47,-1.11,0.64
0.43,-1.14,0.62
0.4,-1.14,0.63
0.41,-1.12,0.68
0.4,-1.14,0.73
0.37,-1.16,0.77
0.36,-1.18,0.8
0.34,-1.18,0.82
0.32,-1.19,0.84
0.3,-1.21,0.87
0.28,-1.22,0.9
0.29,-1.21,0.95
0.27,-1.19,1
0.23,-1.17,1.08
0.2,-1.16,1.14
0.19,-1.16,1.2
0.17,-1.16,1.22
0.14,-1.15,1.22
0.11,-1.13,1.24
0.06,-1.08,1.26
0.03,-1.03,1.29
0.02,-0.98,1.3
0.01,-0.95,1.31
-0.03,-0.91,1.32
-0.06,-0.88,1.33
-0.08,-0.84,1.31
-0.1,-0.79,1.3
-0.1,-0.75,1.29
-0.08,-0.73,1.29
-0.09,-0.69,1.29
-0.11,-0.64,1.27
-0.1,-0.61,1.27
-0.11,-0.58,1.26
-0.11,-0.57,1.26
-0.08,-0.55,1.24
-0.07,-0.54,1.21
-0.08,-0.54,1.15
-0.06,-0.55,1.07
-0.03,-0.56,1.03
0.01,-0.59,1.06
0.1,-0.62,1.09
0.15,-0.64,1.12
0.19,-0.66,1.13
0.21,-0.68,1.13
0.22,-0.69,1.09
0.23,-0.71,1.02
0.24,-0.74,0.97
0.25,-0.76,0.96
0.26,-0.77,0.98
0.26,-0.77,1.02
0.25,-0.77,1.07
0.26,-0.79,1.1
0.28,-0.8,1.11
0.29,-0.81,1.11
0.29,-0.82,1.07
0.3,-0.83,1.03
0.32,-0.84,1.01
0.34,-0.86,1.02
0.34,-0.87,1.02
0.33,-0.88,1
0.34,-0.91,1
0.38,-0.92,1.03
0.42,-0.93,1.05
0.43,-0.94,1.06
0.42,-0.95,1.06
0.41,-0.98,1.06
0.44,-1,1.08
0.46,-1.02,1.09
0.46,-1.05,1.09
0.47,-1.09,1.06
0.47,-1.12,1.04
0.46,-1.14,1.03
0.46,-1.15,1.04
0.46,-1.16,1.04
0.45,-1.18,1.03
0.44,-1.18,1.06
0.43,-1.18,1.09
0.42,-1.22,1.06
0.41,-1.27,1.04
0.42,-1.27,1.04
0.48,-1.25,1.02
0.6,-1.23,0.98
0.69,-1.18,0.94
0.74,-1.11,0.92
0.76,-1.05,0.89
0.75,-0.99,0.87
0.69,-0.93,0.88
0.65,-0.9,0.9
0.65,-0.88,0.89
0.66,-0.86,0.88
0.67,-0.81,0.87
0.69,-0.77,0.83
0.71,-0.7,0.78
0.75,-0.67,0.75
0.81,-0.64,0.74
0.9,-0.61,0.76
0.98,-0.59,0.82
1.01,-0.57,0.86
1,-0.54,0.83
1.01,-0.5,0.77
1.07,-0.45,0.75
1.16,-0.4,0.76
1.22,-0.38,0.77
1.26,-0.34,0.78
1.32,-0.29,0.79
1.39,-0.23,0.79
1.45,-0.19,0.78
1.5,-0.16,0.75
1.57,-0.12,0.76
1.64,-0.09,0.79
1.66,-0.08,0.81
1.66,-0.06,0.82
1.65,-0.04,0.82
1.64,-0.03,0.83
1.62,-0.03,0.83
1.6,-0.04,0.83
1.59,-0.05,0.83
1.58,-0.05,0.82
1.57,-0.06,0.79
1.54,-0.08,0.79
1.5,-0.11,0.81
1.47,-0.14,0.82
1.44,-0.17,0.82
1.42,-0.2,0.81
1.4,-0.25,0.79
1.41,-0.3,0.78
1.44,-0.34,0.78
1.43,-0.37,0.8
1.39,-0.42,0.81
1.37,-0.48,0.81
1.37,-0.53,0.81
1.36,-0.58,0.8
1.34,-0.64,0.8
1.33,-0.72,0.82
1.3,-0.79,0.86
1.26,-0.84,0.89
1.22,-0.9,0.89
1.19,-0.95,0.89
1.17,-1,0.88
1.14,-1.05,0.87
1.11,-1.11,0.87
1.08,-1.17,0.9
1.04,-1.24,0.93
0.99,-1.27,0.91
0.92,-1.28,0.86
0.81,-1.26,0.85
0.8,-1.25,0.86
0.81,-1.25,0.9
0.83,-1.25,0.92
0.82,-1.25,0.92
0.78,-1.26,0.93
0.75,-1.25,0.94
0.72,-1.26,0.94
0.67,-1.27,0.93
0.66,-1.28,0.93
0.7,-1.28,0.93
0.73,-1.29,0.92
0.72,-1.32,0.9
0.7,-1.38,0.91
0.68,-1.41,0.94
0.65,-1.38,0.92
0.6,-1.39,0.92
0.55,-1.41,0.93
0.54,-1.41,0.94
0.55,-1.41,0.95
0.53,-1.42,0.95
0.49,-1.43,0.96
0.43,-1.43,1
0.38,-1.42,1.03
0.34,-1.41,1.03
0.29,-1.42,1.01
0.18,-1.42,1.02
0.13,-1.42,1.04
0.06,-1.42,1.08
0.01,-1.38,1.13
-0.05,-1.33,1.16
-0.09,-1.29,1.18
-0.1,-1.26,1.17
-0.14,-1.23,1.16
-0.17,-1.18,1.16
-0.17,-1.18,1.19
-0.2,-1.17,1.22
-0.24,-1.12,1.23
-0.27,-1.06,1.23
-0.29,-1,1.22
-0.31,-0.93,1.24
-0.32,-0.88,1.27
-0.31,-0.82,1.28
-0.29,-0.8,1.29
-0.3,-0.75,1.28
-0.34,-0.7,1.26
-0.35,-0.67,1.24
-0.37,-0.64,1.22
-0.36,-0.63,1.21
-0.33,-0.6,1.18
-0.3,-0.58,1.15
-0.29,-0.58,1.12
-0.23,-0.6,1.1
-0.2,-0.61,1.09
-0.19,-0.61,1.09
-0.17,-0.63,1.1
-0.14,-0.65,1.1
-0.12,-0.68,1.12
-0.09,-0.71,1.15
-0.09,-0.73,1.18
-0.1,-0.75,1.17
-0.12,-0.78,1.15
-0.13,-0.81,1.11
-0.13,-0.83,1.1
-0.1,-0.86,1.11
-0.06,-0.88,1.14
-0.01,-0.9,1.15
0.02,-0.91,1.16
0.04,-0.91,1.17
0.06,-0.92,1.16
0.07,-0.93,1.14
0.08,-0.94,1.11
0.07,-0.95,1.07
0.08,-0.97,1.05
0.11,-0.98,1.06
0.14,-1,1.09
0.17,-1.03,1.12
0.19,-1.05,1.13
0.23,-1.07,1.12
0.24,-1.1,1.11
0.25,-1.14,1.11
0.25,-1.18,1.11
0.25,-1.21,1.1
0.24,-1.25,1.08
0.25,-1.29,1.08
0.27,-1.33,1.09
0.3,-1.38,1.08
0.34,-1.41,1.05
0.39,-1.42,1.01
0.43,-1.42,0.96
0.48,-1.43,0.95
0.57,-1.45,0.95
0.68,-1.43,0.93
0.74,-1.38,0.9
0.76,-1.33,0.86
0.77,-1.32,0.82
0.76,-1.28,0.81
0.75,-1.24,0.82
0.74,-1.25,0.86
0.72,-1.27,0.88
0.7,-1.27,0.88
0.68,-1.26,0.86
0.7,-1.24,0.86
0.76,-1.19,0.87
0.83,-1.06,0.81
0.94,-1,0.78
1,-0.93,0.77
1.12,-0.87,0.76
1.22,-0.82,0.77
1.28,-0.77,0.78
1.29,-0.73,0.77
1.29,-0.71,0.76
1.3,-0.69,0.78
1.34,-0.64,0.82
1.37,-0.58,0.84
1.37,-0.52,0.84
1.39,-0.46,0.84
1.45,-0.39,0.83
1.52,-0.31,0.85
1.62,-0.24,0.89
1.69,-0.22,0.9
1.7,-0.2,0.88
1.67,-0.17,0.84
1.64,-0.15,0.81
1.63,-0.11,0.8
1.61,-0.09,0.8
1.6,-0.08,0.8
1.57,-0.07,0.8
1.53,-0.07,0.78
1.5,-0.06,0.76
1.47,-0.08,0.75
1.43,-0.1,0.75
1.41,-0.11,0.75
1.39,-0.13,0.74
1.36,-0.15,0.74
1.34,-0.16,0.74
1.33,-0.17,0.73
1.33,-0.19,0.75
1.33,-0.23,0.76
1.34,-0.26,0.77
1.36,-0.29,0.79
1.39,-0.33,0.82
1.4,-0.36,0.82
1.39,-0.39,0.81
1.38,-0.44,0.79
1.35,-0.5,0.78
1.32,-0.56,0.78
1.3,-0.61,0.78
1.29,-0.65,0.8
1.27,-0.69,0.82
1.22,-0.73,0.83
1.18,-0.76,0.82
1.15,-0.79,0.81
1.11,-0.8,0.82
1.08,-0.82,0.83
1.03,-0.83,0.84
1,-0.86,0.83
0.94,-0.87,0.83
0.91,-0.89,0.82
0.88,-0.92,0.81
0.86,-0.93,0.8
0.84,-0.94,0.79
0.82,-0.96,0.77
0.82,-0.96,0.75
0.84,-0.97,0.74
0.83,-1.02,0.74
0.81,-1.05,0.78
0.8,-1.08,0.82
0.81,-1.09,0.82
0.8,-1.1,0.79
0.77,-1.15,0.75
0.74,-1.18,0.74
0.7,-1.19,0.74
0.65,-1.18,0.78
0.62,-1.18,0.84
0.58,-1.17,0.89
0.54,-1.16,0.91
0.52,-1.17,0.92
0.49,-1.16,0.92
0.47,-1.15,0.91
0.43,-1.17,0.93
0.39,-1.2,0.96
0.35,-1.22,1.11
0.27,-1.22,1.16
0.25,-1.2,1.18
0.23,-1.17,1.19
0.23,-1.14,1.18
0.26,-1.13,1.16
0.25,-1.16,1.18
0.21,-1.18,1.23
0.15,-1.18,1.28
0.1,-1.16,1.3
0.05,-1.11,1.29
0.02,-1.07,1.27
0.01,-1.01,1.26
-0.01,-0.99,1.25
-0.05,-0.99,1.26
-0.07,-0.97,1.28
-0.1,-0.95,1.29
-0.14,-0.92,1.3
-0.17,-0.88,1.29
-0.2,-0.82,1.26
-0.23,-0.77,1.22
-0.26,-0.73,1.19
-0.28,-0.7,1.18
-0.29,-0.67,1.17
-0.26,-0.64,1.17
-0.27,-0.61,1.18
-0.29,-0.55,1.13
-0.3,-0.48,1.1
-0.31,-0.46,1.09
-0.31,-0.44,1.07
-0.3,-0.42,1.07
-0.3,-0.42,1.08
-0.29,-0.42,1.09
-0.28,-0.43,1.09
-0.28,-0.44,1.1
-0.27,-0.45,1.1
-0.27,-0.47,1.1
-0.26,-0.49,1.1
-0.24,-0.53,1.11
-0.23,-0.56,1.12
-0.21,-0.59,1.13
-0.18,-0.62,1.13
-0.16,-0.66,1.13
-0.14,-0.69,1.14
-0.13,-0.72,1.16
-0.12,-0.73,1.16
-0.11,-0.76,1.15
-0.1,-0.78,1.12
-0.09,-0.8,1.07
-0.08,-0.82,1.05
-0.05,-0.84,1.06
-0.02,-0.86,1.07
0,-0.89,1.12
0.03,-0.94,1.14
0.02,-0.96,1.14
0.02,-0.99,1.12
0.02,-1.02,1.1
0.02,-1.05,1.09
0.04,-1.09,1.09
0.06,-1.12,1.1
0.08,-1.15,1.11
0.09,-1.17,1.1
0.1,-1.19,1.09
0.12,-1.19,1.09
0.14,-1.18,1.09
0.16,-1.17,1.08
0.18,-1.17,1.07
0.2,-1.14,1.05
0.23,-1.14,1.02
0.25,-1.15,1.02
0.27,-1.14,1.04
0.29,-1.13,1.05
0.3,-1.11,1.05
0.32,-1.08,1.05
0.33,-1.06,1.05
0.36,-1.05,1.05
0.39,-1.04,1.07
0.39,-1.03,1.11
0.37,-1.03,1.17
0.31,-1.02,1.16
0.27,-1,1.14
0.27,-1,1.17
0.31,-1.04,1.21
0.34,-1.07,1.21
0.36,-1.12,1.18
0.41,-1.14,1.13
0.48,-1.14,1.07
0.54,-1.13,1.04
0.65,-1.09,1.03
0.79,-1.05,1.04
0.86,-0.99,1.01
0.85,-0.94,0.95
0.86,-0.89,0.89
0.93,-0.83,0.82
1.02,-0.76,0.79
1.11,-0.72,0.8
1.18,-0.69,0.8
1.21,-0.66,0.76
1.2,-0.6,0.69
1.18,-0.53,0.62
1.19,-0.48,0.6
1.25,-0.43,0.64
1.33,-0.38,0.69
1.4,-0.33,0.75
1.46,-0.3,0.77
1.49,-0.2,0.72
1.47,-0.15,0.7
1.46,-0.12,0.7
1.48,-0.1,0.71
1.51,-0.07,0.73
1.52,-0.05,0.75
1.51,-0.05,0.77
1.48,-0.05,0.78
1.44,-0.06,0.78
1.4,-0.06,0.81
1.37,-0.06,0.84
1.35,-0.06,0.86
1.34,-0.07,0.87
1.34,-0.09,0.88
1.34,-0.11,0.88
1.33,-0.13,0.88
1.3,-0.15,0.89
1.28,-0.17,0.88
1.3,-0.18,0.87
1.34,-0.21,0.87
1.37,-0.25,0.88
1.38,-0.32,0.9
1.35,-0.38,0.9
1.3,-0.42,0.89
1.27,-0.45,0.88
1.24,-0.48,0.87
1.22,-0.58,0.89
1.2,-0.65,0.88
1.19,-0.7,0.86
1.16,-0.74,0.83
1.14,-0.77,0.82
1.12,-0.79,0.82
1.11,-0.82,0.85
1.11,-0.86,0.87
1.11,-0.9,0.87
1.11,-0.96,0.87
1.1,-1.02,0.87
1.07,-1.07,0.86
1.04,-1.1,0.86
0.99,-1.15,0.85
0.92,-1.19,0.85
0.87,-1.22,0.88
0.84,-1.25,0.91
0.82,-1.25,0.92
0.78,-1.26,0.92
0.72,-1.29,0.91
0.68,-1.3,0.89
0.64,-1.31,0.88
0.6,-1.31,0.89
0.57,-1.29,0.91
0.53,-1.27,0.93
0.49,-1.27,0.95
0.45,-1.25,0.92
0.41,-1.25,0.92
0.4,-1.24,0.91
0.41,-1.23,0.91
0.4,-1.22,0.98
0.41,-1.21,1.04
0.41,-1.21,1.02
0.4,-1.21,0.96
0.38,-1.22,0.92
0.35,-1.23,0.93
0.32,-1.26,0.97
0.29,-1.27,1.01
0.28,-1.22,1.03
0.27,-1.19,1.04
0.25,-1.2,1.05
0.26,-1.17,1.04
0.24,-1.15,1.06
0.2,-1.16,1.07
0.17,-1.17,1.07
0.14,-1.16,1.08
0.13,-1.13,1.1
0.09,-1.12,1.11
0.03,-1.11,1.11
-0.02,-1.1,1.09
-0.01,-1.08,1.09
0.01,-1.07,1.09
-0.01,-1.07,1.11
-0.07,-1,1.12
-0.11,-0.97,1.11
-0.14,-0.95,1.09
-0.15,-0.92,1.08
-0.16,-0.92,1.09
-0.19,-0.92,1.11
-0.23,-0.89,1.11
-0.25,-0.84,1.12
-0.29,-0.78,1.11
-0.36,-0.73,1.07
-0.43,-0.7,1.05
-0.48,-0.66,1.07
-0.52,-0.62,1.1
-0.58,-0.62,1.13
-0.6,-0.61,1.17
-0.59,-0.58,1.19
-0.59,-0.58,1.2
-0.59,-0.58,1.2
-0.58,-0.57,1.2
-0.57,-0.59,1.18
-0.56,-0.61,1.17
-0.54,-0.65,1.16
-0.49,-0.68,1.14
-0.45,-0.71,1.12
-0.43,-0.74,1.11
-0.42,-0.77,1.12
-0.39,-0.82,1.13
-0.37,-0.84,1.14
-0.35,-0.87,1.14
-0.31,-0.91,1.13
-0.29,-0.94,1.12
-0.28,-0.97,1.1
-0.27,-0.99,1.06
-0.27,-1.01,1.04
-0.25,-1.04,1.05
-0.22,-1.07,1.06
-0.2,-1.08,1.06
-0.19,-1.09,1.06
-0.16,-1.1,1.06
-0.13,-1.11,1.07
-0.1,-1.13,1.08
-0.08,-1.16,1.08
-0.06,-1.19,1.05
-0.04,-1.21,1.02
-0.01,-1.22,1.02
0.02,-1.23,1.02
0.06,-1.24,1.02
0.11,-1.25,1.03
0.15,-1.25,1.04
0.18,-1.26,1.05
0.21,-1.28,1.04
0.24,-1.29,1.04
0.27,-1.27,1.02
0.27,-1.28,1.01
0.28,-1.3,1.04
0.34,-1.3,1.1
0.39,-1.3,1.13
0.4,-1.3,1.11
0.39,-1.31,1.08
0.38,-1.3,1.06
0.37,-1.3,1.06
0.37,-1.29,1.06
0.35,-1.28,1.06
0.32,-1.3,1.09
0.32,-1.34,1.13
0.36,-1.35,1.14
0.4,-1.35,1.12
0.46,-1.35,1.1
0.51,-1.37,1.06
0.54,-1.4,1.01
0.56,-1.39,0.95
0.59,-1.37,0.91
0.63,-1.36,0.88
0.68,-1.35,0.86
0.73,-1.3,0.83
0.8,-1.25,0.79
0.92,-1.21,0.76
1.03,-1.21,0.76
1,-1.2,0.7
1.01,-1.15,0.6
1.05,-1.05,0.54
1.14,-0.95,0.54
1.28,-0.88,0.61
1.35,-0.85,0.65
1.36,-0.82,0.63
1.37,-0.78,0.55
1.37,-0.74,0.48
1.36,-0.67,0.45
1.37,-0.62,0.46
1.4,-0.56,0.49
1.46,-0.48,0.52
1.56,-0.42,0.56
1.58,-0.38,0.61
1.53,-0.37,0.64
1.51,-0.35,0.71
1.52,-0.3,0.76
1.54,-0.23,0.79
1.63,-0.16,0.83
1.7,-0.13,0.87
1.69,-0.14,0.91
1.66,-0.14,0.94
1.65,-0.15,0.97
1.62,-0.15,0.97
1.59,-0.15,0.99
1.57,-0.15,0.99
1.53,-0.14,0.96
1.53,-0.14,0.93
1.53,-0.16,0.9
1.52,-0.17,0.87
1.51,-0.19,0.85
1.49,-0.2,0.83
1.48,-0.22,0.81
1.46,-0.26,0.79
1.44,-0.29,0.75
1.44,-0.33,0.7
1.43,-0.38,0.64
1.43,-0.42,0.58
1.44,-0.46,0.56
1.42,-0.5,0.57
1.38,-0.54,0.57
1.34,-0.58,0.56
1.33,-0.62,0.58
1.32,-0.67,0.58
1.31,-0.71,0.56
1.3,-0.76,0.56
1.28,-0.82,0.56
1.17,-0.97,0.63
1.17,-0.97,0.63
1.16,-1.03,0.66
1.14,-1.09,0.71
1.09,-1.12,0.72
0.88,-1.25,0.84
0.88,-1.24,0.88
0.87,-1.21,0.9
0.85,-1.2,0.9
0.84,-1.21,0.9
0.83,-1.23,0.92
0.82,-1.25,0.95
0.77,-1.25,0.95
0.75,-1.25,0.92
0.75,-1.25,0.91
0.74,-1.29,0.91
0.72,-1.34,0.93
0.73,-1.33,0.98
0.73,-1.31,1.03
0.7,-1.3,1.05
0.65,-1.29,1.06
0.59,-1.3,1.05
0.53,-1.29,1
0.46,-1.28,1.02
0.47,-1.27,1.08
0.45,-1.27,1.15
0.42,-1.26,1.2
0.4,-1.26,1.18
0.34,-1.26,1.13
0.26,-1.24,1.1
0.23,-1.21,1.11
0.23,-1.18,1.13
0.21,-1.16,1.18
0.16,-1.14,1.22
0.11,-1.12,1.23
0.08,-1.09,1.21
0.05,-1.06,1.2
0.01,-1.03,1.19
-0.02,-1.01,1.2
-0.05,-1,1.2
-0.07,-0.98,1.19
-0.07,-0.95,1.2
-0.1,-0.91,1.2
-0.12,-0.86,1.2
-0.14,-0.84,1.2
-0.15,-0.83,1.21
-0.16,-0.79,1.21
-0.18,-0.76,1.21
-0.23,-0.75,1.18
-0.27,-0.66,1.15
-0.28,-0.65,1.13
-0.27,-0.64,1.13
-0.25,-0.61,1.14
-0.23,-0.59,1.17
-0.24,-0.59,1.18
-0.25,-0.58,1.19
-0.28,-0.59,1.2
-0.29,-0.6,1.18
-0.31,-0.61,1.16
-0.31,-0.63,1.15
-0.3,-0.65,1.15
-0.28,-0.68,1.16
-0.27,-0.7,1.18
-0.27,-0.74,1.18
-0.25,-0.79,1.17
-0.22,-0.82,1.18
-0.2,-0.84,1.19
-0.17,-0.87,1.19
-0.12,-0.9,1.2
-0.07,-0.92,1.2
-0.05,-0.94,1.18
-0.03,-0.96,1.15
-0.01,-0.97,1.13
0,-0.99,1.13
0.01,-1.01,1.12
0.05,-1.02,1.11
0.08,-1.03,1.1
0.12,-1.05,1.1
0.13,-1.05,1.11
0.14,-1.05,1.12
0.16,-1.06,1.1
0.17,-1.07,1.08
0.17,-1.07,1.08
0.15,-1.07,1.06
0.13,-1.08,1.01
0.15,-1.1,1
0.18,-1.11,1.01
0.22,-1.11,1.02
0.24,-1.12,1.02
0.26,-1.12,1.02
0.29,-1.1,1.01
0.32,-1.09,0.98
0.34,-1.07,0.94
0.37,-1.05,0.92
0.38,-1.04,0.92
0.4,-1.05,0.93
0.43,-1.06,0.92
0.47,-1.07,0.91
0.52,-1.05,0.9
0.56,-1.01,0.89
0.59,-1,0.88
0.6,-0.99,0.88
0.6,-0.99,0.87
0.58,-1,0.87
0.58,-1.01,0.86
0.58,-1.02,0.86
0.58,-1.03,0.88
0.58,-1.05,0.91
0.58,-1.07,0.93
0.59,-1.1,0.9
0.6,-1.11,0.86
0.62,-1.12,0.83
0.66,-1.12,0.82
0.71,-1.13,0.83
0.75,-1.14,0.84
0.8,-1.11,0.85
0.87,-1.06,0.85
0.91,-1.03,0.83
0.93,-0.98,0.8
0.97,-0.93,0.77
1.02,-0.9,0.74
1.07,-0.86,0.72
1.12,-0.82,0.7
1.17,-0.77,0.69
1.21,-0.72,0.69
1.25,-0.69,0.69
1.27,-0.66,0.69
1.31,-0.57,0.72
1.34,-0.52,0.72
1.37,-0.48,0.73
1.39,-0.44,0.73
1.38,-0.39,0.73
1.35,-0.34,0.73
1.33,-0.3,0.74
1.38,-0.26,0.78
1.47,-0.23,0.84
1.53,-0.21,0.91
1.51,-0.19,0.94
1.45,-0.18,0.96
1.41,-0.14,0.99
1.41,-0.11,1.03
1.43,-0.09,1.07
1.42,-0.09,1.09
1.38,-0.09,1.08
1.35,-0.11,1.05
1.32,-0.11,1.04
1.28,-0.12,1.04
1.26,-0.14,1.04
1.26,-0.16,1.03
1.27,-0.19,1.02
1.28,-0.23,1
1.29,-0.26,0.98
1.28,-0.3,0.96
1.29,-0.34,0.94
1.34,-0.39,0.93
1.34,-0.43,0.91
1.32,-0.46,0.9
1.29,-0.49,0.92
1.28,-0.53,0.94
1.29,-0.56,0.93
1.31,-0.6,0.91
1.32,-0.66,0.88
1.3,-0.71,0.86
1.26,-0.77,0.84
1.19,-0.82,0.83
1.15,-0.86,0.83
1.11,-0.9,0.83
1.09,-0.93,0.83
1.09,-0.97,0.84
1.08,-1,0.84
1.04,-1.05,0.84
1.01,-1.1,0.82
0.97,-1.13,0.81
0.93,-1.17,0.8
0.88,-1.19,0.78
0.86,-1.2,0.77
0.84,-1.2,0.76
0.83,-1.2,0.77
0.81,-1.22,0.79
0.8,-1.23,0.8
0.76,-1.24,0.77
0.77,-1.24,0.75
0.79,-1.24,0.72
0.79,-1.24,0.72
0.76,-1.27,0.72
0.74,-1.29,0.73
0.69,-1.29,0.76
0.63,-1.3,0.79
0.58,-1.31,0.81
0.53,-1.32,0.84
0.5,-1.33,0.86
0.49,-1.29,0.88
0.45,-1.26,0.91
0.45,-1.24,0.93
0.48,-1.19,0.96
0.47,-1.17,0.98
0.43,-1.2,1
0.38,-1.19,1.02
0.35,-1.16,1.04
0.33,-1.14,1.07
0.31,-1.14,1.1
0.28,-1.14,1.11
0.25,-1.13,1.11
0.22,-1.11,1.12
0.21,-1.1,1.15
0.2,-1.07,1.2
0.18,-1.08,1.23
0.16,-1.07,1.27
0.12,-1.06,1.29
0.07,-1.03,1.29
0.03,-1,1.27
-0.01,-0.96,1.23
-0.03,-0.91,1.21
-0.05,-0.89,1.23
-0.07,-0.86,1.25
-0.07,-0.8,1.26
-0.07,-0.76,1.24
-0.09,-0.71,1.22
-0.12,-0.68,1.18
-0.15,-0.64,1.15
-0.17,-0.6,1.11
-0.19,-0.6,1.1
-0.19,-0.55,1.1
-0.17,-0.5,1.13
-0.15,-0.48,1.16
-0.12,-0.45,1.18
-0.13,-0.44,1.18
-0.15,-0.44,1.16
-0.17,-0.43,1.16
-0.18,-0.42,1.19
-0.17,-0.42,1.24
-0.16,-0.44,1.26
-0.13,-0.48,1.26
-0.13,-0.5,1.25
-0.12,-0.51,1.22
-0.12,-0.54,1.2
-0.11,-0.55,1.18
-0.1,-0.57,1.17
-0.1,-0.6,1.16
-0.08,-0.63,1.17
-0.05,-0.67,1.18
-0.04,-0.69,1.19
-0.03,-0.72,1.2
-0.01,-0.75,1.21
0.02,-0.79,1.2
0.04,-0.81,1.16
0.06,-0.85,1.13
0.09,-0.88,1.13
0.1,-0.9,1.15
0.11,-0.93,1.17
0.12,-0.96,1.17
0.14,-0.99,1.17
0.15,-1.01,1.16
0.14,-1.02,1.12
0.14,-1.04,1.11
0.17,-1.06,1.1
0.18,-1.07,1.1
0.18,-1.09,1.12
0.22,-1.11,1.13
0.23,-1.12,1.13
0.24,-1.13,1.1
0.25,-1.13,1.07
0.25,-1.13,1.05
0.27,-1.12,1.04
0.3,-1.12,1.03
0.33,-1.12,1.02
0.36,-1.12,1
0.38,-1.13,0.98
0.4,-1.14,0.95
0.43,-1.13,0.93
0.46,-1.12,0.91
0.48,-1.14,0.9
0.5,-1.15,0.89
0.51,-1.17,0.87
0.52,-1.19,0.86
0.55,-1.21,0.85
0.58,-1.22,0.83
0.59,-1.24,0.82
0.58,-1.27,0.82
0.59,-1.26,0.82
0.63,-1.22,0.8
0.69,-1.19,0.79
0.75,-1.19,0.79
0.79,-1.19,0.78
0.75,-1.2,0.73
0.77,-1.18,0.68
0.82,-1.15,0.68
0.86,-1.14,0.72
0.89,-1.12,0.76
0.88,-1.09,0.77
0.9,-1.07,0.74
1.02,-1.01,0.74
1.15,-0.93,0.76
1.23,-0.87,0.77
1.29,-0.8,0.76
1.33,-0.74,0.75
1.34,-0.71,0.73
1.34,-0.66,0.71
1.39,-0.61,0.71
1.44,-0.56,0.72
1.5,-0.51,0.73
1.55,-0.46,0.73
1.58,-0.42,0.74
1.55,-0.36,0.75
1.52,-0.31,0.76
1.52,-0.28,0.8
1.52,-0.25,0.86
1.54,-0.22,0.92
1.56,-0.18,0.96
1.55,-0.17,0.95
1.47,-0.14,0.92
1.43,-0.11,0.93
1.43,-0.1,0.96
1.42,-0.11,0.98
1.41,-0.1,0.98
1.41,-0.1,0.98
1.4,-0.12,0.97
1.38,-0.14,0.95
1.37,-0.15,0.94
1.35,-0.16,0.92
1.34,-0.17,0.9
1.34,-0.18,0.88
1.36,-0.2,0.87
1.38,-0.23,0.88
1.38,-0.27,0.89
1.35,-0.31,0.88
1.32,-0.33,0.85
1.3,-0.35,0.83
1.29,-0.38,0.82
1.3,-0.43,0.8
1.33,-0.47,0.78
1.36,-0.52,0.75
1.35,-0.56,0.74
1.3,-0.59,0.73
1.24,-0.63,0.73
1.18,-0.67,0.74
1.15,-0.77,0.74
1.18,-0.82,0.73
1.16,-0.88,0.71
1.13,-0.94,0.7
1.08,-0.99,0.7
1.02,-1.03,0.71
0.98,-1.04,0.72
0.95,-1.05,0.73
0.93,-1.05,0.72
0.9,-1.07,0.69
0.87,-1.07,0.68
0.83,-1.08,0.68
0.81,-1.11,0.68
0.78,-1.14,0.68
0.76,-1.15,0.67
0.76,-1.15,0.67
0.75,-1.15,0.68
0.73,-1.16,0.72
0.7,-1.17,0.75
0.69,-1.19,0.76
0.67,-1.24,0.77
0.62,-1.3,0.78
0.59,-1.32,0.78
0.56,-1.27,0.77
0.54,-1.23,0.78
0.53,-1.24,0.82
0.55,-1.25,0.95
0.58,-1.28,0.98
0.51,-1.3,1
0.41,-1.29,0.99
0.35,-1.29,0.99
0.32,-1.3,1.01
0.29,-1.29,1.05
0.3,-1.27,1.11
0.32,-1.26,1.14
0.31,-1.25,1.15
0.24,-1.23,1.14
0.2,-1.21,1.13
0.19,-1.18,1.15
0.16,-1.16,1.19
0.13,-1.13,1.21
0.1,-1.11,1.24
0.09,-1.08,1.27
0.07,-1.07,1.29
0.05,-1.05,1.3
0.02,-1.02,1.29
-0.04,-1,1.28
-0.08,-0.95,1.28
-0.1,-0.89,1.28
-0.11,-0.84,1.28
-0.13,-0.8,1.28
-0.14,-0.74,1.3
-0.14,-0.68,1.28
-0.17,-0.62,1.26
-0.17,-0.62,1.25
-0.18,-0.6,1.24
-0.21,-0.55,1.22
-0.19,-0.52,1.2
-0.17,-0.49,1.2
-0.16,-0.47,1.19
-0.14,-0.47,1.18
-0.1,-0.46,1.17
-0.08,-0.46,1.15
-0.07,-0.45,1.13
-0.07,-0.46,1.09
-0.07,-0.48,1.06
-0.05,-0.49,1.05
-0.04,-0.52,1.04
-0.03,-0.56,1.03
-0.01,-0.6,1.03
0,-0.63,1.04
0.03,-0.66,1.05
0.06,-0.69,1.06
0.09,-0.72,1.07
0.11,-0.74,1.08
0.12,-0.76,1.07
0.12,-0.78,1.05
0.13,-0.8,1.06
0.14,-0.81,1.07
0.11,-0.82,1.07
0.1,-0.82,1.06
0.09,-0.82,1.06
0.09,-0.82,1.05
0.11,-0.82,1.05
0.13,-0.81,1.04
0.14,-0.8,1.04
0.14,-0.79,1.06
0.15,-0.79,1.08
0.16,-0.8,1.09
0.17,-0.81,1.11
0.17,-0.82,1.11
0.16,-0.81,1.1
0.13,-0.81,1.08
0.13,-0.81,1.05
0.14,-0.81,1.02
0.16,-0.82,1.01
0.18,-0.84,1.02
0.22,-0.84,1.03
0.24,-0.85,1.05
0.26,-0.86,1.06
0.28,-0.87,1.06
0.3,-0.9,1.05
0.31,-0.93,1.02
0.31,-0.95,0.99
0.33,-0.97,0.95
0.38,-1.01,0.94
0.41,-1.03,0.95
0.44,-1.04,0.94
0.44,-1.07,0.93
0.45,-1.07,0.91
0.47,-1.07,0.87
0.49,-1.07,0.84
0.52,-1.08,0.83
0.55,-1.08,0.86
0.56,-1.09,0.87
0.55,-1.12,0.85
0.54,-1.15,0.81
0.56,-1.15,0.79
0.61,-1.13,0.81
0.65,-1.12,0.83
0.67,-1.1,0.84
0.67,-1.09,0.83
0.68,-1.05,0.84
0.73,-1.01,0.82
0.8,-0.98,0.8
0.9,-0.95,0.81
1,-0.9,0.81
1.05,-0.86,0.8
1.09,-0.79,0.77
1.14,-0.72,0.76
1.2,-0.67,0.79
1.25,-0.62,0.78
1.28,-0.59,0.76
1.32,-0.55,0.75
1.35,-0.49,0.78
1.39,-0.44,0.83
1.42,-0.39,0.86
1.41,-0.35,0.86
1.4,-0.31,0.85
1.39,-0.28,0.85
1.4,-0.24,0.86
1.41,-0.21,0.87
1.41,-0.19,0.89
1.39,-0.16,0.9
1.39,-0.13,0.91
1.38,-0.12,0.91
1.36,-0.12,0.91
1.34,-0.12,0.92
1.33,-0.13,0.92
1.32,-0.13,0.91
1.31,-0.13,0.89
1.32,-0.13,0.89
1.34,-0.14,0.91
1.35,-0.16,0.93
1.35,-0.18,0.94
1.33,-0.21,0.94
1.29,-0.23,0.93
1.27,-0.26,0.91
1.28,-0.28,0.92
1.28,-0.3,0.91
1.29,-0.33,0.9
1.28,-0.37,0.89
1.28,-0.4,0.88
1.27,-0.43,0.89
1.26,-0.48,0.89
1.25,-0.52,0.86
1.26,-0.56,0.84
1.3,-0.6,0.82
1.32,-0.65,0.79
1.31,-0.71,0.75
1.3,-0.78,0.75
1.27,-0.85,0.77
1.25,-0.9,0.76
1.22,-0.94,0.74
1.17,-0.98,0.71
1.12,-1,0.69
1.06,-1,0.68
1.01,-1,0.68
0.98,-1.01,0.67
0.96,-1.02,0.65
0.93,-1.02,0.65
0.89,-1.03,0.66
0.86,-1.04,0.7
0.81,-1,0.72
0.77,-0.97,0.7
0.76,-0.95,0.69
0.71,-0.95,0.7
0.66,-0.94,0.73
0.64,-0.94,0.75
0.63,-0.94,0.78
0.61,-0.96,0.81
0.56,-0.97,0.83
0.51,-0.96,0.83
0.47,-0.95,0.84
0.48,-0.93,0.86
0.49,-0.91,0.89
0.46,-0.91,0.95
0.41,-0.91,1
0.36,-0.9,1.04
0.33,-0.9,1.06
0.31,-0.9,1.08
0.29,-0.9,1.09
0.28,-0.9,1.08
0.27,-0.89,1.07
0.31,-0.88,1.07
0.36,-0.87,1.1
0.35,-0.87,1.15
0.28,-0.86,1.21
0.22,-0.84,1.26
0.21,-0.79,1.24
0.14,-0.77,1.2
0.12,-0.76,1.19
0.11,-0.74,1.19
0.08,-0.73,1.2
0.05,-0.72,1.21
0.03,-0.72,1.21
0.02,-0.74,1.21
0.01,-0.72,1.21
-0.01,-0.7,1.22
-0.03,-0.69,1.23
-0.04,-0.68,1.23
-0.06,-0.67,1.22
-0.09,-0.67,1.21
-0.13,-0.65,1.21
-0.16,-0.62,1.19
-0.21,-0.6,1.17
-0.23,-0.58,1.18
-0.23,-0.56,1.19
-0.22,-0.55,1.19
-0.21,-0.55,1.2
-0.2,-0.55,1.2
-0.21,-0.54,1.19
-0.23,-0.52,1.18
-0.25,-0.52,1.16
-0.27,-0.51,1.17
-0.29,-0.52,1.18
-0.28,-0.54,1.17
-0.28,-0.54,1.16
-0.27,-0.55,1.14
-0.27,-0.56,1.14
-0.27,-0.58,1.14
-0.27,-0.6,1.15
-0.26,-0.63,1.15
-0.25,-0.66,1.16
-0.23,-0.69,1.16
-0.22,-0.71,1.15
-0.19,-0.74,1.16
-0.15,-0.76,1.16
-0.12,-0.78,1.16
-0.11,-0.81,1.16
-0.11,-0.84,1.16
-0.1,-0.87,1.16
-0.09,-0.89,1.15
-0.09,-0.91,1.13
-0.07,-0.94,1.11
-0.05,-0.97,1.08
-0.03,-1,1.07
0.01,-1.04,1.07
0.03,-1.07,1.08
0.07,-1.1,1.11
0.1,-1.13,1.14
0.12,-1.15,1.12
0.15,-1.16,1.11
0.14,-1.16,1.08
0.12,-1.16,1.05
0.15,-1.18,1.03
0.18,-1.19,1.02
0.21,-1.18,1.02
0.25,-1.16,1.03
0.29,-1.15,1.03
0.33,-1.16,1.03
0.35,-1.17,1.04
0.38,-1.16,1.05
0.4,-1.16,1.02
0.41,-1.17,0.97
0.43,-1.18,0.95
0.43,-1.18,0.97
0.42,-1.17,0.98
0.4,-1.18,0.97
0.37,-1.2,0.96
0.34,-1.21,0.96
0.34,-1.22,0.96
0.37,-1.22,0.98
0.4,-1.24,0.99
0.43,-1.25,0.96
0.4,-1.27,0.9
0.37,-1.3,0.82
0.42,-1.3,0.76
0.64,-1.31,0.82
0.69,-1.32,0.89
0.7,-1.34,0.91
0.88,-1.27,0.76
0.98,-1.26,0.78
1.08,-1.21,0.83
1.17,-1.12,0.87
1.24,-1.02,0.83
1.32,-0.93,0.79
1.43,-0.85,0.78
1.5,-0.78,0.76
1.53,-0.72,0.74
1.57,-0.65,0.73
1.65,-0.6,0.78
1.72,-0.54,0.81
1.74,-0.5,0.8
1.69,-0.45,0.76
1.6,-0.39,0.75
1.53,-0.32,0.77
1.5,-0.25,0.8
1.51,-0.21,0.81
1.51,-0.2,0.77
1.38,-0.21,0.75
1.3,-0.18,0.76
1.23,-0.16,0.77
1.18,-0.12,0.8
1.17,-0.09,0.83
1.16,-0.1,0.82
1.15,-0.12,0.79
1.13,-0.13,0.78
1.11,-0.14,0.82
1.07,-0.14,0.87
1.03,-0.15,0.88
1.03,-0.15,0.89
1.04,-0.17,0.9
1.04,-0.17,0.92
1.02,-0.18,0.93
0.99,-0.2,0.93
0.99,-0.22,0.91
1,-0.26,0.9
1,-0.3,0.89
1.02,-0.31,0.87
1.05,-0.31,0.88
1.09,-0.33,0.93
1.1,-0.36,0.92
1.09,-0.37,0.85
1.09,-0.38,0.78
1.1,-0.44,0.75
1.11,-0.59,0.73
1.15,-0.59,0.75
1.15,-0.6,0.77
1.12,-0.65,0.76
1.11,-0.7,0.73
1.11,-0.76,0.7
1.09,-0.83,0.7
1.06,-0.88,0.73
1.06,-0.89,0.76
1.08,-0.89,0.79
1.07,-0.91,0.79
1.05,-0.95,0.78
1.06,-0.98,0.77
1.09,-1.01,0.76
1.11,-1.04,0.76
1.1,-1.05,0.74
1.08,-1.07,0.7
1.01,-1.09,0.69
0.93,-1.08,0.72
0.88,-1.04,0.75
0.83,-1.02,0.76
0.78,-1,0.76
0.73,-0.99,0.78
0.71,-1.01,0.79
0.71,-1.02,0.79
0.69,-1.02,0.78
0.66,-1.05,0.77
0.61,-1.04,0.81
0.59,-0.98,0.85
0.58,-0.95,0.86
0.6,-0.96,0.88
0.61,-0.95,0.91
0.58,-0.95,0.94
0.54,-0.96,0.97
0.51,-0.95,0.98
0.47,-0.93,1
0.41,-0.91,1.02
0.38,-0.88,1.06
0.35,-0.86,1.09
0.35,-0.84,1.1
0.34,-0.83,1.12
0.33,-0.83,1.14
0.3,-0.82,1.14
0.24,-0.79,1.15
0.19,-0.75,1.17
0.15,-0.74,1.18
0.12,-0.72,1.19
0.14,-0.7,1.18
0.16,-0.7,1.17
0.15,-0.69,1.16
0.13,-0.66,1.14
0.13,-0.65,1.13
0.14,-0.61,1.11
0.09,-0.6,1.11
0.05,-0.57,1.11
0.02,-0.54,1.11
0,-0.53,1.08
-0.01,-0.52,1.05
-0.02,-0.5,1.04
0,-0.45,1.04
0.01,-0.43,1.04
-0.01,-0.42,1.03
-0.02,-0.4,1.03
-0.03,-0.38,1.03
-0.05,-0.35,1.04
-0.08,-0.33,1.04
-0.1,-0.31,1.03
-0.12,-0.31,1.02
-0.14,-0.31,1.02
-0.15,-0.31,1.04
-0.13,-0.3,1.05
-0.09,-0.29,1.05
-0.08,-0.3,1.05
-0.06,-0.3,1.06
-0.04,-0.3,1.07
-0.03,-0.29,1.08
-0.03,-0.28,1.08
-0.03,-0.29,1.07
-0.03,-0.29,1.04
-0.03,-0.28,1.04
-0.02,-0.27,1.05
-0.01,-0.26,1.05
0.02,-0.26,1.05
0.03,-0.27,1.06
0.05,-0.27,1.07
0.04,-0.27,1.07
0.02,-0.25,1.07
-0.01,-0.24,1.07
-0.03,-0.23,1.07
-0.02,-0.23,1.08
-0.01,-0.22,1.08
0,-0.22,1.06
0.03,-0.23,1.03
0.09,-0.24,1.01
0.17,-0.22,1
0.25,-0.19,1.03
0.28,-0.15,1.06
0.27,-0.1,1.1
0.22,-0.07,1.12
0.16,-0.05,1.11
0.12,-0.04,1.1
0.08,-0.03,1.09
0.07,-0.01,1.09
0.08,0.01,1.09
0.1,0.02,1.02
0.18,0.06,0.97
0.18,0.08,0.93
0.17,0.1,0.92
0.15,0.13,0.93
0.13,0.16,0.96
0.1,0.19,0.99
0.07,0.21,1
0.07,0.21,1
0.08,0.21,0.99
0.08,0.21,0.98
0.08,0.2,0.99
0.08,0.21,1.01
0.08,0.23,1.01
0.05,0.24,0.98
0.02,0.24,0.95
-0.01,0.24,0.94
-0.01,0.25,0.94
0,0.27,0.94
0,0.29,0.96
0,0.31,0.98
0.02,0.32,0.99
0.04,0.34,1
0.05,0.35,1
0.06,0.36,0.98
0.06,0.39,0.97
0.06,0.41,0.94
0.02,0.42,0.93
0,0.41,0.92
-0.02,0.42,0.89
-0.03,0.43,0.87
-0.01,0.45,0.86
0.03,0.48,0.86
0.05,0.44,0.85
-0.01,0.36,0.79
-0.05,0.5,0.79
-0.07,0.46,0.81
-0.15,0.35,0.78
-0.08,0.47,0.74
0.06,0.45,0.68
0.06,0.4,0.67
0.04,0.36,0.75
0.04,0.43,0.83
0.04,0.47,0.88
0.02,0.42,0.9
0,0.44,0.89
-0.01,0.54,0.87
0,0.56,0.87
0.01,0.61,0.88
-0.02,0.67,0.87
-0.05,0.62,0.84
-0.06,0.52,0.81
-0.07,0.54,0.79
-0.09,0.42,0.78
-0.08,0.44,0.77
-0.09,0.5,0.77
-0.14,0.37,0.79
-0.14,0.34,0.84
-0.08,0.48,0.86
-0.09,0.39,0.87
-0.07,0.33,0.91
-0.04,0.49,0.86
-0.05,0.47,0.82
-0.05,0.37,0.86
-0.05,0.35,0.84
-0.07,0.33,0.83
-0.1,0.36,0.85
-0.11,0.39,0.87
-0.11,0.43,0.89
-0.1,0.5,0.91
-0.09,0.58,0.95
-0.07,0.65,0.99
-0.06,0.67,1.02
-0.06,0.66,1.06
-0.02,0.62,1.08
0.02,0.55,1.07
0.05,0.45,1.07
0.05,0.37,1.08
0.01,0.35,1.08
-0.02,0.34,1.06
0.01,0.32,1.04
0.05,0.32,1
0.06,0.34,0.95
0.08,0.35,0.91
0.12,0.36,0.86
0.16,0.37,0.83
0.17,0.38,0.81
0.16,0.39,0.81
0.15,0.4,0.82
0.13,0.4,0.83
0.11,0.39,0.85
0.1,0.39,0.85
0.1,0.38,0.85
0.1,0.37,0.84
0.1,0.37,0.83
0.09,0.37,0.82
0.08,0.37,0.81
0.08,0.38,0.8
0.09,0.39,0.79
0.09,0.41,0.79
0.07,0.43,0.8
0.05,0.44,0.81
0.03,0.44,0.83
0,0.43,0.84
-0.02,0.42,0.86
-0.03,0.43,0.88
-0.13,0.42,0.89
-0.05,0.39,0.87
-0.06,0.41,0.89
-0.18,0.34,0.9
-0.17,0.32,0.89
-0.09,0.35,0.9
-0.03,0.36,0.93
-0.02,0.39,0.96
-0.07,0.36,0.98
-0.11,0.15,1.02
-0.13,0.18,0.99
-0.16,0.42,0.94
-0.18,0.38,0.93
-0.15,0.33,0.93
-0.14,0.36,0.93
-0.12,0.35,0.92
-0.08,0.33,0.88
-0.08,0.32,0.88
-0.15,0.35,0.91
-0.17,0.4,0.92
-0.11,0.39,0.93
-0.08,0.35,0.9
-0.09,0.33,0.88
-0.09,0.3,0.9
-0.11,0.27,0.92
-0.08,0.26,0.82
0.04,0.28,0.79
0.1,0.33,0.8
0.14,0.36,0.82
0.01,0.33,0.84
-0.2,0.27,0.83
-0.27,0.25,0.87
-0.25,0.24,0.87
-0.23,0.25,0.87
-0.29,0.25,0.9
-0.3,0.23,0.92
-0.32,0.24,0.93
-0.31,0.23,0.88
-0.23,0.21,0.94
-0.39,0.27,1.13
-0.46,0.17,1.09
-0.39,0.11,1.06
-0.33,0.22,1.1
-0.32,0.2,1.11
-0.36,0.22,1.11
-0.35,0.18,1.09
-0.35,0.09,1.15
-0.38,0.08,1.13
-0.38,0.16,1
-0.36,0.24,1
-0.36,0.25,1
-0.48,0.18,1
-0.53,-0.03,1.02
-0.55,-0.08,1.06
-0.4,0.03,1.06
-0.32,0.04,1.15
-0.19,0.07,1.13
-0.1,0.02,1.15
-0.25,-0.03,1.15
-0.25,0.07,1.01
-0.19,0.07,1
-0.22,0.1,0.97
-0.22,0.12,0.96
-0.24,0.14,0.95
-0.23,0.15,0.95
-0.21,0.17,0.93
-0.22,0.2,0.93
-0.21,0.22,0.94
-0.22,0.23,0.93
-0.26,0.23,0.93
-0.29,0.21,0.94
-0.3,0.21,0.97
-0.2,0.22,1
-0.15,0.24,0.97
-0.14,0.24,0.95
-0.09,0.22,0.97
-0.12,0.24,0.99
-0.13,0.23,0.99
-0.12,0.22,1
-0.13,0.22,0.99
-0.16,0.24,0.98
-0.11,0.25,0.96
-0.08,0.26,0.94
-0.07,0.27,0.95
-0.08,0.27,0.95
-0.1,0.28,0.95
-0.09,0.29,0.95
-0.08,0.3,0.94
-0.09,0.3,0.95
-0.11,0.3,0.95
-0.12,0.29,0.96
-0.11,0.3,0.98
-0.08,0.32,0.99
-0.03,0.33,1
-0.01,0.33,1.03
0,0.33,1.04
0,0.35,1.01
0,0.36,0.98
0,0.35,0.95
-0.01,0.34,0.93
-0.02,0.35,0.91
-0.03,0.36,0.9
-0.04,0.33,0.91
-0.05,0.33,0.86
-0.02,0.41,0.87
-0.05,0.38,0.88
-0.07,0.38,0.89
-0.06,0.37,0.89
-0.06,0.37,0.89
-0.08,0.37,0.89
-0.09,0.38,0.89
-0.11,0.39,0.89
-0.12,0.39,0.89
-0.12,0.39,0.89
-0.13,0.38,0.9
-0.14,0.37,0.9
-0.15,0.36,0.91
-0.15,0.34,0.91
-0.18,0.33,0.9
-0.2,0.33,0.9
-0.17,0.33,0.89
-0.16,0.32,0.88
-0.17,0.32,0.88
-0.16,0.34,0.89
-0.15,0.35,0.91
-0.15,0.32,0.89
-0.06,0.36,0.93
-0.05,0.4,0.94
-0.13,0.34,0.91
-0.13,0.31,0.92
-0.15,0.32,0.9
-0.11,0.31,0.89
-0.12,0.31,0.91
-0.15,0.36,0.88
-0.13,0.35,0.87
-0.11,0.31,0.9
-0.1,0.3,0.87
-0.2,0.31,0.9
-0.26,0.35,0.96
-0.18,0.34,0.94
-0.15,0.3,0.93
-0.24,0.31,0.93
-0.26,0.32,0.94
-0.21,0.28,0.93
-0.2,0.26,0.93
-0.22,0.29,0.94
-0.21,0.3,0.93
-0.2,0.3,0.93
-0.18,0.27,0.93
-0.2,0.27,0.92
-0.19,0.3,0.9
-0.15,0.3,0.89
-0.16,0.29,0.89
-0.17,0.3,0.9
-0.16,0.29,0.91
-0.15,0.26,0.93
-0.16,0.3,0.92
-0.13,0.28,0.91
-0.14,0.27,0.91
-0.12,0.27,0.91
-0.11,0.26,0.92
-0.11,0.24,0.93
-0.1,0.24,0.93
-0.05,0.25,0.91
-0.04,0.25,0.91
-0.06,0.26,0.93
-0.08,0.27,0.92
-0.07,0.26,0.91
-0.05,0.24,0.92
-0.06,0.2,0.92
-0.05,0.19,0.91
-0.03,0.21,0.91
-0.03,0.21,0.92
0.01,0.22,0.94
0.04,0.22,0.95
0.06,0.21,0.95
0.07,0.19,0.93
0.12,0.16,0.88
0.05,0.11,0.86
0.22,0.14,0.83
0.15,0.16,0.85
-0.06,0.22,0.9
0.09,0.27,0.93
0.08,0.27,0.95
0.09,0.26,0.95
0.11,0.23,0.95
0.11,0.18,0.92
0.1,0.17,0.91
0.1,0.17,0.92
0.12,0.15,0.93
0.13,0.16,0.94
0.11,0.16,0.95
0.11,0.18,0.98
0.1,0.18,1.01
0.03,0.15,1.03
-0.07,0.05,1.06
-0.1,0.01,1.08
-0.08,0.06,1.09
-0.04,0.06,1.05
-0.02,0.04,1.01
-0.05,0.04,1.02
-0.07,0.05,1.04
-0.06,0.06,1.05
-0.06,0.06,1.06
-0.06,0.06,1.07
-0.04,0.07,1.06
-0.02,0.08,1.05
0,0.07,1.03
0.03,0.05,1.04
-0.05,0.01,1.06
-0.03,0.1,1.02
0,0.14,1
0.02,0.15,0.99
0.03,0.16,0.98
0.04,0.17,0.98
0.03,0.15,0.97
0.02,0.14,0.98
0.02,0.14,0.98
0.03,0.17,0.98
0.05,0.21,0.99
0.06,0.21,1.01
0.07,0.2,1.01
0.11,0.2,1
0.13,0.22,0.98
0.14,0.23,0.96
0.14,0.23,0.96
0.18,0.24,0.96
0.21,0.25,0.97
0.23,0.26,0.97
0.25,0.26,0.98
0.27,0.26,0.97
0.28,0.27,0.95
0.25,0.26,0.93
0.23,0.24,0.93
0.26,0.27,0.95
0.35,0.34,0.94
0.36,0.31,0.94
0.33,0.31,0.96
0.34,0.37,0.96
0.3,0.34,0.99
0.28,0.31,1.01
0.32,0.34,1.03
0.31,0.32,1.08
0.28,0.28,1.1
0.29,0.28,1.11
0.32,0.3,1.1
0.45,0.18,1.04
0.43,0.2,1.03
0.46,0.28,1.09
0.59,0.14,1.08
0.51,0.04,1.04
0.41,0.02,1.05
0.38,0.05,1.01
0.32,0.07,0.92
0.3,0.05,0.86
0.28,0.07,0.81
0.27,0.09,0.82
0.32,0.12,0.84
0.33,0.14,0.86
0.3,0.17,0.89
0.34,0.18,0.94
0.41,0.17,0.95
0.42,0.16,0.96
0.44,0.17,0.96
0.46,0.19,0.94
0.48,0.19,0.91
0.5,0.19,0.87
0.47,0.19,0.83
0.41,0.17,0.8
0.38,0.17,0.81
0.35,0.18,0.82
0.31,0.19,0.84
0.25,0.13,0.87
0.24,0.17,0.87
0.28,0.26,0.87
0.31,0.21,0.86
0.34,0.19,0.85
0.36,0.22,0.86
0.35,0.18,0.83
0.35,0.13,0.83
0.37,0.14,0.84
0.4,0.16,0.84
0.42,0.16,0.84
0.42,0.13,0.83
0.43,0.09,0.83
0.43,0.06,0.84
0.41,0.05,0.88
0.31,0.04,0.89
0.31,0.01,0.85
0.39,0.01,0.81
0.52,0.15,0.7
0.53,0.26,0.74
0.73,0.2,0.92
0.74,0.23,0.92
0.49,0.3,0.87
0.48,0.3,0.88
0.43,0.28,0.87
0.42,0.32,0.85
0.41,0.25,0.83
0.42,0.14,0.81
0.45,0.18,0.77
0.49,0.22,0.75
0.53,0.22,0.75
0.53,0.25,0.74
0.53,0.26,0.74
0.51,0.21,0.68
0.5,0.2,0.65
0.5,0.2,0.65
0.49,0.2,0.65
0.46,0.22,0.66
0.45,0.23,0.67
0.43,0.22,0.67
0.43,0.23,0.67
0.47,0.29,0.65
0.52,0.33,0.65
0.49,0.26,0.72
0.32,0.06,0.64
0.38,0.1,0.63
0.54,0.24,0.73
0.51,0.33,0.71
0.53,0.43,0.71
0.49,0.41,0.74
0.48,0.41,0.73
0.6,0.33,0.72
0.68,0.18,0.63
0.84,-0.27,0.48
0.87,-0.18,0.54
0.75,0.33,0.64
0.77,0.26,0.58
0.76,0.11,0.56
0.72,0.11,0.57
0.69,0.13,0.57
0.67,0.13,0.56
0.69,0.13,0.55
0.73,0.15,0.54
0.75,0.16,0.55
0.77,0.17,0.58
0.79,0.17,0.6
0.8,0.16,0.62
0.82,0.16,0.67
0.82,0.19,0.68
0.8,0.21,0.67
0.78,0.22,0.64
0.78,0.23,0.62
0.8,0.24,0.61
0.79,0.26,0.6
0.79,0.26,0.6
0.79,0.26,0.61
0.77,0.26,0.63
0.75,0.26,0.67
0.74,0.26,0.68
0.73,0.25,0.65
0.72,0.24,0.64
0.76,0.26,0.64
0.81,0.28,0.64
0.8,0.31,0.65
0.79,0.34,0.66
0.78,0.36,0.67
0.76,0.36,0.7
0.75,0.36,0.75
0.77,0.36,0.76
0.79,0.37,0.73
0.82,0.39,0.71
0.84,0.4,0.68
0.83,0.42,0.7
0.79,0.45,0.79
0.75,0.47,0.81
0.74,0.48,0.82
0.75,0.5,0.84
0.74,0.51,0.86
0.71,0.53,0.87
0.7,0.54,0.87
0.72,0.56,0.87
0.77,0.57,0.89
0.82,0.59,0.94
0.84,0.61,1
0.8,0.63,1.05
0.72,0.64,1.09
0.65,0.64,1.12
0.57,0.63,1.1
0.5,0.63,1.06
0.42,0.63,1
0.35,0.62,0.96
0.31,0.61,0.93
0.31,0.6,0.94
0.34,0.59,0.98
0.39,0.57,1.02
0.45,0.55,1.06
0.43,0.55,1.05
0.37,0.56,1.01
0.25,0.58,0.93
0.19,0.57,0.72
0.1,0.59,0.68
0.12,0.6,0.67
0.14,0.6,0.65
0.13,0.6,0.66
0.1,0.6,0.68
0.11,0.58,0.71
0.14,0.56,0.73
0.16,0.55,0.74
0.18,0.56,0.72
0.18,0.56,0.69
0.19,0.55,0.64
0.23,0.55,0.64
0.25,0.56,0.65
0.25,0.57,0.67
0.26,0.55,0.7
0.26,0.53,0.72
0.29,0.5,0.75
0.34,0.46,0.8
0.37,0.43,0.81
0.36,0.42,0.79
0.34,0.43,0.75
0.33,0.43,0.72
0.31,0.44,0.69
0.3,0.43,0.7
0.3,0.41,0.74
0.32,0.39,0.83
0.38,0.35,0.89
0.41,0.33,0.92
0.4,0.31,0.9
0.39,0.31,0.88
0.36,0.33,0.84
0.32,0.33,0.81
0.31,0.32,0.8
0.34,0.32,0.81
0.35,0.32,0.82
0.34,0.32,0.84
0.34,0.33,0.84
0.34,0.34,0.83
0.33,0.35,0.83
0.32,0.36,0.82
0.31,0.37,0.83
0.31,0.38,0.84
0.29,0.4,0.85
0.27,0.41,0.86
0.26,0.42,0.85
0.24,0.42,0.85
0.22,0.42,0.87
0.22,0.43,0.87
0.24,0.44,0.86
0.26,0.44,0.85
0.27,0.44,0.84
0.25,0.44,0.85
0.23,0.44,0.84
0.24,0.45,0.85
0.25,0.46,0.85
0.25,0.45,0.86
0.27,0.45,0.87
0.29,0.45,0.89
0.29,0.45,0.9
0.29,0.45,0.91
0.3,0.45,0.91
0.3,0.45,0.9
0.31,0.45,0.89
0.31,0.46,0.88
0.3,0.46,0.88
0.29,0.46,0.87
0.28,0.46,0.85
0.27,0.47,0.84
0.28,0.49,0.84
0.29,0.5,0.86
0.29,0.51,0.88
0.28,0.5,0.91
0.28,0.48,0.91
0.29,0.47,0.89
0.3,0.46,0.87
0.3,0.45,0.84
0.3,0.45,0.82
0.29,0.44,0.81
0.29,0.45,0.81
0.29,0.45,0.81
0.29,0.45,0.81
0.29,0.45,0.81
0.29,0.46,0.81
0.3,0.46,0.8
0.31,0.45,0.8
0.31,0.46,0.8
0.3,0.47,0.81
0.29,0.47,0.81
0.28,0.47,0.82
0.28,0.48,0.82
0.28,0.47,0.82
0.28,0.47,0.83
0.28,0.47,0.83
0.29,0.47,0.84
0.29,0.47,0.85
0.29,0.48,0.85
0.28,0.48,0.86
0.28,0.48,0.86
0.28,0.48,0.86
0.28,0.47,0.85
0.29,0.47,0.85
0.28,0.47,0.84
0.28,0.46,0.83
0.28,0.46,0.82
0.28,0.46,0.82
0.28,0.46,0.83
0.29,0.46,0.83
0.28,0.46,0.83
0.28,0.46,0.82
0.28,0.46,0.82
0.28,0.45,0.82
0.27,0.45,0.82
0.27,0.45,0.83
0.27,0.46,0.85
0.27,0.46,0.86
