Acc_x,Acc_y,Acc_z
0.72,-0.1,0.9
0.72,-0.13,0.93
0.68,-0.16,0.94
0.62,-0.16,0.92
0.56,-0.15,0.88
0.51,-0.14,0.82
0.48,-0.13,0.76
0.47,-0.11,0.73
0.47,-0.08,0.72
0.48,-0.06,0.72
0.49,-0.05,0.71
0.49,-0.04,0.69
0.48,-0.04,0.7
0.47,-0.04,0.7
0.48,-0.07,0.7
0.52,-0.1,0.7
0.55,-0.12,0.71
0.57,-0.14,0.74
0.62,-0.16,0.75
0.63,-0.16,0.74
0.63,-0.14,0.73
0.62,-0.11,0.7
0.6,-0.08,0.69
0.6,-0.05,0.69
0.59,-0.02,0.69
0.58,0.01,0.69
0.57,0.03,0.69
0.54,0.03,0.69
0.53,0.03,0.68
0.52,0.02,0.67
0.5,0.01,0.67
0.5,0,0.65
0.5,-0.02,0.65
0.51,-0.03,0.68
0.53,-0.03,0.71
0.56,-0.05,0.74
0.6,-0.08,0.77
0.66,-0.11,0.78
0.72,-0.14,0.81
0.78,-0.17,0.84
0.84,-0.21,0.86
0.88,-0.25,0.86
0.86,-0.26,0.89
0.79,-0.26,0.95
0.59,-0.24,0.93
0.58,-0.24,0.89
0.65,-0.23,0.89
0.75,-0.21,0.92
0.8,-0.2,0.94
0.76,-0.2,0.93
0.71,-0.21,0.89
0.73,-0.21,0.85
0.79,-0.2,0.83
0.84,-0.19,0.84
0.84,-0.17,0.86
0.79,-0.17,0.9
0.71,-0.16,0.95
0.64,-0.16,0.97
0.59,-0.14,0.96
0.56,-0.13,0.9
0.56,-0.12,0.86
0.58,-0.11,0.84
0.59,-0.12,0.86
0.59,-0.14,0.89
0.57,-0.15,0.92
0.53,-0.16,0.92
0.51,-0.15,0.9
0.51,-0.14,0.92
0.51,-0.17,0.96
0.48,-0.18,0.87
0.26,-0.31,0.99
0.52,-0.1,1.05
0.53,-0.11,1.1
0.31,-0.24,1.14
0.17,-0.28,1.14
0.09,-0.27,1.15
0.06,-0.29,1.14
0.09,-0.3,1.1
0.11,-0.31,1.05
0.12,-0.33,1.01
0.13,-0.38,1
0.14,-0.41,1
0.15,-0.43,1.02
0.16,-0.48,1.04
0.18,-0.54,1.04
0.19,-0.57,1.03
0.19,-0.63,1.01
0.19,-0.7,0.99
0.19,-0.82,1.01
0.22,-0.85,0.95
0.3,-0.84,0.89
0.29,-0.98,0.95
0.25,-1.05,0.99
0.31,-1,0.95
0.38,-0.92,0.9
0.35,-0.92,0.88
0.29,-0.96,0.93
0.28,-0.87,0.95
0.3,-0.77,0.97
0.34,-0.68,0.92
0.37,-0.65,0.86
0.42,-0.62,0.82
0.46,-0.55,0.79
0.46,-0.49,0.76
0.46,-0.45,0.72
0.5,-0.43,0.69
0.51,-0.4,0.68
0.49,-0.37,0.69
0.48,-0.36,0.72
0.46,-0.33,0.75
0.41,-0.31,0.76
0.37,-0.27,0.76
0.34,-0.24,0.73
0.34,-0.22,0.74
0.33,-0.22,0.77
0.3,-0.23,0.8
0.26,-0.24,0.82
0.24,-0.21,0.8
0.22,-0.18,0.78
0.21,-0.19,0.76
0.19,-0.22,0.77
0.13,-0.25,0.79
0.05,-0.24,0.84
-0.02,-0.23,0.85
-0.02,-0.23,0.86
-0.02,-0.24,0.87
-0.04,-0.26,0.91
-0.12,-0.29,0.94
-0.19,-0.3,0.95
-0.24,-0.32,0.94
-0.29,-0.33,0.91
-0.35,-0.34,0.91
-0.4,-0.35,0.93
-0.46,-0.35,0.95
-0.51,-0.35,0.97
-0.55,-0.35,1.01
-0.6,-0.35,1.05
-0.69,-0.34,1.06
-0.8,-0.33,1.04
-0.88,-0.32,1.02
-0.91,-0.32,1.01
-0.9,-0.34,1.03
-0.92,-0.36,1.05
-0.94,-0.37,1.06
-0.94,-0.38,1.04
-0.96,-0.38,1.03
-0.94,-0.4,1.02
-0.9,-0.43,1.02
-0.86,-0.45,1
-0.81,-0.5,0.99
-0.79,-0.52,0.99
-0.76,-0.53,0.98
-0.73,-0.54,0.98
-0.69,-0.55,0.98
-0.66,-0.57,0.98
-0.64,-0.58,0.98
-0.62,-0.59,0.97
-0.61,-0.6,0.96
-0.58,-0.62,0.95
-0.54,-0.64,0.95
-0.5,-0.67,0.94
-0.46,-0.69,0.93
-0.43,-0.7,0.93
-0.38,-0.71,0.93
-0.3,-0.71,0.96
-0.23,-0.72,1
-0.22,-0.73,1.01
-0.21,-0.74,1
-0.2,-0.75,0.99
-0.19,-0.77,0.99
-0.15,-0.77,0.99
-0.08,-0.77,0.99
-0.02,-0.77,1
0,-0.77,1
0.03,-0.78,1
0.08,-0.76,0.99
0.08,-0.76,0.97
0.09,-0.76,0.94
0.11,-0.76,0.92
0.15,-0.75,0.89
0.16,-0.73,0.85
0.15,-0.72,0.82
0.19,-0.74,0.81
0.26,-0.79,0.82
0.31,-0.83,0.83
0.37,-0.84,0.85
0.47,-0.83,0.88
0.56,-0.81,0.93
0.62,-0.79,0.97
0.66,-0.76,0.98
0.66,-0.72,0.95
0.65,-0.67,0.89
0.69,-0.64,0.8
0.76,-0.59,0.74
0.81,-0.54,0.72
0.8,-0.5,0.7
0.78,-0.47,0.67
0.78,-0.43,0.65
0.8,-0.41,0.66
0.82,-0.4,0.66
0.81,-0.4,0.59
0.73,-0.39,0.53
0.73,-0.34,0.5
0.78,-0.29,0.5
0.81,-0.29,0.51
0.8,-0.28,0.5
0.78,-0.25,0.48
0.77,-0.24,0.46
0.78,-0.2,0.44
0.81,-0.15,0.45
0.88,-0.12,0.46
0.96,-0.14,0.47
1.04,-0.19,0.44
1.08,-0.2,0.39
1.11,-0.16,0.4
1.18,-0.12,0.45
1.26,-0.12,0.5
1.33,-0.11,0.56
1.38,-0.11,0.59
1.42,-0.1,0.61
1.45,-0.07,0.64
1.47,-0.06,0.67
1.48,-0.06,0.7
1.48,-0.05,0.74
1.45,-0.05,0.77
1.41,-0.06,0.78
1.37,-0.08,0.79
1.31,-0.13,0.8
1.28,-0.14,0.8
1.25,-0.15,0.8
1.24,-0.15,0.8
1.23,-0.15,0.78
1.23,-0.16,0.77
1.23,-0.18,0.75
1.23,-0.19,0.72
1.24,-0.2,0.71
1.25,-0.21,0.69
1.25,-0.23,0.67
1.24,-0.25,0.66
1.23,-0.29,0.64
1.22,-0.32,0.62
1.21,-0.35,0.63
1.2,-0.38,0.65
1.2,-0.42,0.66
1.18,-0.45,0.66
1.14,-0.47,0.64
1.1,-0.5,0.63
1.08,-0.53,0.62
1.09,-0.57,0.64
1.11,-0.6,0.67
1.11,-0.63,0.69
1.11,-0.67,0.69
1.11,-0.69,0.69
1.14,-0.76,0.71
1.16,-0.79,0.71
1.14,-0.82,0.7
1.11,-0.86,0.69
1.08,-0.89,0.69
1.06,-0.93,0.7
1.04,-0.97,0.69
1.04,-1,0.69
1.03,-1.02,0.69
1.02,-1.03,0.69
1.01,-1.04,0.69
1,-1.07,0.69
0.97,-1.1,0.69
0.95,-1.11,0.69
0.95,-1.13,0.69
0.96,-1.15,0.7
0.95,-1.17,0.71
0.93,-1.18,0.7
0.93,-1.19,0.68
0.93,-1.2,0.67
0.92,-1.21,0.66
0.89,-1.24,0.66
0.87,-1.26,0.67
0.85,-1.27,0.69
0.84,-1.28,0.69
0.84,-1.28,0.64
0.84,-1.32,0.56
0.82,-1.36,0.57
0.8,-1.4,0.59
0.79,-1.45,0.59
0.77,-1.49,0.59
0.77,-1.52,0.62
0.77,-1.54,0.66
0.76,-1.57,0.66
0.74,-1.6,0.67
0.74,-1.63,0.72
0.74,-1.69,0.76
0.71,-1.76,0.77
0.66,-1.83,0.78
0.59,-1.87,0.79
0.54,-1.87,0.81
0.51,-1.87,0.85
0.47,-1.87,0.91
0.42,-1.86,0.96
0.43,-1.85,0.98
0.46,-1.83,0.99
0.44,-1.82,1.01
0.36,-1.81,1.02
0.28,-1.79,1.02
0.24,-1.78,1.03
0.23,-1.77,1.05
0.21,-1.76,1.09
0.14,-1.65,1.14
-0.02,-1.61,1.16
-0.02,-1.61,1.16
-0.05,-1.6,1.16
-0.13,-1.57,1.2
-0.2,-1.52,1.2
-0.26,-1.44,1.21
-0.31,-1.35,1.23
-0.34,-1.28,1.24
-0.37,-1.22,1.26
-0.39,-1.19,1.27
-0.44,-1.17,1.26
-0.47,-1.12,1.24
-0.49,-1.07,1.2
-0.47,-0.99,1.17
-0.43,-0.93,1.15
-0.41,-0.88,1.14
-0.39,-0.86,1.14
-0.36,-0.83,1.12
-0.32,-0.82,1.11
-0.27,-0.81,1.09
-0.23,-0.8,1.08
-0.21,-0.81,1.07
-0.2,-0.82,1.05
-0.17,-0.83,1.02
-0.16,-0.85,0.98
-0.17,-0.87,1.01
-0.1,-0.95,1.05
-0.05,-1,1.06
-0.01,-1.03,1.04
0.02,-1.06,1.01
0.04,-1.1,0.97
0.05,-1.13,0.96
0.04,-1.16,0.98
0.03,-1.2,0.98
0,-1.24,0.98
-0.02,-1.29,1
-0.02,-1.33,1.01
0.02,-1.39,1.02
0.07,-1.44,1.03
0.1,-1.49,1.02
0.15,-1.5,1
0.2,-1.5,1
0.24,-1.49,1.01
0.26,-1.48,1.02
0.27,-1.48,1.02
0.3,-1.48,1.02
0.31,-1.48,1.02
0.32,-1.49,1.01
0.33,-1.5,1
0.34,-1.51,1.01
0.37,-1.51,1.03
0.4,-1.52,1.07
0.45,-1.56,1.09
0.48,-1.58,1.11
0.5,-1.6,1.14
0.5,-1.61,1.14
0.49,-1.62,1.1
0.49,-1.63,1.08
0.52,-1.62,1.08
0.53,-1.62,1.09
0.54,-1.62,1.1
0.57,-1.63,1.12
0.58,-1.63,1.11
0.58,-1.61,1.09
0.56,-1.58,1.05
0.56,-1.55,1.03
0.59,-1.54,1.02
0.64,-1.51,1
0.69,-1.48,1
0.7,-1.44,1.01
0.7,-1.39,1
0.7,-1.35,0.97
0.69,-1.31,0.94
0.71,-1.27,0.92
0.74,-1.25,0.9
0.77,-1.22,0.88
0.79,-1.2,0.87
0.83,-1.17,0.84
0.87,-1.07,0.81
0.89,-1,0.8
0.92,-0.96,0.78
0.98,-0.92,0.76
1.04,-0.88,0.74
1.08,-0.85,0.7
1.13,-0.8,0.67
1.21,-0.72,0.67
1.3,-0.63,0.69
1.37,-0.56,0.7
1.42,-0.48,0.69
1.43,-0.43,0.67
1.43,-0.37,0.66
1.47,-0.31,0.68
1.52,-0.27,0.71
1.55,-0.22,0.74
1.54,-0.17,0.77
1.52,-0.15,0.77
1.51,-0.12,0.78
1.54,-0.08,0.82
1.58,-0.05,0.87
1.61,-0.02,0.89
1.61,0,0.89
1.61,0.02,0.87
1.6,0.04,0.86
1.59,0.04,0.88
1.54,0.02,0.9
1.49,0.01,0.89
1.45,0,0.88
1.41,-0.03,0.87
1.36,-0.04,0.87
1.33,-0.07,0.86
1.29,-0.1,0.86
1.25,-0.13,0.85
1.2,-0.17,0.84
1.15,-0.2,0.82
1.1,-0.24,0.81
1.07,-0.27,0.8
1.04,-0.31,0.81
1.01,-0.34,0.82
0.97,-0.37,0.82
0.96,-0.4,0.83
0.95,-0.43,0.82
0.93,-0.47,0.81
0.91,-0.51,0.8
0.91,-0.55,0.79
0.89,-0.59,0.79
0.87,-0.62,0.8
0.84,-0.64,0.8
0.8,-0.66,0.8
0.76,-0.7,0.8
0.73,-0.74,0.79
0.77,-0.81,0.74
0.82,-0.84,0.71
0.86,-0.86,0.69
0.87,-0.88,0.67
0.87,-0.92,0.64
0.86,-0.96,0.63
0.84,-0.99,0.62
0.86,-1.04,0.62
0.9,-1.09,0.63
0.96,-1.1,0.62
1,-1.11,0.59
1.02,-1.13,0.56
1.03,-1.14,0.57
1.03,-1.17,0.59
1.03,-1.2,0.62
1.01,-1.23,0.64
0.95,-1.26,0.66
0.92,-1.27,0.69
0.92,-1.26,0.7
0.92,-1.27,0.71
0.92,-1.3,0.74
0.91,-1.3,0.76
0.92,-1.31,0.78
0.93,-1.31,0.8
0.91,-1.32,0.82
0.87,-1.35,0.83
0.86,-1.36,0.8
0.87,-1.4,0.73
0.89,-1.43,0.7
0.92,-1.46,0.73
0.94,-1.51,0.73
0.96,-1.56,0.73
0.98,-1.63,0.73
1,-1.7,0.73
1,-1.7,0.74
0.99,-1.69,0.75
0.94,-1.65,0.75
0.87,-1.62,0.76
0.82,-1.62,0.75
0.74,-1.6,0.76
0.68,-1.57,0.77
0.65,-1.57,0.77
0.57,-1.56,0.79
0.52,-1.54,0.85
0.54,-1.49,0.9
0.53,-1.45,0.92
0.48,-1.41,0.93
0.45,-1.35,0.92
0.45,-1.33,0.91
0.45,-1.33,0.91
0.43,-1.33,0.93
0.36,-1.3,0.97
0.28,-1.24,1.05
0.19,-1.22,1.08
0.16,-1.18,1.1
0.09,-1.13,1.1
0.04,-1.06,1.09
-0.01,-0.99,1.07
-0.07,-0.93,1.07
-0.16,-0.87,1.08
-0.22,-0.84,1.09
-0.25,-0.78,1.11
-0.26,-0.69,1.15
-0.26,-0.62,1.16
-0.26,-0.57,1.16
-0.23,-0.52,1.15
-0.19,-0.49,1.14
-0.16,-0.48,1.14
-0.13,-0.46,1.14
-0.09,-0.43,1.16
-0.04,-0.39,1.17
0,-0.37,1.17
0.06,-0.35,1.16
0.1,-0.33,1.15
0.12,-0.32,1.13
0.15,-0.31,1.1
0.17,-0.31,1.09
0.2,-0.31,1.09
0.23,-0.33,1.12
0.26,-0.37,1.13
0.26,-0.4,1.13
0.26,-0.45,1.14
0.26,-0.5,1.14
0.25,-0.55,1.13
0.24,-0.6,1.13
0.23,-0.65,1.14
0.23,-0.69,1.15
0.23,-0.74,1.16
0.23,-0.78,1.2
0.2,-0.81,1.23
0.16,-0.84,1.25
0.13,-0.86,1.25
0.1,-0.89,1.22
0.08,-0.92,1.18
0.06,-0.94,1.16
0.04,-0.96,1.15
0.04,-0.98,1.13
0.05,-1,1.13
0.06,-1.01,1.14
0.06,-1.02,1.13
0.04,-1.01,1.1
0.04,-1.01,1.06
0.05,-1.03,1.03
0.04,-1.03,1.02
0.03,-1.04,1.02
0.08,-1.04,1.01
0.11,-1.04,0.99
0.13,-1.04,0.99
0.15,-1.05,0.97
0.18,-1.05,0.94
0.21,-1.06,0.92
0.21,-1.06,0.91
0.27,-1.07,0.91
0.31,-1.09,0.95
0.31,-1.08,0.98
0.33,-1.07,0.96
0.34,-1.05,0.95
0.32,-1.02,0.97
0.31,-1,0.95
0.31,-0.96,0.95
0.31,-0.94,0.95
0.29,-0.94,0.96
0.27,-0.95,0.98
0.28,-0.96,1.01
0.28,-0.97,1.01
0.25,-0.98,0.99
0.25,-0.99,0.98
0.26,-1.01,0.99
0.29,-1.05,1.01
0.33,-1.09,0.99
0.39,-1.12,0.95
0.46,-1.17,0.9
0.49,-1.18,0.85
0.53,-1.19,0.84
0.6,-1.2,0.87
0.69,-1.22,0.88
0.75,-1.24,0.89
0.8,-1.23,0.9
0.84,-1.2,0.87
0.9,-1.14,0.85
0.97,-1.08,0.85
0.99,-1.02,0.82
1.05,-0.96,0.77
1.15,-0.89,0.75
1.21,-0.8,0.76
1.28,-0.67,0.78
1.35,-0.54,0.79
1.39,-0.47,0.79
1.4,-0.43,0.79
1.39,-0.43,0.79
1.4,-0.42,0.78
1.41,-0.39,0.78
1.42,-0.35,0.79
1.43,-0.32,0.81
1.44,-0.3,0.82
1.45,-0.26,0.82
1.45,-0.22,0.81
1.44,-0.12,0.82
1.46,-0.08,0.86
1.49,-0.05,0.89
1.51,-0.04,0.89
1.5,-0.03,0.87
1.48,-0.02,0.84
1.44,-0.01,0.82
1.41,-0.01,0.81
1.37,-0.03,0.8
1.33,-0.04,0.8
1.28,-0.05,0.79
1.23,-0.07,0.77
1.19,-0.09,0.75
1.16,-0.11,0.74
1.13,-0.13,0.73
1.11,-0.14,0.74
1.09,-0.15,0.75
1.06,-0.16,0.74
1.04,-0.17,0.73
1.02,-0.2,0.73
1,-0.23,0.72
0.98,-0.25,0.71
0.99,-0.27,0.71
0.98,-0.28,0.71
0.98,-0.28,0.73
0.98,-0.28,0.74
1.02,-0.36,0.72
1.03,-0.39,0.71
1.04,-0.42,0.7
1.04,-0.45,0.69
1.04,-0.48,0.69
1.05,-0.52,0.69
1.06,-0.56,0.69
1.08,-0.61,0.69
1.1,-0.65,0.71
1.12,-0.69,0.71
1.12,-0.73,0.72
1.13,-0.77,0.71
1.13,-0.81,0.71
1.11,-0.86,0.71
1.07,-0.91,0.69
1.03,-0.95,0.68
0.99,-0.98,0.69
0.96,-1,0.69
0.93,-1.01,0.68
0.93,-1.02,0.67
0.95,-1.03,0.67
0.95,-1.05,0.71
0.94,-1.07,0.74
0.94,-1.1,0.75
0.95,-1.12,0.76
0.95,-1.14,0.76
0.92,-1.18,0.77
0.9,-1.2,0.77
0.89,-1.21,0.77
0.89,-1.25,0.79
0.89,-1.27,0.81
0.9,-1.31,0.81
0.92,-1.37,0.8
0.93,-1.45,0.79
0.87,-1.5,0.81
0.82,-1.5,0.84
0.84,-1.47,0.87
0.88,-1.47,0.89
0.89,-1.49,0.9
0.87,-1.53,0.91
0.84,-1.58,0.93
0.82,-1.6,0.93
0.78,-1.62,0.9
0.69,-1.62,0.9
0.61,-1.6,0.93
0.56,-1.57,0.96
0.5,-1.51,1.02
0.47,-1.43,1.1
0.43,-1.38,1.13
0.39,-1.36,1.13
0.36,-1.35,1.11
0.3,-1.34,1.1
0.19,-1.31,1.14
0.01,-1.32,1.15
-0.1,-1.28,1.19
-0.15,-1.24,1.25
-0.21,-1.2,1.29
-0.27,-1.12,1.31
-0.33,-1.01,1.3
-0.39,-0.91,1.34
-0.42,-0.82,1.35
-0.4,-0.76,1.29
-0.37,-0.7,1.22
-0.35,-0.64,1.21
-0.33,-0.58,1.26
-0.34,-0.5,1.27
-0.36,-0.43,1.25
-0.35,-0.36,1.24
-0.29,-0.32,1.21
-0.22,-0.3,1.18
-0.16,-0.28,1.15
-0.1,-0.27,1.1
-0.04,-0.26,1.04
0.01,-0.25,1
0.05,-0.25,0.99
0.08,-0.26,0.99
0.12,-0.27,1.01
0.18,-0.3,1.06
0.22,-0.34,1.08
0.25,-0.37,1.08
0.28,-0.41,1.08
0.31,-0.43,1.08
0.36,-0.45,1.08
0.39,-0.47,1.09
0.41,-0.49,1.09
0.4,-0.51,1.08
0.36,-0.52,1.06
0.29,-0.52,1.04
0.21,-0.52,1.01
0.14,-0.53,0.99
0.05,-0.52,0.99
-0.1,-0.53,0.99
-0.28,-0.55,1.01
-0.41,-0.58,1.03
-0.51,-0.63,1.03
-0.56,-0.68,1.04
-0.59,-0.73,1.06
-0.57,-0.77,1.09
-0.5,-0.82,1.08
-0.45,-0.89,1.07
-0.4,-0.95,1.08
-0.36,-0.96,1.09
-0.31,-0.96,1.09
-0.29,-0.96,1.07
-0.31,-0.96,1.09
-0.28,-0.97,1.09
-0.27,-0.98,1.1
-0.25,-0.99,1.11
-0.22,-1.01,1.12
-0.2,-1.01,1.11
-0.16,-1.02,1.13
-0.13,-1.03,1.16
-0.1,-1.04,1.19
-0.08,-1.05,1.2
-0.06,-1.07,1.19
-0.06,-1.08,1.16
-0.04,-1.11,1.15
0,-1.15,1.16
0.04,-1.18,1.2
0.06,-1.18,1.23
0.1,-1.2,1.24
0.11,-1.22,1.23
0.13,-1.24,1.2
0.14,-1.23,1.14
0.14,-1.22,1.11
0.2,-1.22,1.13
0.27,-1.24,1.16
0.32,-1.26,1.17
0.34,-1.25,1.14
0.34,-1.24,1.09
0.36,-1.23,1.05
0.46,-1.22,1.05
0.51,-1.22,1.04
0.58,-1.19,0.99
0.63,-1.15,0.94
0.67,-1.09,0.89
0.71,-1.04,0.86
0.75,-1,0.82
0.78,-0.98,0.76
0.84,-0.96,0.74
0.91,-0.93,0.73
0.98,-0.88,0.72
1.01,-0.84,0.68
0.99,-0.8,0.63
0.97,-0.77,0.61
1,-0.72,0.61
1.07,-0.67,0.63
1.14,-0.63,0.63
1.16,-0.6,0.61
1.17,-0.56,0.59
1.18,-0.51,0.58
1.2,-0.45,0.57
1.22,-0.4,0.57
1.25,-0.37,0.56
1.26,-0.34,0.53
1.3,-0.31,0.52
1.36,-0.27,0.56
1.39,-0.16,0.6
1.4,-0.13,0.66
1.43,-0.11,0.69
1.42,-0.11,0.7
1.4,-0.1,0.68
1.37,-0.09,0.65
1.37,-0.06,0.66
1.38,-0.05,0.7
1.38,-0.06,0.72
1.36,-0.06,0.74
1.35,-0.06,0.74
1.32,-0.06,0.74
1.29,-0.06,0.74
1.28,-0.07,0.73
1.28,-0.08,0.72
1.29,-0.09,0.72
1.28,-0.1,0.72
1.26,-0.11,0.71
1.25,-0.12,0.71
1.25,-0.14,0.7
1.25,-0.17,0.68
1.23,-0.19,0.66
1.22,-0.21,0.64
1.2,-0.23,0.62
1.18,-0.25,0.62
1.18,-0.27,0.61
1.18,-0.31,0.62
1.16,-0.33,0.61
1.15,-0.36,0.61
1.15,-0.39,0.6
1.15,-0.42,0.58
1.14,-0.45,0.58
1.15,-0.48,0.59
1.15,-0.51,0.59
1.15,-0.54,0.61
1.12,-0.57,0.61
1.09,-0.6,0.62
1.06,-0.64,0.63
1.05,-0.67,0.64
1.03,-0.7,0.65
1.03,-0.73,0.63
1.02,-0.76,0.62
1,-0.78,0.63
0.97,-0.8,0.66
0.93,-0.81,0.7
0.89,-0.82,0.76
0.87,-0.85,0.81
0.9,-0.86,0.83
0.94,-0.86,0.82
0.97,-0.87,0.82
0.98,-0.88,0.81
0.99,-0.91,0.81
1,-0.94,0.85
1,-0.95,0.85
0.99,-0.96,0.85
0.97,-0.97,0.87
0.93,-0.99,0.89
0.89,-1.02,0.9
0.88,-1.02,0.89
0.87,-1.01,0.87
0.87,-1.02,0.84
0.86,-1.05,0.79
0.83,-1.08,0.77
0.82,-1.1,0.76
0.84,-1.12,0.77
0.82,-1.16,0.83
0.75,-1.2,0.95
0.73,-1.23,1.01
0.73,-1.28,0.97
0.72,-1.33,0.88
0.69,-1.42,0.78
0.64,-1.48,0.73
0.55,-1.44,0.78
0.53,-1.43,0.89
0.54,-1.42,1.01
0.54,-1.41,1.08
0.54,-1.42,1.06
0.54,-1.39,1.03
0.55,-1.39,0.91
0.55,-1.41,0.9
0.64,-1.45,0.96
0.72,-1.47,1.1
0.66,-1.45,1.25
0.58,-1.44,1.37
0.53,-1.42,1.46
0.53,-1.35,1.48
0.62,-1.32,1.41
0.66,-1.35,1.27
0.45,-1.43,1.25
0.06,-1.49,1.37
-0.3,-1.46,1.46
-0.57,-1.39,1.51
-0.75,-1.26,1.51
-0.81,-1.1,1.49
-0.85,-0.94,1.46
-0.9,-0.78,1.44
-0.89,-0.68,1.41
-0.84,-0.59,1.35
-0.74,-0.51,1.3
-0.63,-0.45,1.25
-0.55,-0.4,1.21
-0.49,-0.34,1.17
-0.42,-0.28,1.13
-0.34,-0.25,1.08
-0.28,-0.25,0.98
-0.21,-0.22,0.95
-0.18,-0.18,0.91
-0.15,-0.12,0.87
-0.14,-0.08,0.84
-0.15,-0.05,0.83
-0.16,-0.03,0.83
-0.15,-0.01,0.83
-0.1,-0.02,0.86
-0.04,-0.02,0.91
-0.01,-0.04,0.97
0,-0.07,1.04
0,-0.1,1.08
-0.01,-0.15,1.11
-0.03,-0.2,1.14
-0.06,-0.25,1.17
-0.08,-0.3,1.19
-0.1,-0.35,1.2
-0.15,-0.39,1.2
-0.2,-0.44,1.2
-0.24,-0.49,1.2
-0.26,-0.53,1.2
-0.28,-0.57,1.23
-0.29,-0.6,1.26
-0.31,-0.62,1.29
-0.35,-0.64,1.32
-0.37,-0.66,1.29
-0.39,-0.68,1.24
-0.41,-0.68,1.16
-0.43,-0.7,1.08
-0.43,-0.73,1.05
-0.4,-0.74,1.08
-0.37,-0.74,1.12
-0.33,-0.74,1.13
-0.26,-0.75,1.15
-0.21,-0.76,1.17
-0.16,-0.76,1.17
-0.13,-0.77,1.15
-0.14,-0.76,1.1
-0.14,-0.76,1.06
-0.12,-0.77,1.04
-0.08,-0.77,1.06
-0.05,-0.79,1.09
-0.02,-0.8,1.13
0.03,-0.8,1.18
0.07,-0.81,1.21
0.1,-0.82,1.23
0.12,-0.82,1.25
0.13,-0.81,1.25
0.14,-0.81,1.25
0.14,-0.79,1.27
0.1,-0.78,1.29
0.06,-0.76,1.32
0.09,-0.72,1.31
0.16,-0.7,1.29
0.25,-0.69,1.28
0.32,-0.69,1.24
0.39,-0.68,1.18
0.46,-0.67,1.12
0.52,-0.68,1.07
0.56,-0.7,1
0.59,-0.72,0.97
0.6,-0.73,0.95
0.62,-0.74,0.93
0.64,-0.78,0.91
0.64,-0.8,0.89
0.63,-0.82,0.84
0.61,-0.84,0.78
0.65,-0.87,0.71
0.71,-0.88,0.64
0.74,-0.87,0.63
0.76,-0.87,0.62
0.82,-0.83,0.57
0.89,-0.79,0.56
0.92,-0.76,0.56
0.98,-0.73,0.52
1.1,-0.69,0.46
1.18,-0.62,0.42
1.2,-0.59,0.38
1.18,-0.49,0.36
1.18,-0.43,0.34
1.2,-0.4,0.34
1.24,-0.38,0.35
1.3,-0.38,0.37
1.34,-0.39,0.39
1.37,-0.37,0.38
1.43,-0.32,0.38
1.52,-0.26,0.37
1.62,-0.22,0.38
1.7,-0.19,0.4
1.74,-0.15,0.42
1.75,-0.1,0.46
1.73,-0.05,0.48
1.73,-0.01,0.5
1.75,0,0.53
1.77,-0.01,0.55
1.76,-0.01,0.56
1.7,-0.01,0.56
1.64,-0.01,0.56
1.6,-0.02,0.59
1.55,-0.03,0.61
1.49,-0.04,0.62
1.44,-0.05,0.62
1.4,-0.06,0.62
1.37,-0.07,0.62
1.32,-0.1,0.63
1.28,-0.11,0.63
1.25,-0.11,0.63
1.23,-0.13,0.62
1.2,-0.15,0.62
1.16,-0.17,0.61
1.14,-0.2,0.6
1.15,-0.23,0.6
1.15,-0.25,0.6
1.16,-0.26,0.6
1.18,-0.28,0.6
1.19,-0.3,0.59
1.17,-0.33,0.59
1.14,-0.36,0.59
1.11,-0.4,0.6
1.1,-0.43,0.61
1.09,-0.45,0.61
1.1,-0.48,0.61
1.09,-0.5,0.62
1.08,-0.52,0.62
1.07,-0.56,0.64
1.06,-0.59,0.66
1.05,-0.61,0.67
1.03,-0.64,0.68
1.03,-0.67,0.69
1.03,-0.69,0.69
1.03,-0.75,0.74
1.01,-0.77,0.76
0.99,-0.79,0.78
0.96,-0.8,0.78
0.93,-0.82,0.78
0.92,-0.82,0.8
0.9,-0.83,0.82
0.89,-0.84,0.82
0.87,-0.85,0.83
0.86,-0.86,0.84
0.87,-0.86,0.82
0.87,-0.88,0.82
0.86,-0.9,0.81
0.87,-0.93,0.78
0.84,-0.98,0.77
0.81,-0.99,0.74
0.84,-0.98,0.68
0.88,-1,0.61
0.9,-1.05,0.56
0.92,-1.15,0.54
0.94,-1.28,0.56
0.87,-1.4,0.61
0.73,-1.46,0.64
0.64,-1.46,0.68
0.52,-1.44,0.69
0.41,-1.45,0.7
0.43,-1.53,0.77
0.45,-1.55,0.81
0.41,-1.55,0.88
0.37,-1.53,0.96
0.37,-1.51,1.01
0.33,-1.51,1.04
0.29,-1.51,1.08
0.28,-1.5,1.12
0.27,-1.48,1.16
0.23,-1.47,1.19
0.19,-1.44,1.21
0.17,-1.41,1.24
0.14,-1.37,1.28
0.12,-1.33,1.32
0.1,-1.28,1.35
0.07,-1.24,1.37
0.02,-1.16,1.39
-0.06,-1.05,1.41
-0.16,-0.94,1.41
-0.24,-0.87,1.42
-0.33,-0.8,1.46
-0.42,-0.71,1.44
-0.41,-0.65,1.41
-0.37,-0.59,1.39
-0.34,-0.54,1.36
-0.29,-0.49,1.35
-0.24,-0.44,1.34
-0.14,-0.43,1.33
-0.11,-0.42,1.29
-0.08,-0.42,1.24
-0.06,-0.42,1.19
-0.04,-0.42,1.14
-0.01,-0.42,1.12
0.01,-0.43,1.12
0.04,-0.45,1.13
0.08,-0.47,1.14
0.12,-0.5,1.13
0.15,-0.52,1.12
0.18,-0.55,1.11
0.2,-0.58,1.12
0.21,-0.61,1.13
0.21,-0.64,1.13
0.21,-0.66,1.12
0.21,-0.68,1.11
0.2,-0.69,1.1
0.19,-0.71,1.1
0.17,-0.73,1.11
0.14,-0.75,1.12
0.12,-0.78,1.13
0.09,-0.8,1.11
0.06,-0.83,1.08
0.06,-0.86,1.08
0.08,-0.9,1.1
0.09,-0.95,1.1
0.11,-0.96,1.09
0.14,-0.96,1.06
0.17,-0.96,1.02
0.21,-0.96,0.97
0.25,-0.93,0.94
0.29,-0.9,0.94
0.33,-0.89,0.94
0.33,-0.86,0.95
0.33,-0.83,0.96
0.34,-0.81,0.97
0.35,-0.8,0.96
0.38,-0.8,0.94
0.42,-0.78,0.94
0.45,-0.77,0.95
0.5,-0.76,0.96
0.54,-0.74,0.99
0.57,-0.74,1.03
0.6,-0.75,1.06
0.63,-0.76,1.06
0.64,-0.76,1.04
0.63,-0.75,1.05
0.61,-0.76,1.06
0.61,-0.75,1.04
0.61,-0.75,1.02
0.61,-0.76,1
0.63,-0.76,0.98
0.65,-0.75,0.95
0.67,-0.76,0.93
0.69,-0.78,0.91
0.71,-0.79,0.87
0.74,-0.8,0.84
0.78,-0.8,0.82
0.81,-0.81,0.78
0.83,-0.82,0.71
0.83,-0.83,0.64
0.87,-0.83,0.6
0.92,-0.82,0.58
0.98,-0.79,0.55
1.04,-0.77,0.51
1.09,-0.73,0.46
1.16,-0.68,0.41
1.23,-0.61,0.38
1.28,-0.55,0.37
1.29,-0.5,0.35
1.3,-0.46,0.32
1.3,-0.43,0.3
1.32,-0.41,0.29
1.36,-0.37,0.28
1.4,-0.34,0.28
1.42,-0.32,0.27
1.39,-0.28,0.28
1.39,-0.21,0.3
1.42,-0.18,0.33
1.45,-0.15,0.33
1.48,-0.13,0.33
1.5,-0.09,0.34
1.52,-0.06,0.38
1.56,-0.03,0.42
1.59,-0.01,0.46
1.6,-0.01,0.47
1.6,-0.02,0.49
1.58,-0.03,0.5
1.56,-0.03,0.52
1.55,-0.03,0.54
1.53,-0.03,0.57
1.49,-0.04,0.59
1.46,-0.05,0.61
1.43,-0.06,0.62
1.42,-0.07,0.63
1.41,-0.1,0.62
1.4,-0.13,0.63
1.37,-0.16,0.64
1.34,-0.18,0.64
1.32,-0.2,0.63
1.32,-0.21,0.64
1.33,-0.25,0.64
1.32,-0.28,0.63
1.3,-0.33,0.63
1.27,-0.36,0.64
1.26,-0.38,0.67
1.26,-0.4,0.68
1.27,-0.43,0.68
1.28,-0.45,0.67
1.28,-0.47,0.65
1.27,-0.49,0.62
1.28,-0.54,0.62
1.31,-0.58,0.66
1.34,-0.64,0.69
1.38,-0.7,0.69
1.36,-0.77,0.67
1.32,-0.84,0.66
1.26,-0.89,0.65
1.19,-0.93,0.65
1.14,-0.95,0.65
1.09,-0.94,0.64
1.05,-0.93,0.64
1.03,-0.91,0.65
0.99,-0.9,0.66
0.93,-0.9,0.66
0.9,-0.88,0.68
0.89,-0.85,0.69
0.88,-0.86,0.7
0.83,-0.88,0.72
0.78,-0.88,0.71
0.78,-0.89,0.69
0.74,-0.91,0.69
0.68,-0.93,0.71
0.67,-0.97,0.71
0.72,-1.05,0.7
0.74,-1.11,0.69
0.73,-1.1,0.68
0.74,-1.09,0.66
0.73,-1.11,0.66
0.67,-1.15,0.68
0.6,-1.18,0.73
0.54,-1.19,0.79
0.52,-1.21,0.82
0.49,-1.27,0.85
0.43,-1.29,0.87
0.41,-1.27,0.89
0.46,-1.25,0.9
0.49,-1.25,0.9
0.46,-1.25,0.91
0.41,-1.27,0.98
0.38,-1.27,1.06
0.35,-1.25,1.11
0.33,-1.23,1.13
0.32,-1.25,1.13
0.3,-1.26,1.1
0.25,-1.24,1.03
0.14,-1.18,1.05
0.13,-1.11,1.14
0.14,-1.08,1.28
0.12,-1.06,1.35
0.09,-1.02,1.34
0.05,-1.01,1.31
-0.03,-0.98,1.32
-0.09,-0.91,1.33
-0.13,-0.84,1.35
-0.17,-0.73,1.39
-0.13,-0.64,1.41
-0.06,-0.6,1.42
-0.01,-0.56,1.41
0.02,-0.54,1.38
0.03,-0.52,1.36
0.05,-0.48,1.34
0.07,-0.43,1.32
0.11,-0.4,1.26
0.13,-0.38,1.18
0.15,-0.38,1.12
0.19,-0.37,1.1
0.23,-0.36,1.12
0.27,-0.38,1.16
0.32,-0.41,1.2
0.37,-0.44,1.21
0.4,-0.48,1.19
0.39,-0.51,1.18
0.32,-0.54,1.12
0.24,-0.57,1.05
0.18,-0.63,1.04
0.17,-0.7,1.09
0.2,-0.75,1.17
0.28,-0.78,1.25
0.37,-0.81,1.28
0.44,-0.82,1.27
0.47,-0.82,1.23
0.45,-0.8,1.18
0.39,-0.76,1.12
0.3,-0.74,1.09
0.21,-0.75,1.1
0.12,-0.77,1.11
0.07,-0.79,1.11
0.07,-0.8,1.12
0.08,-0.81,1.09
0.08,-0.82,1.06
0.08,-0.83,1.06
0.08,-0.83,1.03
0.09,-0.82,1.01
0.1,-0.82,1.01
0.11,-0.82,1.04
0.12,-0.83,1.09
0.13,-0.86,1.12
0.16,-0.91,1.11
0.17,-0.93,1.1
0.16,-0.94,1.07
0.14,-0.94,1
0.14,-0.93,0.95
0.17,-0.94,0.94
0.22,-0.91,0.99
0.28,-0.89,1.03
0.36,-0.9,1.05
0.43,-0.9,1.05
0.49,-0.9,1.04
0.52,-0.92,1.02
0.53,-0.94,0.99
0.54,-0.95,0.96
0.56,-0.95,0.94
0.57,-0.96,0.93
0.56,-0.97,0.95
0.56,-0.99,0.97
0.57,-1.04,0.99
0.6,-1.11,0.99
0.64,-1.15,0.97
0.69,-1.18,0.95
0.72,-1.2,0.95
0.77,-1.16,0.94
0.89,-1.09,0.86
1,-1,0.8
1.26,-0.76,0.76
1.38,-0.61,0.74
1.45,-0.5,0.7
1.4,-0.47,0.66
1.31,-0.49,0.63
1.27,-0.51,0.63
1.33,-0.5,0.65
1.41,-0.47,0.65
1.45,-0.42,0.64
1.44,-0.36,0.61
1.44,-0.28,0.6
1.42,-0.22,0.61
1.4,-0.19,0.62
1.39,-0.15,0.62
1.42,-0.11,0.62
1.45,-0.09,0.61
1.45,-0.06,0.6
1.44,-0.03,0.59
1.46,-0.01,0.59
1.46,0,0.59
1.43,0,0.57
1.4,0,0.57
1.37,0,0.58
1.35,0,0.61
1.35,0.01,0.64
1.34,0.02,0.67
1.32,-0.01,0.68
1.29,-0.02,0.68
1.25,-0.03,0.66
1.21,-0.05,0.66
1.22,-0.06,0.68
1.22,-0.08,0.7
1.2,-0.09,0.71
1.19,-0.1,0.71
1.17,-0.12,0.7
1.16,-0.14,0.7
1.15,-0.17,0.69
1.15,-0.19,0.69
1.16,-0.21,0.71
1.17,-0.23,0.71
1.15,-0.25,0.69
1.14,-0.27,0.69
1.14,-0.3,0.7
1.14,-0.33,0.72
1.12,-0.36,0.74
1.11,-0.38,0.76
1.1,-0.4,0.76
1.12,-0.41,0.78
1.14,-0.44,0.81
1.11,-0.48,0.85
1.11,-0.51,0.89
1.19,-0.55,0.92
1.41,-0.67,0.92
1.41,-0.69,0.94
1.33,-0.72,0.96
1.23,-0.74,0.96
1.14,-0.78,0.95
1.08,-0.83,0.94
1.05,-0.88,0.92
1.01,-0.91,0.88
0.96,-0.93,0.83
0.91,-0.94,0.82
0.86,-0.98,0.79
0.81,-0.99,0.76
0.78,-0.98,0.72
0.75,-0.96,0.68
0.71,-0.95,0.66
0.66,-0.97,0.65
0.61,-0.99,0.66
0.6,-0.98,0.67
0.63,-0.97,0.67
0.65,-1,0.65
0.64,-1.06,0.63
0.6,-1.08,0.62
0.54,-1.07,0.63
0.48,-1.05,0.64
0.42,-1.03,0.65
0.37,-1.03,0.7
0.37,-1.03,0.73
0.41,-1.05,0.75
0.4,-1.1,0.78
0.32,-1.12,0.81
0.33,-1.07,0.83
0.38,-1.05,0.85
0.39,-1.05,0.88
0.4,-1.07,0.92
0.42,-1.1,0.94
0.42,-1.14,0.95
0.4,-1.13,1
0.41,-1.11,1.09
0.44,-1.11,1.13
0.42,-1.1,1.13
0.39,-1.11,1.16
0.38,-1.1,1.21
0.36,-1.07,1.28
0.35,-1.05,1.34
0.33,-1.02,1.38
0.3,-0.98,1.4
0.26,-0.95,1.41
0.21,-0.93,1.41
0.17,-0.89,1.43
0.13,-0.85,1.45
0.11,-0.81,1.43
0.1,-0.7,1.46
-0.01,-0.6,1.38
-0.04,-0.54,1.34
-0.1,-0.5,1.3
-0.14,-0.46,1.24
-0.12,-0.41,1.2
-0.06,-0.35,1.18
-0.02,-0.3,1.17
0,-0.27,1.17
0.03,-0.26,1.16
0.06,-0.27,1.15
0.1,-0.27,1.13
0.11,-0.28,1.1
0.13,-0.31,1.07
0.15,-0.33,1.04
0.16,-0.35,1.03
0.15,-0.38,1.06
0.14,-0.42,1.09
0.13,-0.47,1.12
0.13,-0.51,1.14
0.14,-0.56,1.15
0.16,-0.61,1.16
0.18,-0.65,1.18
0.17,-0.69,1.18
0.16,-0.71,1.16
0.14,-0.72,1.14
0.13,-0.73,1.1
0.1,-0.74,1.12
0.13,-0.74,1.14
0.14,-0.74,1.17
0.14,-0.74,1.19
0.14,-0.74,1.21
0.14,-0.74,1.24
0.13,-0.75,1.25
0.12,-0.74,1.24
0.11,-0.73,1.23
0.1,-0.72,1.18
0.1,-0.72,1.12
0.12,-0.71,1.05
0.16,-0.71,1.03
0.17,-0.7,1.06
0.18,-0.68,1.07
0.17,-0.67,1.07
0.14,-0.64,1.07
0.12,-0.62,1.05
0.11,-0.64,1.04
0.11,-0.65,1.05
0.14,-0.67,1.04
0.14,-0.67,1
0.12,-0.68,0.94
0.13,-0.68,0.91
0.16,-0.69,0.92
0.18,-0.7,1.07
0.2,-0.67,1.12
0.24,-0.68,1.03
0.27,-0.67,1.02
0.26,-0.67,1.1
0.24,-0.66,1.08
0.24,-0.65,1.05
0.26,-0.65,1.02
0.29,-0.64,1
0.32,-0.64,0.99
0.35,-0.66,1
0.36,-0.67,1.02
0.36,-0.66,1.01
0.38,-0.66,1.02
0.44,-0.67,1.06
0.49,-0.7,1.1
0.51,-0.72,1.12
0.5,-0.72,1.1
0.49,-0.71,1.04
0.54,-0.71,0.99
0.61,-0.71,0.96
0.66,-0.69,0.95
0.71,-0.67,0.93
0.81,-0.64,0.88
0.93,-0.62,0.79
1.05,-0.6,0.73
1.17,-0.55,0.66
1.25,-0.41,0.62
1.23,-0.36,0.58
1.21,-0.33,0.55
1.2,-0.33,0.53
1.18,-0.33,0.51
1.17,-0.31,0.5
1.19,-0.29,0.5
1.24,-0.25,0.5
1.33,-0.21,0.5
1.41,-0.17,0.51
1.43,-0.12,0.51
1.41,-0.08,0.5
1.39,-0.04,0.5
1.36,0,0.52
1.36,0.03,0.54
1.41,0.03,0.56
1.45,0.03,0.57
1.46,0.04,0.59
1.44,0.05,0.6
1.43,0.06,0.63
1.44,0.06,0.67
1.47,0.05,0.72
1.48,0.04,0.74
1.45,0.04,0.73
1.4,0.04,0.73
1.34,0.03,0.76
1.29,0,0.78
1.29,-0.02,0.81
1.29,-0.04,0.82
1.26,-0.07,0.8
1.22,-0.09,0.77
1.18,-0.11,0.73
1.15,-0.13,0.7
1.14,-0.16,0.67
1.14,-0.18,0.69
1.14,-0.2,0.73
1.14,-0.21,0.79
1.14,-0.22,0.82
1.15,-0.25,0.82
1.15,-0.3,0.8
1.14,-0.34,0.78
1.12,-0.37,0.75
1.1,-0.39,0.73
1.08,-0.41,0.72
1.08,-0.43,0.72
1.08,-0.44,0.74
1.06,-0.47,0.76
1.03,-0.5,0.77
0.99,-0.54,0.77
0.94,-0.57,0.78
0.89,-0.6,0.78
0.86,-0.62,0.79
0.87,-0.62,0.79
0.9,-0.63,0.79
0.97,-0.66,0.77
1.07,-0.7,0.74
1.18,-0.74,0.69
1.27,-0.77,0.66
1.32,-0.81,0.62
1.3,-0.86,0.59
1.22,-0.92,0.61
1.13,-0.95,0.69
1.06,-0.95,0.78
1.01,-0.92,0.79
0.99,-0.91,0.77
0.94,-0.93,0.74
0.88,-0.92,0.72
0.9,-0.92,0.69
0.91,-0.97,0.68
0.9,-1,0.74
0.93,-0.99,0.8
0.94,-0.98,0.82
0.9,-1.02,0.81
0.85,-1.11,0.8
0.79,-1.19,0.81
0.67,-1.17,0.84
0.54,-1.11,0.85
0.48,-1.09,0.84
0.44,-1.11,0.97
0.37,-1.12,1.02
0.33,-1.11,1.04
0.28,-1.11,1.04
0.23,-1.09,1.04
0.19,-1.07,1.05
0.18,-1.06,1.08
0.19,-1.06,1.14
0.21,-1.07,1.19
0.23,-1.07,1.18
0.21,-1.09,1.16
0.16,-1.09,1.17
0.1,-1.09,1.2
0.04,-1.07,1.24
0,-1.03,1.28
-0.02,-0.98,1.32
-0.03,-0.93,1.33
-0.03,-0.9,1.32
-0.04,-0.86,1.3
-0.07,-0.82,1.31
-0.11,-0.78,1.33
-0.14,-0.73,1.32
-0.16,-0.7,1.37
-0.2,-0.65,1.43
-0.25,-0.57,1.42
-0.3,-0.51,1.41
-0.32,-0.42,1.38
-0.24,-0.4,1.35
-0.19,-0.38,1.3
-0.15,-0.38,1.24
-0.11,-0.39,1.18
-0.03,-0.4,1.14
0.03,-0.41,1.13
0.06,-0.41,1.13
0.05,-0.4,1.14
0.02,-0.4,1.13
-0.01,-0.43,1.1
-0.01,-0.45,1.07
0,-0.48,1.04
0.02,-0.51,1.04
0.04,-0.54,1.06
0.07,-0.56,1.09
0.11,-0.6,1.09
0.16,-0.64,1.08
0.19,-0.67,1.07
0.18,-0.7,1.06
0.18,-0.73,1.06
0.19,-0.77,1.07
0.2,-0.8,1.09
0.23,-0.82,1.12
0.26,-0.83,1.14
0.29,-0.85,1.14
0.3,-0.88,1.07
0.3,-0.89,1.03
0.28,-0.9,1.05
0.27,-0.91,1.07
0.24,-0.94,1.11
0.19,-0.96,1.17
0.17,-0.99,1.19
0.2,-1.02,1.19
0.24,-1.04,1.16
0.26,-1.06,1.09
0.25,-1.08,1.02
0.25,-1.11,0.99
0.24,-1.1,1.01
0.21,-1.1,1.05
0.21,-1.13,1.07
0.24,-1.13,1.09
0.28,-1.1,1.08
0.33,-1.08,1.05
0.38,-1.08,1
0.39,-1.05,0.99
0.4,-0.99,0.99
0.43,-0.97,0.97
0.49,-0.96,0.98
0.57,-0.95,1.03
0.63,-0.94,1.1
0.67,-0.94,1.15
0.74,-0.91,0.92
0.65,-0.87,1.12
0.58,-0.85,1.16
0.52,-0.86,1.18
0.47,-0.89,1.19
0.38,-0.93,1.18
0.27,-0.95,1.17
0.22,-0.96,1.15
0.24,-0.96,1.14
0.32,-0.96,1.13
0.4,-0.97,1.09
0.48,-0.95,1.01
0.6,-0.9,0.92
0.76,-0.89,0.82
0.91,-0.84,0.72
1.04,-0.76,0.66
1.12,-0.67,0.62
1.16,-0.62,0.6
1.15,-0.59,0.6
1.11,-0.57,0.6
1.07,-0.53,0.58
1.06,-0.49,0.55
1.09,-0.46,0.55
1.14,-0.44,0.55
1.2,-0.43,0.55
1.28,-0.41,0.56
1.36,-0.36,0.62
1.47,-0.22,0.66
1.51,-0.17,0.68
1.52,-0.11,0.7
1.53,-0.07,0.72
1.54,-0.03,0.76
1.56,0.01,0.8
1.58,0.03,0.83
1.56,0.03,0.84
1.52,0.05,0.84
1.47,0.06,0.88
1.42,0.04,0.91
1.37,0.03,0.93
1.33,0.02,0.93
1.32,0.02,0.94
1.31,0.02,0.94
1.27,0.02,0.92
1.23,0.02,0.91
1.2,0,0.91
1.18,-0.03,0.89
1.17,-0.05,0.86
1.17,-0.07,0.83
1.16,-0.09,0.81
1.14,-0.1,0.8
1.11,-0.12,0.8
1.09,-0.14,0.81
1.1,-0.19,0.79
1.08,-0.25,0.76
1.07,-0.28,0.73
1.07,-0.31,0.72
1.09,-0.34,0.73
1.09,-0.37,0.73
1.1,-0.4,0.74
1.13,-0.44,0.76
1.15,-0.49,0.78
1.15,-0.54,0.8
1.16,-0.59,0.81
1.17,-0.65,0.8
1.17,-0.71,0.79
1.15,-0.78,0.79
1.12,-0.86,0.79
1.09,-0.94,0.81
1.06,-1.01,0.83
1.02,-1.07,0.87
0.97,-1.12,0.91
0.92,-1.16,0.91
0.87,-1.19,0.89
0.8,-1.2,0.87
0.74,-1.2,0.86
0.71,-1.19,0.86
0.67,-1.18,0.87
0.64,-1.18,0.88
0.63,-1.19,0.93
0.62,-1.21,0.93
0.61,-1.24,0.91
0.6,-1.28,0.89
0.58,-1.35,0.88
0.56,-1.42,0.89
0.55,-1.42,0.94
0.57,-1.39,1
0.59,-1.41,1.04
0.56,-1.48,1.05
0.52,-1.54,1.04
0.49,-1.57,1
0.47,-1.63,0.95
0.43,-1.68,0.98
0.4,-1.64,1.09
0.44,-1.62,1.19
0.46,-1.65,1.25
0.39,-1.67,1.26
0.29,-1.68,1.21
0.22,-1.66,1.13
0.2,-1.63,1.11
0.18,-1.57,1.15
0.12,-1.48,1.21
0.08,-1.38,1.26
0.05,-1.3,1.29
0.01,-1.24,1.32
-0.04,-1.17,1.33
-0.15,-0.96,1.29
-0.19,-0.88,1.3
-0.27,-0.77,1.32
-0.38,-0.61,1.24
-0.44,-0.49,1.17
-0.47,-0.39,1.16
-0.47,-0.31,1.19
-0.45,-0.24,1.24
-0.43,-0.2,1.28
-0.38,-0.17,1.31
-0.3,-0.17,1.3
-0.21,-0.17,1.27
-0.14,-0.17,1.24
-0.11,-0.17,1.2
-0.09,-0.18,1.16
-0.06,-0.18,1.12
-0.02,-0.19,1.1
0.02,-0.21,1.11
0.06,-0.22,1.13
0.1,-0.25,1.14
0.14,-0.29,1.16
0.18,-0.35,1.18
0.23,-0.41,1.21
0.27,-0.48,1.21
0.29,-0.54,1.2
0.27,-0.59,1.17
0.25,-0.71,1.16
0.22,-0.76,1.18
0.18,-0.79,1.2
0.13,-0.82,1.23
0.09,-0.84,1.22
0.06,-0.86,1.18
0.03,-0.88,1.16
0.02,-0.89,1.14
0.01,-0.92,1.1
0.01,-0.94,1.07
0.03,-0.95,1.08
0.06,-0.92,1.1
0.05,-0.92,1.13
0.01,-0.93,1.16
0,-0.93,1.16
0.02,-0.92,1.15
0.04,-0.91,1.13
0.04,-0.9,1.08
0.03,-0.9,1.01
0.03,-0.9,0.96
0.05,-0.9,0.97
0.09,-0.91,1.01
0.13,-0.92,1.03
0.14,-0.92,1.04
0.16,-0.9,1.05
0.19,-0.88,1.05
0.23,-0.89,1.02
0.26,-0.9,1.01
0.27,-0.88,1.01
0.31,-0.88,1
0.34,-0.88,1
0.37,-0.88,0.99
0.4,-0.86,0.99
0.4,-0.84,0.97
0.4,-0.82,0.97
0.38,-0.8,0.96
0.39,-0.79,0.94
0.41,-0.81,0.93
0.43,-0.85,0.9
0.44,-0.86,0.87
0.45,-0.87,0.88
0.5,-0.9,0.9
0.54,-0.92,0.9
0.56,-0.95,0.87
0.6,-1.01,0.83
0.63,-0.99,0.83
0.69,-0.96,0.83
0.77,-0.96,0.8
0.82,-0.92,0.76
0.85,-0.91,0.72
0.92,-0.88,0.68
1.02,-0.83,0.57
1.11,-0.76,0.51
1.23,-0.63,0.48
1.31,-0.58,0.47
1.39,-0.51,0.49
1.49,-0.44,0.5
1.59,-0.37,0.5
1.63,-0.32,0.47
1.63,-0.27,0.42
1.63,-0.23,0.4
1.63,-0.19,0.43
1.67,-0.18,0.46
1.69,-0.17,0.48
1.7,-0.15,0.51
1.72,-0.13,0.54
1.72,-0.12,0.56
1.68,-0.11,0.56
1.64,-0.11,0.58
1.6,-0.1,0.6
1.56,-0.1,0.62
1.53,-0.11,0.64
1.49,-0.12,0.65
1.45,-0.14,0.64
1.41,-0.14,0.64
1.38,-0.15,0.63
1.36,-0.18,0.62
1.32,-0.2,0.63
1.29,-0.21,0.64
1.24,-0.24,0.63
1.22,-0.27,0.61
1.21,-0.3,0.59
1.21,-0.31,0.6
1.22,-0.34,0.64
1.23,-0.37,0.68
1.26,-0.41,0.69
1.31,-0.45,0.7
1.32,-0.5,0.68
1.32,-0.55,0.66
1.34,-0.6,0.67
1.38,-0.67,0.69
1.43,-0.77,0.71
1.47,-0.87,0.74
1.48,-0.97,0.8
1.42,-1.04,0.84
1.32,-1.09,0.81
1.25,-1.1,0.78
1.18,-1.05,0.79
1.06,-0.99,0.8
0.98,-0.97,0.79
0.92,-0.98,0.78
0.86,-0.98,0.8
0.81,-0.97,0.82
0.76,-0.96,0.84
0.72,-0.94,0.84
0.7,-0.94,0.86
0.64,-0.94,0.87
0.59,-0.95,0.86
0.58,-1.01,0.84
0.58,-1.05,0.81
0.59,-1.03,0.8
0.57,-1.01,0.81
0.53,-1.01,0.79
0.51,-1.01,0.74
0.53,-1.03,0.69
0.56,-1.05,0.66
0.54,-1.06,0.64
0.53,-1.09,0.67
0.54,-1.12,0.74
0.53,-1.11,0.85
0.54,-1.11,0.93
0.53,-1.13,0.95
0.47,-1.17,0.93
0.41,-1.18,0.91
0.41,-1.17,0.9
0.4,-1.15,0.93
0.4,-1.14,1.01
0.39,-1.15,1.09
0.36,-1.19,1.15
0.32,-1.19,1.18
0.27,-1.16,1.18
0.22,-1.1,1.18
0.2,-1.1,1.22
0.19,-1.09,1.24
0.17,-1.05,1.25
0.13,-0.99,1.24
0.1,-0.93,1.2
0.07,-0.9,1.21
0.02,-0.83,1.25
-0.03,-0.72,1.25
-0.06,-0.66,1.24
-0.06,-0.63,1.23
-0.06,-0.6,1.22
-0.06,-0.56,1.22
-0.09,-0.5,1.22
-0.12,-0.43,1.21
-0.13,-0.36,1.21
-0.1,-0.31,1.2
-0.05,-0.27,1.2
-0.01,-0.26,1.2
0.01,-0.25,1.19
0.02,-0.26,1.15
0.03,-0.27,1.11
0.04,-0.29,1.06
0.05,-0.31,1.05
0.08,-0.33,1.07
0.1,-0.33,1.09
0.09,-0.35,1.12
0.07,-0.38,1.12
0.07,-0.4,1.11
0.09,-0.43,1.1
0.11,-0.45,1.09
0.13,-0.47,1.09
0.14,-0.5,1.11
0.15,-0.53,1.13
0.16,-0.56,1.14
0.16,-0.57,1.15
0.14,-0.57,1.16
0.1,-0.58,1.15
0.07,-0.61,1.14
0.06,-0.64,1.14
0.05,-0.67,1.13
0.04,-0.69,1.11
0.04,-0.71,1.09
0.04,-0.71,1.1
0.03,-0.71,1.1
0.01,-0.7,1.11
0,-0.7,1.12
0.01,-0.69,1.13
0.01,-0.7,1.14
0.02,-0.71,1.14
0.04,-0.72,1.14
0.04,-0.72,1.09
0.03,-0.7,0.95
0.03,-0.68,0.91
0.1,-0.68,0.93
0.17,-0.68,0.98
0.22,-0.7,1.01
0.25,-0.71,1.01
0.25,-0.71,1
0.24,-0.71,0.97
0.23,-0.7,0.94
0.24,-0.69,0.91
0.26,-0.69,0.89
0.3,-0.7,0.91
0.34,-0.7,0.95
0.37,-0.68,0.98
0.4,-0.68,0.98
0.42,-0.68,0.96
0.43,-0.69,0.95
0.43,-0.69,0.95
0.44,-0.69,0.96
0.45,-0.68,0.98
0.46,-0.69,0.99
0.47,-0.72,0.99
0.45,-0.77,1
0.46,-0.8,0.98
0.49,-0.83,0.96
0.51,-0.88,0.92
0.57,-0.9,0.9
0.77,-0.88,0.85
0.85,-0.86,0.78
0.88,-0.83,0.7
0.97,-0.79,0.62
1.08,-0.71,0.55
1.22,-0.6,0.5
1.34,-0.53,0.49
1.38,-0.5,0.47
1.4,-0.46,0.44
1.44,-0.44,0.42
1.48,-0.41,0.42
1.48,-0.38,0.42
1.47,-0.35,0.43
1.51,-0.33,0.45
1.56,-0.32,0.45
1.56,-0.29,0.42
1.52,-0.24,0.4
1.51,-0.2,0.42
1.49,-0.17,0.44
1.49,-0.13,0.47
1.52,-0.1,0.51
1.57,-0.09,0.54
1.58,-0.1,0.55
1.56,-0.1,0.55
1.52,-0.09,0.56
1.49,-0.08,0.6
1.42,-0.09,0.61
1.38,-0.09,0.61
1.35,-0.11,0.62
1.31,-0.12,0.63
1.29,-0.13,0.63
1.28,-0.14,0.62
1.28,-0.16,0.61
1.28,-0.18,0.61
1.28,-0.21,0.62
1.27,-0.24,0.61
1.27,-0.26,0.61
1.24,-0.27,0.62
1.22,-0.28,0.62
1.23,-0.3,0.62
1.27,-0.34,0.61
1.29,-0.39,0.59
1.27,-0.42,0.58
1.25,-0.45,0.59
1.23,-0.48,0.61
1.21,-0.51,0.64
1.2,-0.53,0.64
1.2,-0.57,0.62
1.2,-0.61,0.6
1.2,-0.65,0.58
1.18,-0.7,0.58
1.17,-0.74,0.65
1.14,-0.8,0.67
1.13,-0.83,0.67
1.13,-0.87,0.64
1.12,-0.9,0.58
1.1,-0.92,0.54
1.08,-0.95,0.53
1.04,-1,0.53
0.99,-1.02,0.56
0.96,-1.05,0.57
0.96,-1.09,0.57
0.97,-1.12,0.61
0.93,-1.13,0.65
0.88,-1.13,0.66
0.84,-1.13,0.63
0.82,-1.15,0.59
0.84,-1.19,0.57
0.87,-1.25,0.56
0.85,-1.33,0.56
0.77,-1.36,0.63
0.67,-1.31,0.74
0.61,-1.28,0.88
0.59,-1.26,0.95
0.61,-1.27,0.91
0.62,-1.3,0.84
0.59,-1.33,0.79
0.56,-1.37,0.83
0.42,-1.37,0.9
0.37,-1.36,0.98
0.34,-1.37,1.03
0.31,-1.39,1.07
0.28,-1.38,1.09
0.28,-1.36,1.1
0.29,-1.32,1.1
0.28,-1.29,1.1
0.27,-1.28,1.09
0.24,-1.27,1.11
0.15,-1.23,1.16
0.04,-1.17,1.19
-0.03,-1.11,1.19
-0.06,-1.03,1.22
-0.09,-0.94,1.25
-0.09,-0.87,1.25
-0.08,-0.81,1.25
-0.05,-0.79,1.25
-0.04,-0.76,1.25
-0.08,-0.69,1.26
-0.12,-0.63,1.26
-0.12,-0.6,1.26
-0.06,-0.58,1.26
0.01,-0.57,1.24
0.05,-0.56,1.22
0.07,-0.56,1.16
0.13,-0.56,1.13
0.15,-0.56,1.1
0.17,-0.56,1.09
0.2,-0.57,1.09
0.23,-0.58,1.09
0.25,-0.6,1.1
0.25,-0.63,1.1
0.26,-0.66,1.1
0.27,-0.7,1.1
0.3,-0.74,1.11
0.32,-0.76,1.11
0.36,-0.79,1.13
0.41,-0.81,1.19
0.42,-0.81,1.25
0.38,-0.8,1.31
0.32,-0.79,1.33
0.24,-0.78,1.29
0.16,-0.77,1.24
0.09,-0.78,1.21
0.02,-0.8,1.21
-0.01,-0.85,1.25
0.02,-0.9,1.28
0.07,-0.96,1.3
0.11,-1.03,1.31
0.14,-1.06,1.29
0.16,-1.08,1.25
0.19,-1.12,1.08
0.2,-1.14,1.06
0.21,-1.16,1.1
0.21,-1.17,1.12
0.22,-1.18,1.12
0.24,-1.18,1.09
0.27,-1.18,1.05
0.27,-1.18,0.99
0.27,-1.16,0.91
0.28,-1.14,0.84
0.3,-1.11,0.81
0.36,-1.11,0.8
0.46,-1.14,0.8
0.53,-1.14,0.81
0.56,-1.12,0.82
0.55,-1.09,0.79
0.52,-1.05,0.77
0.52,-0.99,0.76
0.55,-0.94,0.77
0.56,-0.92,0.82
0.57,-0.91,0.88
0.6,-0.94,0.89
0.61,-0.95,0.88
0.58,-0.99,0.87
0.59,-1.03,0.89
0.64,-1.03,0.91
0.67,-1.01,0.86
0.78,-0.98,0.79
0.89,-0.93,0.73
1.06,-0.82,0.68
1.24,-0.7,0.64
1.35,-0.56,0.63
1.39,-0.45,0.61
1.37,-0.42,0.58
1.34,-0.46,0.56
1.31,-0.51,0.56
1.29,-0.53,0.57
1.28,-0.52,0.59
1.3,-0.47,0.61
1.35,-0.41,0.62
1.41,-0.36,0.64
1.46,-0.31,0.65
1.51,-0.24,0.66
1.57,-0.17,0.68
1.63,-0.11,0.71
1.67,-0.08,0.73
1.69,-0.07,0.74
1.7,-0.08,0.74
1.69,-0.07,0.73
1.67,-0.05,0.71
1.67,-0.03,0.7
1.68,-0.03,0.7
1.67,-0.01,0.7
1.58,-0.02,0.68
1.54,-0.03,0.67
1.51,-0.05,0.66
1.47,-0.08,0.65
1.44,-0.1,0.64
1.41,-0.12,0.63
1.4,-0.14,0.63
1.37,-0.17,0.62
1.33,-0.22,0.61
1.3,-0.26,0.59
1.28,-0.29,0.56
1.28,-0.32,0.56
1.27,-0.34,0.58
1.26,-0.36,0.59
1.26,-0.39,0.58
1.25,-0.44,0.57
1.24,-0.48,0.54
1.24,-0.52,0.54
1.24,-0.57,0.56
1.25,-0.62,0.59
1.27,-0.67,0.6
1.31,-0.71,0.6
1.33,-0.77,0.6
1.32,-0.83,0.59
1.31,-0.9,0.58
1.31,-0.98,0.6
1.25,-1.14,0.59
1.21,-1.21,0.57
1.18,-1.23,0.57
1.14,-1.22,0.6
1.11,-1.23,0.63
1.08,-1.25,0.61
1.04,-1.28,0.57
1.04,-1.29,0.56
1.07,-1.34,0.58
1.04,-1.41,0.65
0.99,-1.44,0.75
0.98,-1.45,0.77
0.94,-1.49,0.71
0.88,-1.55,0.68
0.82,-1.63,0.73
0.77,-1.69,0.79
0.71,-1.73,0.82
0.61,-1.67,0.86
0.5,-1.62,0.91
0.38,-1.64,0.95
0.34,-1.63,0.98
0.39,-1.62,1
0.41,-1.65,1.01
0.37,-1.66,1.04
0.35,-1.62,1.08
0.34,-1.59,1.12
0.24,-1.53,1.13
0.19,-1.5,1.14
0.14,-1.49,1.16
0.1,-1.46,1.17
0.06,-1.41,1.18
0.02,-1.36,1.19
-0.07,-1.28,1.19
-0.18,-1.18,1.2
-0.24,-1.09,1.23
-0.24,-1.04,1.26
-0.23,-0.98,1.3
-0.21,-0.91,1.29
-0.18,-0.86,1.27
-0.14,-0.82,1.25
-0.11,-0.8,1.24
-0.1,-0.77,1.25
-0.1,-0.74,1.25
-0.08,-0.72,1.25
-0.05,-0.69,1.27
-0.05,-0.66,1.3
-0.06,-0.64,1.3
-0.07,-0.64,1.3
-0.07,-0.64,1.28
-0.06,-0.65,1.26
-0.03,-0.68,1.25
0,-0.7,1.26
0.02,-0.74,1.24
0.04,-0.77,1.21
0.05,-0.79,1.2
0.08,-0.82,1.2
0.1,-0.86,1.21
0.12,-0.9,1.2
0.14,-0.93,1.19
0.18,-0.96,1.17
0.22,-0.98,1.15
0.25,-1.01,1.14
0.27,-1.03,1.14
0.29,-1.06,1.14
0.32,-1.1,1.15
0.35,-1.12,1.14
0.35,-1.15,1.11
0.33,-1.18,1.1
0.3,-1.22,1.05
0.28,-1.26,0.99
0.31,-1.27,0.99
0.36,-1.28,1.05
0.38,-1.29,1.09
0.39,-1.31,1.07
0.4,-1.32,1.04
0.4,-1.33,1.02
0.39,-1.32,0.99
0.38,-1.3,0.89
0.44,-1.29,0.92
0.47,-1.27,0.95
0.51,-1.25,0.97
0.54,-1.22,0.98
0.55,-1.21,0.95
0.52,-1.21,0.91
0.5,-1.18,0.88
0.5,-1.13,0.87
0.53,-1.11,0.87
0.56,-1.11,0.85
0.58,-1.1,0.84
0.57,-1.11,0.82
0.56,-1.12,0.8
0.57,-1.12,0.78
0.61,-1.12,0.78
0.65,-1.13,0.8
0.67,-1.13,0.8
0.67,-1.12,0.78
0.75,-1.07,0.77
0.82,-1.04,0.75
0.87,-1.03,0.73
1.01,-0.97,0.75
1.19,-0.88,0.77
1.34,-0.77,0.76
1.5,-0.62,0.75
1.59,-0.46,0.72
1.55,-0.32,0.7
1.58,-0.32,0.78
1.58,-0.32,0.85
1.51,-0.32,0.85
1.44,-0.29,0.85
1.42,-0.26,0.86
1.45,-0.18,0.92
1.5,-0.14,0.96
1.55,-0.12,0.96
1.56,-0.06,0.95
1.56,-0.03,0.96
1.54,-0.02,0.97
1.5,0,0.97
1.47,0,0.98
1.45,-0.01,1
1.42,-0.01,1.01
1.4,-0.01,1.01
1.41,0.01,1.01
1.41,-0.01,1.01
1.38,-0.04,0.99
1.35,-0.07,0.96
1.34,-0.08,0.93
1.34,-0.1,0.92
1.32,-0.12,0.9
1.28,-0.16,0.88
1.26,-0.2,0.85
1.25,-0.26,0.85
1.28,-0.29,0.84
1.27,-0.34,0.83
1.28,-0.39,0.81
1.29,-0.44,0.81
1.29,-0.51,0.8
1.28,-0.58,0.77
1.28,-0.64,0.74
1.3,-0.7,0.72
1.29,-0.77,0.72
1.24,-0.84,0.73
1.18,-0.91,0.74
1.13,-0.97,0.74
1.11,-1.01,0.74
1.12,-1.05,0.73
1.12,-1.07,0.72
1.12,-1.06,0.68
1.11,-1.09,0.66
1.08,-1.12,0.66
1.04,-1.13,0.66
1,-1.15,0.64
0.93,-1.21,0.63
0.87,-1.25,0.63
0.86,-1.25,0.64
0.85,-1.26,0.67
0.81,-1.29,0.75
0.77,-1.37,0.81
0.77,-1.45,0.75
0.7,-1.48,0.73
0.63,-1.47,0.76
0.59,-1.48,0.8
0.55,-1.49,0.86
0.53,-1.49,0.92
0.54,-1.49,0.98
0.56,-1.54,1
0.56,-1.58,0.99
0.52,-1.57,0.99
0.5,-1.54,1.01
0.47,-1.53,1.02
0.39,-1.53,1.03
0.29,-1.53,1.07
0.23,-1.49,1.1
0.2,-1.47,1.14
0.17,-1.46,1.17
0.16,-1.41,1.19
0.13,-1.35,1.21
0.08,-1.31,1.22
0,-1.26,1.24
-0.1,-1.18,1.28
-0.2,-1.1,1.31
-0.26,-1.02,1.34
-0.29,-0.95,1.36
-0.3,-0.9,1.39
-0.29,-0.78,1.37
-0.28,-0.73,1.35
-0.27,-0.65,1.34
-0.26,-0.56,1.33
-0.26,-0.49,1.33
-0.25,-0.44,1.33
-0.22,-0.43,1.31
-0.19,-0.42,1.26
-0.17,-0.41,1.2
-0.12,-0.39,1.16
-0.06,-0.37,1.16
-0.01,-0.36,1.16
0.02,-0.36,1.16
0.05,-0.37,1.14
0.08,-0.38,1.11
0.12,-0.39,1.08
0.13,-0.41,1.06
0.13,-0.45,1.06
0.14,-0.49,1.08
0.17,-0.53,1.12
0.2,-0.59,1.16
0.22,-0.66,1.19
0.24,-0.73,1.22
0.25,-0.8,1.22
0.24,-0.84,1.19
0.21,-0.88,1.09
0.17,-0.96,1.11
0.14,-1,1.15
0.11,-1.03,1.2
0.09,-1.06,1.21
0.08,-1.09,1.21
0.07,-1.1,1.22
0.07,-1.1,1.21
0.08,-1.11,1.21
0.11,-1.13,1.19
0.11,-1.12,1.09
0.07,-1.12,0.98
0.1,-1.12,0.94
0.17,-1.11,1
0.22,-1.08,1.08
0.23,-1.06,1.13
0.24,-1.05,1.14
0.27,-1.03,1.1
0.31,-1,1.05
0.34,-0.96,1
0.37,-0.93,0.97
0.41,-0.9,0.98
0.45,-0.88,1.01
0.49,-0.88,1.05
0.52,-0.92,1.08
0.54,-0.97,1.09
0.56,-0.99,1.04
0.55,-1.05,1.01
0.54,-1.08,0.97
0.52,-1.09,0.91
0.5,-1.1,0.89
0.48,-1.15,0.89
0.52,-1.16,0.92
0.65,-1.16,0.94
0.72,-1.17,0.9
0.79,-1.14,0.83
0.87,-1.06,0.75
0.92,-1.01,0.69
1.03,-0.96,0.66
1.17,-0.85,0.61
1.25,-0.72,0.58
1.34,-0.59,0.56
1.43,-0.45,0.56
1.41,-0.39,0.55
1.33,-0.41,0.52
1.26,-0.44,0.48
1.24,-0.44,0.47
1.28,-0.45,0.47
1.37,-0.46,0.46
1.44,-0.44,0.46
1.47,-0.37,0.45
1.5,-0.25,0.46
1.56,-0.12,0.55
1.74,0.06,0.59
1.8,0.08,0.63
1.8,0.07,0.67
1.74,0.06,0.69
1.66,0.04,0.72
1.59,0.01,0.75
1.52,-0.01,0.78
1.45,-0.01,0.8
1.41,0,0.82
1.4,0,0.84
1.37,0,0.85
1.34,0,0.85
1.32,-0.01,0.85
1.31,-0.04,0.85
1.28,-0.09,0.83
1.25,-0.12,0.82
1.22,-0.14,0.81
1.21,-0.16,0.81
1.2,-0.19,0.81
1.2,-0.22,0.8
1.2,-0.25,0.78
1.19,-0.29,0.75
1.17,-0.33,0.71
1.16,-0.36,0.69
1.15,-0.4,0.69
1.14,-0.44,0.69
1.12,-0.52,0.68
1.12,-0.56,0.67
1.13,-0.6,0.68
1.14,-0.65,0.69
1.13,-0.7,0.69
1.12,-0.76,0.7
1.1,-0.82,0.7
1.09,-0.89,0.71
1.09,-0.95,0.74
1.08,-1.03,0.75
1.05,-1.08,0.74
1,-1.12,0.73
0.95,-1.15,0.72
0.93,-1.17,0.71
0.93,-1.17,0.71
0.92,-1.17,0.71
0.93,-1.19,0.69
0.93,-1.22,0.68
0.91,-1.29,0.71
0.89,-1.32,0.73
0.89,-1.31,0.72
0.89,-1.35,0.69
0.87,-1.42,0.7
0.84,-1.46,0.73
0.81,-1.53,0.78
0.74,-1.61,0.85
0.65,-1.57,0.94
0.5,-1.61,0.97
0.43,-1.62,1.01
0.41,-1.63,1.06
0.37,-1.65,1.11
0.3,-1.66,1.17
0.24,-1.64,1.22
0.23,-1.59,1.25
0.21,-1.56,1.27
0.16,-1.56,1.3
0.11,-1.57,1.32
0.05,-1.56,1.29
-0.01,-1.53,1.28
-0.06,-1.49,1.28
-0.09,-1.46,1.27
-0.12,-1.41,1.3
-0.16,-1.39,1.34
-0.19,-1.33,1.33
-0.24,-1.21,1.29
-0.32,-1.16,1.24
-0.37,-1.11,1.23
-0.41,-1.02,1.23
-0.45,-0.93,1.22
-0.49,-0.86,1.21
-0.51,-0.77,1.13
-0.51,-0.67,1.09
-0.5,-0.55,1.09
-0.43,-0.51,1.07
-0.4,-0.49,1.05
-0.36,-0.49,1.04
-0.33,-0.48,1.04
-0.3,-0.48,1.04
-0.29,-0.49,1.05
-0.26,-0.51,1.05
-0.24,-0.53,1.05
-0.21,-0.57,1.05
-0.19,-0.61,1.05
-0.16,-0.64,1.07
-0.13,-0.67,1.11
-0.1,-0.7,1.16
-0.07,-0.73,1.18
-0.03,-0.78,1.17
-0.02,-0.81,1.15
-0.02,-0.82,1.13
-0.03,-0.82,1.12
-0.1,-0.85,1.13
-0.19,-0.88,1.15
-0.25,-0.92,1.18
-0.24,-0.96,1.2
-0.16,-0.99,1.21
-0.09,-1.02,1.21
-0.05,-1.02,1.2
-0.01,-0.99,1.17
-0.02,-0.92,1.11
-0.09,-0.9,1.04
-0.1,-0.9,1.01
-0.11,-0.91,1.02
-0.12,-0.92,1.04
-0.11,-0.93,1.06
-0.09,-0.94,1.07
-0.06,-0.95,1.08
-0.03,-0.97,1.09
-0.02,-0.97,1.08
0.01,-0.99,1.05
0.04,-1.01,1.02
0.05,-1.02,1
0.05,-1.04,1
0.06,-1.07,1.02
0.09,-1.11,1.03
0.13,-1.14,1.04
0.17,-1.17,1.03
0.2,-1.19,1.01
0.24,-1.2,0.98
0.29,-1.22,0.93
0.33,-1.25,0.9
0.38,-1.26,0.87
0.44,-1.26,0.85
0.49,-1.26,0.85
0.54,-1.25,0.81
0.62,-1.22,0.79
0.63,-1.23,0.8
0.67,-1.24,0.82
0.73,-1.23,0.83
0.84,-1.16,0.82
0.95,-1.1,0.81
1.04,-1.02,0.79
1.2,-0.86,0.77
1.38,-0.67,0.76
1.45,-0.51,0.73
1.5,-0.41,0.7
1.64,-0.38,0.71
1.74,-0.42,0.79
1.71,-0.46,0.84
1.57,-0.46,0.84
1.45,-0.4,0.83
1.44,-0.32,0.83
1.48,-0.25,0.85
1.51,-0.19,0.86
1.54,-0.13,0.86
1.58,-0.09,0.87
1.57,-0.09,0.89
1.52,-0.11,0.89
1.46,-0.11,0.89
1.43,-0.1,0.9
1.43,-0.09,0.9
1.39,-0.07,0.9
1.39,-0.08,0.9
1.37,-0.09,0.89
1.33,-0.1,0.89
1.33,-0.12,0.89
1.35,-0.14,0.88
1.37,-0.15,0.88
1.39,-0.17,0.88
1.38,-0.21,0.87
1.35,-0.25,0.86
1.32,-0.27,0.84
1.3,-0.3,0.83
1.3,-0.33,0.84
1.34,-0.37,0.85
1.37,-0.42,0.86
1.38,-0.46,0.84
1.37,-0.51,0.81
1.36,-0.56,0.78
1.34,-0.62,0.76
1.33,-0.67,0.76
1.31,-0.73,0.76
1.29,-0.78,0.77
1.27,-0.84,0.77
1.25,-0.92,0.76
1.23,-0.99,0.75
1.22,-1.05,0.72
1.2,-1.16,0.71
1.17,-1.19,0.69
1.14,-1.2,0.65
1.15,-1.2,0.64
1.14,-1.22,0.67
1.09,-1.25,0.72
1.05,-1.26,0.74
1.02,-1.3,0.71
0.99,-1.34,0.68
1,-1.34,0.66
1.02,-1.32,0.66
1.01,-1.32,0.66
0.95,-1.34,0.66
0.89,-1.39,0.66
0.86,-1.41,0.67
0.82,-1.38,0.71
0.77,-1.38,0.73
0.73,-1.41,0.72
0.69,-1.42,0.73
0.78,-1.42,0.71
0.92,-1.46,0.65
0.88,-1.49,0.6
0.71,-1.47,0.64
0.61,-1.43,0.69
0.66,-1.38,0.73
0.71,-1.34,0.77
0.7,-1.36,0.87
0.64,-1.38,0.92
0.52,-1.4,0.96
0.41,-1.4,0.99
0.34,-1.35,1.02
0.27,-1.27,1.06
0.24,-1.22,1.11
0.25,-1.17,1.17
0.27,-1.13,1.21
0.27,-1.08,1.25
0.23,-1.01,1.3
0.16,-0.94,1.35
0.09,-0.87,1.37
0.03,-0.8,1.36
0.02,-0.75,1.37
0.01,-0.69,1.39
-0.02,-0.61,1.35
-0.02,-0.54,1.31
-0.03,-0.47,1.28
-0.04,-0.42,1.24
-0.04,-0.39,1.2
-0.05,-0.36,1.14
-0.07,-0.34,1.08
-0.09,-0.33,1.01
-0.06,-0.29,0.93
-0.05,-0.25,0.85
-0.04,-0.22,0.71
0,-0.23,0.66
0.09,-0.24,0.6
0.21,-0.26,0.54
0.28,-0.25,0.48
0.31,-0.23,0.43
0.34,-0.23,0.37
0.45,-0.25,0.3
0.6,-0.28,0.24
0.68,-0.32,0.21
0.68,-0.33,0.24
0.62,-0.33,0.25
0.57,-0.34,0.24
0.54,-0.37,0.2
0.53,-0.39,0.15
0.54,-0.42,0.11
0.55,-0.46,0.12
0.55,-0.53,0.16
0.51,-0.61,0.2
0.47,-0.67,0.23
0.46,-0.71,0.26
0.49,-0.74,0.27
0.54,-0.75,0.27
0.53,-0.79,0.27
0.54,-0.9,0.26
0.62,-1.01,0.26
0.73,-1.12,0.29
0.78,-1.17,0.29
0.77,-1.23,0.27
0.74,-1.26,0.25
0.69,-1.29,0.24
0.69,-1.33,0.22
0.7,-1.38,0.24
0.71,-1.43,0.25
0.71,-1.45,0.26
0.7,-1.47,0.26
0.71,-1.48,0.24
0.71,-1.48,0.21
0.7,-1.46,0.17
0.67,-1.46,0.14
0.62,-1.49,0.14
0.61,-1.5,0.11
0.61,-1.53,0.12
0.61,-1.56,0.15
0.62,-1.57,0.17
0.65,-1.57,0.19
0.69,-1.57,0.19
0.73,-1.56,0.19
0.75,-1.52,0.22
0.73,-1.5,0.22
0.72,-1.49,0.19
0.73,-1.46,0.18
0.73,-1.44,0.2
0.78,-1.41,0.22
0.77,-1.41,0.23
0.79,-1.37,0.25
0.81,-1.32,0.28
0.81,-1.3,0.31
0.82,-1.29,0.28
0.82,-1.29,0.24
0.81,-1.28,0.24
0.83,-1.24,0.25
0.85,-1.22,0.25
0.84,-1.2,0.24
0.82,-1.18,0.25
0.81,-1.15,0.26
0.79,-1.11,0.26
0.75,-1.06,0.26
0.72,-1,0.26
0.69,-0.93,0.26
0.67,-0.87,0.25
0.66,-0.82,0.25
0.65,-0.79,0.26
0.63,-0.77,0.27
0.61,-0.76,0.28
0.6,-0.75,0.29
0.59,-0.76,0.3
0.58,-0.8,0.3
0.57,-0.85,0.31
0.54,-0.95,0.3
0.53,-1.03,0.29
0.51,-1.11,0.3
0.44,-1.2,0.28
0.39,-1.27,0.28
0.33,-1.3,0.3
0.24,-1.31,0.29
0.15,-1.33,0.3
0.07,-1.35,0.29
0.01,-1.33,0.28
0,-1.3,0.26
-0.01,-1.27,0.24
-0.05,-1.24,0.21
-0.1,-1.2,0.2
-0.16,-1.14,0.17
-0.19,-1.08,0.15
-0.19,-1.04,0.12
-0.18,-0.98,0.08
-0.16,-0.93,0.09
-0.16,-0.92,0.09
-0.18,-0.93,0.08
-0.19,-0.96,0.06
-0.21,-0.99,0.03
-0.21,-0.98,0.01
-0.19,-0.98,-0.01
-0.17,-0.98,-0.06
-0.08,-1.04,-0.08
-0.03,-1.08,-0.1
0.02,-1.1,-0.09
0.05,-1.14,-0.1
0.07,-1.17,-0.13
0.07,-1.16,-0.12
0.07,-1.13,-0.11
0.09,-1.08,-0.1
0.13,-1.04,-0.11
0.16,-1.01,-0.1
0.19,-0.98,-0.1
0.21,-0.95,-0.09
0.23,-0.94,-0.08
0.26,-0.93,-0.08
0.29,-0.93,-0.07
0.3,-0.93,-0.06
0.31,-0.92,-0.04
0.31,-0.9,-0.04
0.31,-0.87,-0.03
0.3,-0.85,-0.02
0.29,-0.84,-0.02
0.28,-0.85,-0.02
0.29,-0.86,-0.02
0.31,-0.89,-0.04
0.34,-0.93,-0.05
0.37,-0.99,-0.04
0.38,-1.08,-0.04
0.38,-1.08,-0.04
0.38,-1.09,-0.04
0.39,-1.11,-0.03
0.39,-1.12,-0.03
0.39,-1.14,-0.03
0.4,-1.15,-0.04
0.39,-1.14,-0.05
0.37,-1.12,-0.06
0.36,-1.1,-0.07
0.36,-1.07,-0.07
0.34,-1.04,-0.07
0.3,-1.02,-0.05
0.26,-1.02,-0.04
0.26,-1.02,-0.04
0.28,-1.03,-0.06
0.26,-1.05,-0.09
0.2,-1.06,-0.11
0.19,-1.02,-0.1
0.24,-0.98,-0.04
0.3,-0.95,0.05
0.32,-0.92,0.13
0.26,-0.9,0.15
0.18,-0.91,0.09
0.19,-0.95,0.05
0.21,-0.98,0.08
0,-1,0.15
-0.1,-1.02,0.18
-0.08,-1.03,0.2
-0.04,-1.04,0.18
-0.02,-1.06,0.15
-0.04,-1.05,0.11
-0.09,-1.03,0.11
-0.16,-1,0.13
-0.2,-0.96,0.16
-0.17,-0.94,0.2
-0.13,-0.93,0.24
-0.18,-0.92,0.22
-0.23,-0.91,0.17
-0.25,-0.95,0.19
-0.27,-0.99,0.26
-0.25,-0.93,0.27
-0.24,-0.92,0.23
-0.24,-0.95,0.25
-0.2,-0.96,0.28
-0.13,-0.96,0.25
-0.06,-0.96,0.21
-0.15,-0.9,0.15
-0.14,-0.94,0.18
0.04,-1.02,0.35
0.06,-1.02,0.51
-0.04,-1.11,0.62
-0.07,-1.26,0.6
0.02,-1.26,0.54
0.11,-1.27,0.51
0.19,-1.26,0.48
0.28,-1.22,0.41
0.33,-1.12,0.33
0.36,-0.99,0.26
0.39,-0.95,0.22
0.41,-0.92,0.13
0.43,-0.89,0.04
0.4,-0.86,-0.03
0.34,-0.83,-0.08
0.35,-0.86,-0.13
0.4,-0.92,-0.16
0.41,-1.01,-0.17
0.42,-1.13,-0.18
0.53,-1.28,-0.13
0.68,-1.43,-0.02
0.6,-1.44,0.01
0.37,-1.3,-0.03
0.3,-1.12,-0.1
0.36,-0.99,-0.14
0.45,-0.89,-0.05
0.53,-0.85,0.12
0.6,-0.86,0.26
0.6,-0.86,0.34
0.58,-0.84,0.36
0.65,-0.84,0.26
0.69,-0.82,0.14
0.68,-0.86,0.03
0.63,-0.95,0.02
0.59,-0.97,0.08
0.56,-0.93,0.18
0.55,-0.87,0.27
0.57,-0.81,0.33
0.57,-0.78,0.31
0.56,-0.79,0.27
0.57,-0.78,0.23
0.59,-0.77,0.19
0.59,-0.78,0.19
0.56,-0.79,0.23
0.5,-0.8,0.26
0.45,-0.81,0.31
0.45,-0.81,0.36
0.49,-0.81,0.38
0.53,-0.79,0.37
0.55,-0.78,0.35
0.57,-0.76,0.33
0.61,-0.75,0.3
0.63,-0.74,0.32
0.63,-0.76,0.38
0.63,-0.78,0.42
0.63,-0.77,0.46
0.72,-0.66,0.5
0.75,-0.6,0.52
0.77,-0.57,0.52
0.74,-0.49,0.56
0.81,-0.47,0.63
0.89,-0.51,0.65
0.88,-0.47,0.65
0.9,-0.45,0.66
0.92,-0.46,0.67
0.96,-0.46,0.71
1.01,-0.45,0.75
1.06,-0.47,0.76
1.09,-0.49,0.75
1.08,-0.49,0.73
1.08,-0.46,0.71
1.07,-0.44,0.69
1.03,-0.44,0.69
0.99,-0.43,0.71
0.98,-0.42,0.73
0.96,-0.38,0.74
0.96,-0.36,0.76
0.97,-0.36,0.76
0.95,-0.35,0.76
0.93,-0.33,0.74
0.9,-0.32,0.72
0.87,-0.29,0.75
0.83,-0.26,0.78
0.79,-0.24,0.77
0.72,-0.23,0.75
0.66,-0.2,0.76
0.63,-0.18,0.78
0.62,-0.15,0.79
0.6,-0.12,0.77
0.55,-0.1,0.74
0.53,-0.06,0.74
0.53,-0.03,0.73
0.54,0.02,0.71
0.52,0.08,0.72
0.52,0.12,0.74
0.52,0.17,0.74
0.51,0.19,0.7
0.45,0.18,0.67
0.45,0.23,0.65
0.45,0.23,0.66
0.45,0.24,0.69
0.48,0.26,0.68
0.5,0.27,0.66
0.51,0.32,0.65
0.51,0.33,0.63
0.49,0.3,0.61
0.46,0.29,0.61
0.43,0.32,0.63
0.39,0.33,0.64
0.44,0.37,0.65
0.55,0.33,0.66
0.6,0.28,0.68
0.63,0.3,0.66
0.63,0.33,0.63
0.55,0.37,0.63
0.46,0.31,0.6
0.45,0.29,0.55
0.56,0.32,0.53
0.68,0.34,0.57
0.74,0.35,0.62
0.74,0.38,0.65
0.7,0.41,0.66
0.61,0.4,0.69
0.55,0.41,0.68
0.48,0.44,0.66
0.42,0.5,0.65
0.4,0.53,0.65
0.36,0.49,0.67
0.36,0.48,0.69
0.4,0.48,0.72
0.43,0.46,0.77
0.42,0.46,0.81
0.42,0.47,0.81
0.42,0.49,0.82
0.36,0.5,0.8
0.35,0.51,0.77
0.35,0.51,0.76
