Acc_x,Acc_y,Acc_z
0.11,-1.26,1.02
0.09,-1.2,1
0.06,-1.13,0.98
0.04,-0.98,0.94
-0.02,-0.91,1
-0.07,-0.81,1.05
-0.08,-0.74,1.05
-0.07,-0.69,1.05
-0.07,-0.65,1.04
-0.06,-0.6,1.04
-0.05,-0.54,1.04
-0.01,-0.49,1.04
0.04,-0.45,1.03
0.09,-0.42,1.02
0.15,-0.38,1
0.19,-0.35,0.98
0.22,-0.32,0.97
0.24,-0.31,0.95
0.27,-0.3,0.93
0.32,-0.31,0.94
0.36,-0.33,0.97
0.4,-0.35,0.99
0.43,-0.39,1.01
0.44,-0.42,1.02
0.45,-0.45,1.03
0.44,-0.47,1.04
0.42,-0.5,1.05
0.41,-0.53,1.07
0.39,-0.56,1.09
0.36,-0.61,1.07
0.29,-0.61,1.05
0.23,-0.62,1.04
0.18,-0.62,1.04
0.13,-0.62,1.05
0.09,-0.62,1.07
0.06,-0.63,1.11
0.07,-0.64,1.14
0.11,-0.65,1.14
0.11,-0.66,1.11
0.1,-0.67,1.08
0.08,-0.67,1.05
0.05,-0.67,1.04
0.01,-0.66,1.05
-0.05,-0.66,1.06
-0.09,-0.66,1.08
-0.11,-0.67,1.11
-0.13,-0.68,1.14
-0.12,-0.71,1.16
-0.09,-0.75,1.17
-0.04,-0.79,1.16
0.01,-0.82,1.07
0.02,-0.85,0.97
0.01,-0.88,0.95
0.01,-0.89,1.03
-0.03,-0.92,1.1
-0.03,-1.03,1.15
0.09,-1.07,1.15
0.13,-1.08,1.16
0.16,-1.09,1.15
0.17,-1.07,1.11
0.17,-1.05,1.05
0.18,-1.05,1.02
0.19,-1.04,1.04
0.19,-1.03,1.1
0.2,-1.04,1.14
0.22,-1.02,1.15
0.22,-1,1.13
0.2,-0.98,1.12
0.18,-0.99,1.11
0.2,-1,1.12
0.22,-1.01,1.16
0.16,-1,1.02
0.21,-1.01,1.03
0.3,-1.02,1.22
0.29,-1.04,1.21
0.26,-1.08,1.19
0.23,-1.11,1.18
0.21,-1.13,1.17
0.19,-1.17,1.17
0.23,-1.22,1.2
0.34,-1.26,1.23
0.43,-1.27,1.21
0.53,-1.29,1.17
0.58,-1.26,1.15
0.64,-1.23,1.12
0.68,-1.22,1.05
0.73,-1.2,1.02
0.8,-1.16,1.01
0.87,-1.12,0.97
0.93,-1.06,0.93
1,-1,0.88
1.09,-0.93,0.86
1.18,-0.86,0.87
1.25,-0.8,0.83
1.3,-0.75,0.78
1.34,-0.69,0.75
1.38,-0.64,0.73
1.42,-0.59,0.71
1.47,-0.52,0.68
1.54,-0.43,0.67
1.61,-0.34,0.67
1.7,-0.26,0.68
1.78,-0.2,0.68
1.82,-0.15,0.67
1.81,-0.1,0.65
1.75,-0.06,0.64
1.71,-0.01,0.66
1.72,0.03,0.72
1.72,0.03,0.75
1.69,0.04,0.78
1.65,0.05,0.8
1.62,0.05,0.82
1.59,0.04,0.84
1.56,0.03,0.87
1.52,0.02,0.89
1.49,0.01,0.91
1.46,0.01,0.92
1.44,0,0.93
1.41,-0.02,0.93
1.38,-0.04,0.92
1.34,-0.08,0.92
1.31,-0.1,0.92
1.3,-0.12,0.92
1.31,-0.15,0.92
1.31,-0.19,0.92
1.28,-0.23,0.9
1.26,-0.27,0.88
1.24,-0.31,0.87
1.21,-0.34,0.87
1.18,-0.37,0.88
1.17,-0.41,0.88
1.17,-0.44,0.88
1.17,-0.49,0.87
1.16,-0.52,0.85
1.1,-0.6,0.86
1.08,-0.65,0.88
1.08,-0.71,0.91
1.07,-0.75,0.93
1.07,-0.81,0.92
1.07,-0.86,0.89
1.07,-0.92,0.86
1.07,-0.95,0.85
1.07,-0.97,0.84
1.08,-1,0.83
1.1,-1.03,0.81
1.11,-1.06,0.81
1.11,-1.09,0.81
1.11,-1.12,0.81
1.09,-1.15,0.78
1.06,-1.18,0.76
1.02,-1.18,0.75
0.98,-1.18,0.76
0.96,-1.18,0.77
0.95,-1.2,0.8
0.93,-1.22,0.83
0.92,-1.24,0.85
0.91,-1.24,0.85
0.89,-1.24,0.83
0.91,-1.24,0.82
0.94,-1.28,0.81
0.92,-1.39,0.83
0.81,-1.4,0.87
0.73,-1.4,0.88
0.68,-1.41,0.88
0.65,-1.4,0.95
0.65,-1.39,0.98
0.63,-1.38,0.95
0.6,-1.37,0.95
0.62,-1.38,0.99
0.64,-1.39,1.02
0.63,-1.4,1.01
0.61,-1.42,1.01
0.6,-1.44,1.03
0.58,-1.45,1.04
0.56,-1.45,1.06
0.5,-1.43,1.09
0.47,-1.42,1.12
0.46,-1.42,1.12
0.45,-1.41,1.13
0.43,-1.37,1.16
0.39,-1.32,1.19
0.35,-1.27,1.22
0.32,-1.25,1.25
0.28,-1.23,1.26
0.22,-1.21,1.25
0.16,-1.16,1.26
0.08,-1.02,1.3
0.09,-0.96,1.34
0.05,-0.89,1.36
-0.05,-0.83,1.29
-0.08,-0.78,1.24
-0.09,-0.7,1.18
-0.12,-0.62,1.17
-0.08,-0.56,1.2
0,-0.51,1.19
0.07,-0.48,1.17
0.14,-0.44,1.12
0.21,-0.41,1.07
0.24,-0.36,1.03
0.25,-0.33,0.98
0.25,-0.31,0.93
0.24,-0.3,0.9
0.25,-0.29,0.9
0.26,-0.27,0.92
0.25,-0.27,0.93
0.25,-0.27,0.94
0.25,-0.28,0.93
0.27,-0.3,0.93
0.27,-0.32,0.93
0.27,-0.34,0.93
0.28,-0.38,0.96
0.29,-0.41,0.99
0.29,-0.48,1.06
0.27,-0.51,1.08
0.25,-0.54,1.09
0.22,-0.56,1.08
0.18,-0.58,1.09
0.17,-0.6,1.12
0.17,-0.63,1.14
0.18,-0.65,1.16
0.19,-0.66,1.18
0.21,-0.67,1.2
0.24,-0.67,1.22
0.26,-0.68,1.25
0.25,-0.68,1.26
0.23,-0.7,1.24
0.2,-0.7,1.21
0.18,-0.7,1.17
0.17,-0.7,1.15
0.17,-0.71,1.18
0.15,-0.72,1.23
0.11,-0.74,1.26
0.09,-0.77,1.27
0.08,-0.8,1.27
0.07,-0.84,1.27
0.03,-0.87,1.28
0.01,-0.9,1.29
-0.01,-0.93,1.25
-0.02,-1.03,1.13
0,-1.06,1.12
0.07,-1.09,1.17
0.16,-1.1,1.24
0.22,-1.12,1.29
0.24,-1.13,1.31
0.26,-1.15,1.29
0.26,-1.16,1.24
0.23,-1.13,1.21
0.21,-1.12,1.21
0.22,-1.14,1.24
0.28,-1.15,1.27
0.35,-1.16,1.29
0.38,-1.17,1.3
0.38,-1.15,1.32
0.4,-1.12,1.35
0.44,-1.1,1.37
0.45,-1.07,1.37
0.43,-1.07,1.36
0.39,-1.09,1.35
0.36,-1.1,1.34
0.32,-1.14,1.32
0.29,-1.18,1.29
0.29,-1.22,1.25
0.35,-1.25,1.19
0.47,-1.29,1.12
0.54,-1.34,1.07
0.77,-1.38,0.98
0.87,-1.37,0.88
0.97,-1.3,0.83
1.05,-1.21,0.82
1.12,-1.14,0.79
1.17,-1.06,0.72
1.17,-0.96,0.63
1.16,-0.88,0.58
1.2,-0.85,0.58
1.24,-0.83,0.55
1.26,-0.81,0.5
1.29,-0.74,0.45
1.33,-0.64,0.45
1.35,-0.56,0.48
1.36,-0.52,0.48
1.39,-0.5,0.5
1.47,-0.46,0.51
1.53,-0.4,0.51
1.53,-0.33,0.5
1.54,-0.27,0.47
1.6,-0.19,0.46
1.68,-0.15,0.47
1.75,-0.12,0.53
1.81,-0.07,0.57
1.87,-0.03,0.6
1.91,0,0.64
1.86,0.02,0.65
1.8,0.03,0.69
1.74,0.01,0.75
1.72,-0.01,0.81
1.69,-0.03,0.83
1.65,-0.05,0.84
1.63,-0.05,0.84
1.62,-0.05,0.84
1.6,-0.08,0.84
1.57,-0.11,0.86
1.55,-0.14,0.86
1.52,-0.17,0.83
1.51,-0.19,0.83
1.49,-0.21,0.85
1.48,-0.23,0.86
1.47,-0.27,0.86
1.46,-0.34,0.84
1.41,-0.39,0.81
1.34,-0.43,0.8
1.3,-0.45,0.78
1.3,-0.48,0.78
1.29,-0.53,0.81
1.27,-0.59,0.85
1.26,-0.65,0.84
1.24,-0.7,0.82
1.21,-0.74,0.78
1.16,-0.84,0.8
1.16,-0.9,0.81
1.18,-0.94,0.81
1.22,-0.98,0.82
1.25,-1.05,0.83
1.24,-1.12,0.84
1.2,-1.19,0.83
1.15,-1.25,0.81
1.11,-1.3,0.8
1.08,-1.33,0.8
1.05,-1.35,0.79
1.02,-1.35,0.77
0.99,-1.34,0.75
0.95,-1.33,0.75
0.91,-1.31,0.77
0.89,-1.28,0.8
0.9,-1.24,0.83
0.9,-1.23,0.84
0.87,-1.24,0.86
0.83,-1.25,0.87
0.83,-1.27,0.86
0.84,-1.3,0.86
0.82,-1.3,0.86
0.83,-1.29,0.85
0.82,-1.32,0.85
0.77,-1.36,0.92
0.62,-1.29,0.95
0.63,-1.28,0.97
0.62,-1.28,0.97
0.61,-1.29,0.98
0.61,-1.31,0.97
0.59,-1.29,0.97
0.58,-1.24,1.01
0.59,-1.21,1.03
0.58,-1.21,1.01
0.57,-1.23,0.95
0.56,-1.24,0.93
0.55,-1.25,0.97
0.56,-1.24,1
0.56,-1.23,1.02
0.53,-1.19,1.03
0.5,-1.16,1.02
0.48,-1.15,1.01
0.49,-1.14,1.02
0.49,-1.14,1.03
0.49,-1.13,1.05
0.45,-1.1,1.08
0.41,-1.08,1.09
0.36,-1.06,1.09
0.3,-1.04,1.11
0.27,-1,1.14
0.25,-0.96,1.2
0.2,-0.9,1.22
0.14,-0.84,1.23
0.08,-0.76,1.2
0.06,-0.74,1.21
0.01,-0.69,1.23
-0.03,-0.59,1.21
-0.02,-0.54,1.22
-0.03,-0.52,1.24
-0.03,-0.49,1.24
-0.03,-0.46,1.21
-0.01,-0.43,1.22
0.05,-0.39,1.21
0.11,-0.37,1.17
0.15,-0.36,1.12
0.19,-0.34,1.09
0.22,-0.33,1.07
0.24,-0.32,1.06
0.24,-0.31,1.05
0.23,-0.3,1.04
0.23,-0.31,1.03
0.24,-0.32,1.03
0.24,-0.34,1.02
0.23,-0.37,1
0.24,-0.39,1
0.24,-0.42,1
0.24,-0.45,1.01
0.23,-0.52,1.03
0.24,-0.55,1.04
0.24,-0.58,1.05
0.24,-0.61,1.06
0.22,-0.63,1.07
0.22,-0.64,1.08
0.23,-0.65,1.11
0.24,-0.64,1.14
0.26,-0.64,1.13
0.27,-0.64,1.12
0.27,-0.65,1.14
0.26,-0.66,1.16
0.25,-0.68,1.16
0.25,-0.69,1.15
0.25,-0.69,1.16
0.27,-0.7,1.18
0.28,-0.71,1.2
0.27,-0.72,1.22
0.25,-0.74,1.23
0.22,-0.76,1.22
0.21,-0.77,1.18
0.19,-0.78,1.15
0.16,-0.79,1.16
0.15,-0.81,1.16
0.16,-0.84,1.16
0.17,-0.86,1.16
0.2,-0.92,1.17
0.26,-0.96,1.17
0.31,-0.98,1.18
0.33,-1,1.18
0.31,-1.02,1.16
0.28,-1.04,1.16
0.26,-1.06,1.17
0.26,-1.08,1.18
0.29,-1.09,1.16
0.33,-1.11,1.13
0.36,-1.13,1.14
0.39,-1.14,1.15
0.44,-1.14,1.14
0.48,-1.12,1.14
0.5,-1.11,1.12
0.54,-1.09,1.11
0.57,-1.08,1.12
0.59,-1.07,1.1
0.58,-1.03,1.05
0.56,-1.02,1.02
0.54,-1.01,1.02
0.54,-1.03,1.06
0.56,-1.07,1.08
0.55,-1.11,1.08
0.54,-1.13,1.05
0.51,-1.13,1.01
0.51,-1.14,1.01
0.61,-1.18,1.03
0.65,-1.21,1.02
0.66,-1.2,0.99
0.69,-1.18,0.94
0.74,-1.13,0.88
0.82,-1.07,0.88
0.95,-1.07,0.9
1.04,-1.09,0.89
1.07,-1.05,0.83
1.1,-0.97,0.78
1.1,-0.9,0.74
1.08,-0.87,0.72
1.06,-0.85,0.72
1.07,-0.83,0.7
1.14,-0.79,0.68
1.25,-0.73,0.68
1.36,-0.67,0.67
1.45,-0.61,0.62
1.52,-0.54,0.59
1.57,-0.44,0.6
1.6,-0.39,0.61
1.64,-0.34,0.61
1.71,-0.29,0.6
1.77,-0.24,0.6
1.8,-0.19,0.58
1.8,-0.16,0.57
1.8,-0.08,0.61
1.78,-0.07,0.64
1.74,-0.06,0.68
1.71,-0.05,0.73
1.67,-0.05,0.78
1.64,-0.06,0.8
1.61,-0.07,0.83
1.6,-0.07,0.86
1.57,-0.08,0.89
1.52,-0.11,0.89
1.47,-0.13,0.88
1.45,-0.16,0.89
1.44,-0.18,0.9
1.4,-0.2,0.92
1.37,-0.22,0.92
1.33,-0.25,0.91
1.29,-0.29,0.9
1.26,-0.32,0.88
1.23,-0.36,0.86
1.22,-0.39,0.84
1.22,-0.42,0.83
1.22,-0.45,0.83
1.21,-0.49,0.8
1.19,-0.53,0.79
1.18,-0.58,0.79
1.16,-0.61,0.79
1.14,-0.66,0.8
1.14,-0.72,0.81
1.12,-0.77,0.78
1.11,-0.81,0.77
1.1,-0.83,0.78
1.08,-0.86,0.78
1.06,-0.9,0.78
1.06,-0.92,0.78
1.07,-0.96,0.8
1.09,-1,0.8
1.08,-1.03,0.79
1.06,-1.07,0.78
1.06,-1.11,0.76
1.07,-1.14,0.75
1.07,-1.17,0.75
1.05,-1.16,0.73
1.03,-1.15,0.72
1,-1.16,0.73
0.97,-1.15,0.74
0.94,-1.13,0.73
0.91,-1.12,0.72
0.87,-1.13,0.71
0.87,-1.13,0.72
0.9,-1.11,0.75
0.93,-1.09,0.78
0.95,-1.09,0.76
0.93,-1.11,0.75
0.88,-1.13,0.75
0.87,-1.14,0.74
0.87,-1.16,0.73
0.85,-1.21,0.72
0.82,-1.28,0.75
0.77,-1.31,0.8
0.74,-1.29,0.81
0.73,-1.26,0.83
0.76,-1.22,0.86
0.78,-1.21,0.89
0.76,-1.25,0.91
0.73,-1.3,0.92
0.68,-1.35,0.91
0.62,-1.36,0.92
0.6,-1.36,0.95
0.58,-1.37,0.97
0.56,-1.35,1
0.56,-1.35,1
0.57,-1.36,1.01
0.58,-1.37,1.04
0.54,-1.37,1.08
0.49,-1.36,1.11
0.46,-1.34,1.11
0.42,-1.31,1.09
0.39,-1.3,1.14
0.32,-1.27,1.16
0.28,-1.2,1.19
0.25,-1.15,1.22
0.24,-1.14,1.26
0.24,-1.11,1.27
0.2,-1.05,1.25
0.13,-0.99,1.24
0.09,-0.94,1.25
0.07,-0.89,1.27
0.05,-0.84,1.31
0,-0.76,1.34
-0.04,-0.66,1.32
-0.05,-0.6,1.28
-0.07,-0.56,1.26
-0.05,-0.52,1.25
-0.02,-0.48,1.25
0.01,-0.43,1.26
0.04,-0.4,1.25
0.06,-0.38,1.22
0.1,-0.36,1.21
0.12,-0.34,1.19
0.11,-0.33,1.14
0.1,-0.33,1.09
0.11,-0.32,1.05
0.14,-0.32,1.04
0.16,-0.32,1.05
0.19,-0.34,1.08
0.21,-0.36,1.1
0.24,-0.38,1.12
0.26,-0.41,1.12
0.27,-0.43,1.12
0.29,-0.45,1.11
0.32,-0.46,1.11
0.33,-0.47,1.12
0.32,-0.47,1.15
0.32,-0.47,1.18
0.3,-0.48,1.19
0.28,-0.48,1.21
0.26,-0.49,1.22
0.25,-0.49,1.21
0.22,-0.5,1.2
0.19,-0.51,1.15
0.17,-0.52,1.08
0.19,-0.53,1.07
0.2,-0.54,1.11
0.2,-0.55,1.15
0.21,-0.56,1.2
0.2,-0.58,1.22
0.2,-0.58,1.22
0.18,-0.59,1.21
0.13,-0.61,1.2
0.08,-0.62,1.15
0.03,-0.64,1.01
-0.02,-0.67,1.01
0.01,-0.7,1.07
0.04,-0.72,1.13
0.07,-0.76,1.16
0.11,-0.8,1.18
0.15,-0.83,1.18
0.19,-0.85,1.17
0.21,-0.85,1.12
0.19,-0.84,1.05
0.21,-0.85,1.02
0.21,-0.87,1.04
0.21,-0.89,1.07
0.23,-0.9,1.1
0.27,-0.91,1.11
0.34,-0.91,1.11
0.4,-0.91,1.1
0.42,-0.9,1.06
0.41,-0.89,1.02
0.42,-0.9,1.01
0.47,-0.89,1.01
0.51,-0.89,1.03
0.51,-0.92,1.04
0.49,-0.96,1.02
0.46,-0.98,0.99
0.45,-1,0.96
0.44,-1.06,0.95
0.55,-1.11,0.97
0.6,-1.14,0.99
0.66,-1.15,0.98
0.67,-1.15,0.91
0.68,-1.12,0.84
0.72,-1.08,0.79
0.76,-1.04,0.77
0.81,-1.01,0.78
0.85,-1,0.8
0.88,-0.98,0.8
0.92,-0.97,0.8
0.98,-0.94,0.76
1.07,-0.9,0.69
1.17,-0.86,0.66
1.25,-0.85,0.66
1.29,-0.85,0.68
1.31,-0.83,0.69
1.33,-0.77,0.68
1.33,-0.72,0.66
1.34,-0.66,0.65
1.37,-0.58,0.66
1.45,-0.52,0.69
1.54,-0.49,0.72
1.62,-0.44,0.74
1.7,-0.37,0.73
1.75,-0.3,0.67
1.79,-0.2,0.65
1.8,-0.16,0.67
1.78,-0.13,0.71
1.74,-0.1,0.75
1.73,-0.08,0.78
1.74,-0.08,0.82
1.77,-0.09,0.85
1.8,-0.09,0.86
1.79,-0.1,0.86
1.75,-0.12,0.87
1.71,-0.13,0.89
1.67,-0.14,0.9
1.62,-0.17,0.91
1.56,-0.21,0.92
1.48,-0.24,0.9
1.43,-0.27,0.89
1.39,-0.28,0.87
1.38,-0.3,0.85
1.38,-0.34,0.84
1.35,-0.37,0.82
1.33,-0.39,0.82
1.32,-0.43,0.82
1.29,-0.47,0.81
1.27,-0.51,0.8
1.25,-0.55,0.79
1.24,-0.61,0.76
1.2,-0.69,0.76
1.21,-0.73,0.78
1.2,-0.76,0.79
1.19,-0.8,0.8
1.17,-0.84,0.8
1.15,-0.89,0.81
1.11,-0.94,0.8
1.08,-0.99,0.79
1.03,-1.04,0.77
1,-1.07,0.77
1.02,-1.08,0.81
1.04,-1.08,0.83
1.04,-1.1,0.82
1.02,-1.13,0.8
1,-1.17,0.8
0.97,-1.21,0.8
0.95,-1.22,0.82
0.92,-1.23,0.85
0.89,-1.23,0.85
0.88,-1.21,0.82
0.86,-1.19,0.8
0.83,-1.18,0.8
0.83,-1.19,0.81
0.85,-1.21,0.83
0.86,-1.22,0.86
0.86,-1.22,0.89
0.85,-1.23,0.9
0.81,-1.21,0.88
0.77,-1.21,0.85
0.76,-1.24,0.81
0.75,-1.3,0.81
0.69,-1.35,0.84
0.65,-1.34,0.9
0.63,-1.26,0.93
0.58,-1.23,0.93
0.55,-1.26,0.93
0.55,-1.25,0.94
0.54,-1.23,0.94
0.52,-1.27,0.94
0.48,-1.29,0.97
0.45,-1.26,1
0.46,-1.24,1.02
0.43,-1.25,1.04
0.4,-1.25,1.04
0.41,-1.25,1.03
0.4,-1.25,1.01
0.35,-1.25,1.03
0.32,-1.24,1.07
0.33,-1.23,1.11
0.34,-1.2,1.15
0.35,-1.19,1.18
0.34,-1.19,1.18
0.24,-1.16,1.15
0.16,-1.1,1.13
0.09,-1.1,1.15
0.06,-1.09,1.19
0.06,-1.05,1.22
0.05,-1,1.23
0.03,-0.97,1.21
0,-0.93,1.2
0.01,-0.89,1.22
-0.04,-0.84,1.24
-0.09,-0.76,1.22
-0.08,-0.7,1.19
-0.08,-0.67,1.17
-0.1,-0.62,1.15
-0.1,-0.56,1.13
-0.1,-0.5,1.12
-0.12,-0.46,1.14
-0.14,-0.42,1.16
-0.12,-0.39,1.17
-0.08,-0.37,1.16
-0.04,-0.37,1.13
-0.01,-0.39,1.09
0.01,-0.41,1.06
0.03,-0.41,1.05
0.04,-0.43,1.06
0.05,-0.45,1.09
0.08,-0.48,1.14
0.08,-0.51,1.16
0.07,-0.53,1.16
0.06,-0.55,1.16
0.06,-0.58,1.16
0.04,-0.6,1.16
0.02,-0.62,1.16
0,-0.64,1.16
0,-0.65,1.17
0,-0.66,1.18
0.01,-0.68,1.2
0.02,-0.69,1.21
0.03,-0.71,1.22
0.03,-0.72,1.2
0.01,-0.73,1.14
0,-0.74,1.1
0.02,-0.75,1.11
0.02,-0.76,1.13
0.02,-0.77,1.15
0.04,-0.79,1.16
0.04,-0.8,1.17
0.04,-0.81,1.19
0.04,-0.82,1.18
0.04,-0.83,1.15
0.05,-0.84,1.1
0.03,-0.85,1.01
0.04,-0.92,0.97
0.18,-0.94,1.01
0.21,-0.95,1.03
0.24,-0.95,1.05
0.28,-0.95,1.04
0.31,-0.96,1.02
0.32,-0.98,0.98
0.33,-0.96,0.95
0.35,-0.96,0.94
0.37,-0.98,0.97
0.38,-1.02,1
0.41,-1.06,1.04
0.46,-1.09,1.07
0.51,-1.09,1.08
0.55,-1.06,1.11
0.57,-1.02,1.11
0.59,-1,1.09
0.59,-0.99,1.08
0.58,-1.01,1.1
0.55,-1.03,1.13
0.53,-1.06,1.15
0.52,-1.08,1.18
0.52,-1.1,0.92
0.55,-1.12,0.89
0.56,-1.15,1.14
0.53,-1.2,1.11
0.51,-1.26,1.01
0.56,-1.28,0.95
0.62,-1.28,0.93
0.69,-1.27,0.92
0.75,-1.28,0.88
0.79,-1.28,0.8
0.84,-1.26,0.71
0.91,-1.24,0.63
0.99,-1.24,0.55
1.03,-1.23,0.5
1.1,-1.16,0.48
1.14,-1.07,0.46
1.16,-1.01,0.47
1.16,-0.96,0.48
1.15,-0.92,0.47
1.16,-0.92,0.45
1.22,-0.91,0.4
1.26,-0.86,0.38
1.3,-0.81,0.38
1.35,-0.79,0.4
1.37,-0.75,0.43
1.37,-0.7,0.42
1.4,-0.65,0.41
1.42,-0.6,0.39
1.45,-0.53,0.4
1.51,-0.48,0.42
1.54,-0.41,0.41
1.57,-0.36,0.41
1.62,-0.33,0.43
1.67,-0.3,0.47
1.73,-0.26,0.51
1.76,-0.23,0.52
1.75,-0.2,0.5
1.72,-0.19,0.48
1.69,-0.18,0.47
1.68,-0.17,0.5
1.68,-0.16,0.57
1.68,-0.15,0.63
1.74,-0.19,0.62
1.82,-0.22,0.54
1.76,-0.32,0.43
1.76,-0.32,0.43
1.66,-0.35,0.42
1.58,-0.37,0.39
1.53,-0.38,0.38
1.5,-0.41,0.38
1.47,-0.46,0.38
1.45,-0.5,0.37
1.47,-0.52,0.35
1.5,-0.56,0.36
1.4,-0.7,0.38
1.32,-0.76,0.4
1.26,-0.81,0.4
1.23,-0.84,0.4
1.24,-0.87,0.41
1.23,-1.24,0.55
1.23,-1.24,0.55
1.2,-1.26,0.51
1.2,-1.29,0.49
1.2,-1.33,0.47
1.19,-1.39,0.45
1.19,-1.43,0.47
1.21,-1.45,0.49
1.22,-1.47,0.52
1.23,-1.46,0.53
1.23,-1.44,0.5
1.24,-1.44,0.48
1.21,-1.43,0.52
1.16,-1.41,0.55
1.13,-1.41,0.51
1.09,-1.41,0.48
1.11,-1.4,0.45
1.11,-1.46,0.45
1.12,-1.52,0.51
1.13,-1.56,0.58
1.11,-1.57,0.61
1.1,-1.58,0.55
1.12,-1.61,0.46
1.1,-1.7,0.4
1.06,-1.74,0.43
1.02,-1.72,0.49
0.97,-1.76,0.55
0.96,-1.75,0.61
1.01,-1.75,0.63
1.09,-1.78,0.63
1.13,-1.83,0.61
1.11,-1.91,0.6
1.03,-1.98,0.61
0.95,-2.01,0.67
0.91,-1.98,0.74
0.88,-1.93,0.82
0.91,-1.91,0.91
0.92,-1.87,0.98
0.84,-1.78,1.04
0.81,-1.74,1.08
0.75,-1.7,1.16
0.55,-1.59,1.17
0.49,-1.56,1.19
0.37,-1.53,1.26
0.19,-1.51,1.38
0.08,-1.43,1.5
0.09,-1.33,1.56
0.13,-1.21,1.54
0.15,-1.08,1.5
0.16,-0.97,1.45
0.15,-0.86,1.41
0.17,-0.76,1.38
0.17,-0.66,1.35
0.18,-0.58,1.29
0.22,-0.51,1.25
0.28,-0.45,1.23
0.34,-0.41,1.2
0.36,-0.37,1.15
0.38,-0.33,1.1
0.42,-0.3,1.05
0.47,-0.29,1.02
0.51,-0.28,0.98
0.52,-0.28,0.96
0.51,-0.28,0.95
0.5,-0.28,0.96
0.5,-0.3,0.96
0.5,-0.33,1
0.55,-0.45,1.04
0.56,-0.5,1.07
0.56,-0.54,1.08
0.55,-0.57,1.08
0.54,-0.59,1.07
0.51,-0.6,1.07
0.48,-0.62,1.08
0.46,-0.65,1.09
0.43,-0.69,1.1
0.4,-0.72,1.11
0.4,-0.74,1.12
0.4,-0.77,1.12
0.4,-0.79,1.11
0.41,-0.81,1.08
0.42,-0.82,1.06
0.43,-0.84,1.06
0.44,-0.86,1.07
0.43,-0.88,1.07
0.43,-0.9,1.08
0.42,-0.92,1.09
0.41,-0.93,1.1
0.4,-0.96,1.09
0.39,-0.98,1.07
0.38,-1.01,1.05
0.39,-1.04,1.03
0.4,-1.08,1.04
0.39,-1.17,1.1
0.39,-1.21,1.12
0.41,-1.25,1.13
0.44,-1.27,1.13
0.45,-1.3,1.1
0.46,-1.35,1.08
0.49,-1.41,1.08
0.51,-1.43,1.13
0.52,-1.47,1.2
0.56,-1.5,1.22
0.6,-1.53,1.2
0.61,-1.54,1.17
0.61,-1.55,1.16
0.63,-1.54,1.18
0.66,-1.5,1.19
0.67,-1.48,1.17
0.64,-1.5,1.16
0.61,-1.51,1.17
0.58,-1.49,1.17
0.56,-1.51,1.16
0.57,-1.56,1.14
0.57,-1.59,1.1
0.55,-1.62,1.04
0.56,-1.64,1
0.59,-1.66,1.03
0.64,-1.63,1.05
0.71,-1.65,0.96
0.77,-1.66,0.88
0.84,-1.64,0.79
0.9,-1.56,0.74
1.02,-1.55,0.67
1.09,-1.54,0.63
1.16,-1.44,0.6
1.26,-1.34,0.57
1.34,-1.27,0.57
1.43,-1.19,0.53
1.51,-1.11,0.49
1.59,-1.06,0.46
1.61,-1,0.43
1.57,-0.92,0.38
1.56,-0.83,0.34
1.6,-0.74,0.3
1.66,-0.66,0.25
1.75,-0.57,0.24
1.83,-0.47,0.29
1.88,-0.39,0.34
1.89,-0.33,0.37
1.86,-0.27,0.38
1.81,-0.21,0.39
1.78,-0.17,0.4
1.8,-0.13,0.42
1.83,-0.12,0.45
1.83,-0.09,0.49
1.77,-0.08,0.5
1.75,-0.07,0.53
1.74,-0.06,0.57
1.71,-0.06,0.59
1.67,-0.07,0.59
1.66,-0.09,0.59
1.63,-0.12,0.59
1.58,-0.15,0.58
1.57,-0.16,0.6
1.55,-0.17,0.61
1.53,-0.2,0.61
1.51,-0.23,0.61
1.49,-0.27,0.6
1.48,-0.3,0.59
1.48,-0.33,0.58
1.47,-0.37,0.58
1.45,-0.43,0.58
1.41,-0.47,0.58
1.36,-0.5,0.59
1.32,-0.52,0.59
1.3,-0.55,0.6
1.31,-0.6,0.61
1.32,-0.66,0.62
1.32,-0.72,0.61
1.31,-0.75,0.62
1.29,-0.8,0.68
1.28,-0.92,0.69
1.27,-0.97,0.69
1.25,-1.04,0.68
1.22,-1.1,0.67
1.2,-1.15,0.66
1.17,-1.19,0.69
1.14,-1.24,0.71
1.1,-1.29,0.72
1.09,-1.35,0.73
1.08,-1.39,0.73
1.05,-1.42,0.73
1.03,-1.44,0.73
1.02,-1.44,0.74
0.99,-1.43,0.76
0.96,-1.4,0.78
0.91,-1.37,0.79
0.88,-1.39,0.78
0.85,-1.39,0.76
0.85,-1.39,0.76
0.84,-1.38,0.75
0.82,-1.38,0.76
0.8,-1.38,0.75
0.8,-1.4,0.73
0.85,-1.46,0.71
0.9,-1.52,0.71
0.87,-1.6,0.81
0.8,-1.61,0.81
0.64,-1.59,0.74
0.7,-1.63,0.75
0.71,-1.67,0.82
0.64,-1.72,0.91
0.55,-1.75,0.94
0.51,-1.75,0.94
0.49,-1.74,0.94
0.48,-1.78,0.94
0.45,-1.83,0.98
0.38,-1.83,1.03
0.28,-1.82,1.06
0.21,-1.8,1.08
0.21,-1.78,1.1
0.21,-1.74,1.1
0.2,-1.64,1.12
0.17,-1.57,1.15
0.14,-1.53,1.17
0.14,-1.48,1.2
0.14,-1.42,1.21
0.1,-1.31,1.23
0.04,-1.18,1.24
-0.03,-1.07,1.23
-0.02,-1.01,1.31
-0.05,-0.83,1.3
-0.07,-0.74,1.31
-0.09,-0.67,1.31
-0.08,-0.63,1.31
-0.08,-0.58,1.29
-0.06,-0.55,1.28
-0.02,-0.53,1.26
0.03,-0.51,1.21
0.1,-0.5,1.15
0.19,-0.48,1.09
0.27,-0.47,1.05
0.34,-0.46,1.02
0.37,-0.47,1
0.38,-0.49,0.97
0.36,-0.51,0.96
0.34,-0.53,0.97
0.31,-0.56,0.98
0.29,-0.6,0.99
0.31,-0.65,1
0.31,-0.69,1.01
0.32,-0.73,1.01
0.31,-0.76,1.01
0.28,-0.77,1.02
0.26,-0.79,1.03
0.24,-0.81,1.04
0.21,-0.83,1.03
0.18,-0.87,1.03
0.21,-0.89,1.04
0.24,-0.91,1.05
0.27,-0.93,1.07
0.3,-0.95,1.07
0.31,-0.95,1.07
0.3,-0.96,1.05
0.27,-0.95,1.03
0.25,-0.96,0.99
0.25,-0.98,0.98
0.27,-1,0.96
0.27,-1.01,0.98
0.23,-1.04,1.02
0.19,-1.29,1.08
0.19,-1.29,1.08
0.22,-1.34,1.14
0.29,-1.39,1.19
0.33,-1.4,1.22
0.3,-1.43,1.22
0.31,-1.47,1.22
0.32,-1.47,1.2
0.34,-1.43,1.19
0.37,-1.39,1.1
0.39,-1.36,1.1
0.46,-1.36,1.12
0.56,-1.34,1.15
0.63,-1.32,1.14
0.67,-1.31,1.1
0.68,-1.29,1.06
0.67,-1.25,1.06
0.66,-1.23,1.1
0.66,-1.26,1.12
0.66,-1.31,1.13
0.67,-1.31,1.1
0.7,-1.31,1.05
0.73,-1.28,1.03
0.82,-1.24,1.03
0.92,-1.17,1.04
1.03,-1.09,1.04
1.15,-0.94,1
1.28,-0.77,0.95
1.37,-0.67,0.91
1.33,-0.59,0.9
1.27,-0.55,0.9
1.21,-0.54,0.89
1.19,-0.52,0.91
1.27,-0.48,0.95
1.42,-0.43,0.98
1.51,-0.27,0.92
1.51,-0.17,0.87
1.44,-0.08,0.84
1.39,-0.02,0.84
1.4,0,0.88
1.42,0.01,0.94
1.45,0.03,0.96
1.45,0.05,0.96
1.43,0.08,0.96
1.4,0.11,0.97
1.38,0.13,0.98
1.38,0.13,1
1.36,0.1,1
1.32,0.08,0.99
1.28,0.08,0.99
1.25,0.06,1
1.23,0.05,1.01
1.21,0.04,1.02
1.21,0.02,1.02
1.19,-0.01,1.01
1.17,-0.04,0.98
1.13,-0.08,0.96
1.11,-0.11,0.95
1.09,-0.13,0.95
1.08,-0.16,0.94
1.09,-0.18,0.93
1.11,-0.26,0.92
1.08,-0.29,0.9
1.04,-0.32,0.89
1,-0.35,0.88
0.98,-0.4,0.89
0.98,-0.44,0.89
0.98,-0.49,0.89
0.97,-0.53,0.88
0.96,-0.59,0.88
0.94,-0.64,0.88
0.92,-0.68,0.88
0.91,-0.72,0.88
0.9,-0.75,0.88
0.89,-0.79,0.89
0.88,-0.84,0.9
0.85,-0.9,0.91
0.82,-0.96,0.92
0.8,-1.01,0.92
0.8,-1.06,0.92
0.79,-1.11,0.92
0.77,-1.14,0.91
0.74,-1.17,0.9
0.71,-1.19,0.91
0.7,-1.2,0.93
0.69,-1.18,0.94
0.68,-1.16,0.92
0.68,-1.14,0.83
0.66,-1.16,0.82
0.67,-1.18,0.82
0.71,-1.21,0.84
0.7,-1.25,0.82
0.7,-1.29,0.79
0.75,-1.38,0.78
0.78,-1.47,0.76
0.74,-1.53,0.77
0.69,-1.57,0.76
0.66,-1.57,0.74
0.63,-1.53,0.72
0.55,-1.52,0.72
0.5,-1.56,0.74
0.54,-1.61,0.78
0.53,-1.63,0.85
0.51,-1.61,0.9
0.54,-1.59,0.9
0.56,-1.58,0.9
0.56,-1.56,0.88
0.57,-1.56,0.84
0.53,-1.58,0.82
0.46,-1.58,0.85
0.43,-1.56,0.9
0.41,-1.53,0.94
0.35,-1.51,0.97
0.3,-1.47,0.99
0.32,-1.35,0.97
0.34,-1.34,0.98
0.36,-1.33,0.98
0.38,-1.3,1
0.36,-1.28,1.03
0.3,-1.26,1.08
0.24,-1.22,1.12
0.18,-1.18,1.14
0.12,-1.12,1.13
0.11,-1.06,1.12
0.1,-1.02,1.12
0.09,-0.95,1.13
0.11,-0.88,1.15
0.1,-0.86,1.16
0.11,-0.81,1.14
0.1,-0.77,1.13
0.09,-0.75,1.12
0.1,-0.72,1.11
0.1,-0.71,1.07
0.11,-0.71,1.03
0.12,-0.7,1
0.14,-0.69,0.97
0.16,-0.69,0.95
0.17,-0.68,0.95
0.18,-0.68,0.95
0.19,-0.68,0.93
0.14,-0.71,0.9
0.16,-0.74,0.9
0.23,-0.78,0.94
0.29,-0.81,0.98
0.32,-0.85,1.01
0.34,-0.89,1.03
0.36,-0.93,1.04
0.36,-0.96,1.04
0.34,-0.99,1.03
0.31,-1.01,1
0.31,-1.03,0.99
0.34,-1.06,1
0.36,-1.08,1.01
0.36,-1.1,1.02
0.37,-1.11,1.04
0.36,-1.12,1.03
0.35,-1.12,1.02
0.34,-1.12,1.03
0.3,-1.12,1.03
0.24,-1.11,1.02
0.2,-1.12,1.01
0.2,-1.15,1
0.22,-1.18,1
0.26,-1.21,1.03
0.3,-1.22,1.05
0.32,-1.23,1.07
0.35,-1.18,1.07
0.31,-1.15,1.09
0.26,-1.13,1.11
0.22,-1.15,1.13
0.21,-1.18,1.12
0.28,-1.23,1.1
0.34,-1.24,1.08
0.38,-1.21,1.08
0.44,-1.17,1.11
0.53,-1.18,1.12
0.58,-1.17,1.14
0.57,-1.15,1.15
0.57,-1.15,1.12
0.53,-1.12,1.08
0.46,-1.08,1.04
0.4,-1.05,1.03
0.37,-1.05,1.02
0.35,-1.06,1.03
0.34,-1.07,1.05
0.35,-1.07,1.03
0.39,-1.07,0.99
0.46,-1.07,0.97
0.53,-1.06,0.95
0.61,-1.04,0.92
0.67,-1.03,0.87
0.69,-1.01,0.85
0.72,-0.94,0.86
0.8,-0.93,0.9
0.89,-0.94,0.9
0.93,-0.92,0.85
0.94,-0.87,0.77
0.96,-0.82,0.69
0.99,-0.75,0.64
1.12,-0.65,0.64
1.33,-0.54,0.69
1.49,-0.45,0.72
1.52,-0.38,0.72
1.46,-0.33,0.7
1.41,-0.29,0.72
1.4,-0.26,0.74
1.45,-0.22,0.76
1.51,-0.18,0.78
1.54,-0.13,0.78
1.52,-0.08,0.79
1.49,-0.02,0.8
1.49,0.03,0.82
1.51,0.07,0.87
1.54,0.08,0.92
1.56,0.08,0.96
1.56,0.07,0.99
1.52,0.07,1.01
1.47,0.07,1.02
1.43,0.06,1.06
1.38,0.04,1.06
1.35,0.02,1.05
1.34,0,1.04
1.32,-0.01,1.04
1.28,-0.02,1.04
1.25,-0.05,1.04
1.23,-0.09,1.04
1.21,-0.12,1.03
1.18,-0.16,1.01
1.14,-0.18,0.99
1.1,-0.2,0.97
1.07,-0.22,0.95
1.07,-0.25,0.94
1.07,-0.29,0.94
1.09,-0.3,0.93
1.13,-0.33,0.94
1.18,-0.39,0.93
1.23,-0.45,0.93
1.27,-0.5,0.92
1.29,-0.55,0.88
1.26,-0.61,0.84
1.22,-0.66,0.81
1.2,-0.7,0.82
1.15,-0.75,0.86
1.06,-0.79,0.88
0.9,-0.83,0.86
0.91,-0.86,0.84
0.92,-0.9,0.81
0.9,-0.92,0.78
0.88,-0.95,0.77
0.87,-0.97,0.77
0.84,-0.98,0.77
0.82,-0.97,0.77
0.8,-0.96,0.77
0.77,-0.96,0.75
0.74,-0.96,0.74
0.7,-0.96,0.71
0.69,-0.97,0.68
0.75,-0.99,0.67
0.81,-1.01,0.67
0.84,-1.04,0.68
0.81,-1.08,0.69
0.78,-1.12,0.69
0.77,-1.16,0.69
0.76,-1.21,0.69
0.72,-1.26,0.7
0.66,-1.27,0.74
0.59,-1.22,0.74
0.53,-1.17,0.74
0.46,-1.1,0.84
0.49,-1.12,0.85
0.55,-1.16,0.87
0.55,-1.17,0.85
0.59,-1.19,0.85
0.6,-1.2,0.87
0.56,-1.2,0.87
0.51,-1.21,0.88
0.48,-1.21,0.89
0.48,-1.21,0.91
0.52,-1.2,0.94
0.57,-1.2,0.97
0.61,-1.19,1.01
0.61,-1.15,1.05
0.63,-1.13,1.04
0.66,-1.13,1
0.65,-1.11,0.99
0.63,-1.07,1.03
0.6,-1.03,1.11
0.56,-1,1.18
0.54,-0.97,1.24
0.52,-0.94,1.28
0.5,-0.92,1.3
0.45,-0.88,1.29
0.42,-0.86,1.26
0.39,-0.83,1.26
0.35,-0.77,1.33
0.29,-0.64,1.34
0.27,-0.59,1.31
0.25,-0.56,1.24
0.23,-0.52,1.18
0.22,-0.49,1.15
0.23,-0.44,1.14
0.22,-0.41,1.14
0.22,-0.4,1.13
0.23,-0.39,1.1
0.22,-0.39,1.05
0.21,-0.39,1
0.22,-0.39,0.97
0.23,-0.4,0.96
0.25,-0.41,0.95
0.27,-0.43,0.95
0.3,-0.46,0.96
0.34,-0.5,0.94
0.35,-0.53,0.92
0.38,-0.56,0.9
0.42,-0.6,0.92
0.45,-0.63,0.96
0.46,-0.67,1
0.45,-0.7,1.03
0.43,-0.74,1.06
0.43,-0.77,1.06
0.43,-0.79,1.01
0.39,-0.82,0.98
0.39,-0.84,0.97
0.41,-0.86,1
0.43,-0.87,1.04
0.43,-0.87,1.08
0.41,-0.87,1.12
0.39,-0.88,1.18
0.38,-0.89,1.25
0.35,-0.92,1.3
0.31,-0.94,1.29
0.26,-0.96,1.23
0.2,-0.98,1.14
0.17,-0.98,1.06
0.14,-0.96,1.06
0.11,-0.94,1.12
0.1,-0.93,1.18
0.1,-0.91,1.21
0.14,-0.92,1.21
0.19,-0.92,1.17
0.23,-0.91,1.15
0.28,-0.9,1.13
0.32,-0.9,1.11
0.35,-0.9,1.08
0.38,-0.91,1.07
0.43,-0.92,1.09
0.47,-0.91,1.18
0.49,-0.94,1.19
0.49,-0.95,1.18
0.46,-0.97,1.18
0.4,-1.01,1.15
0.33,-1.04,1.09
0.27,-1.09,1
0.28,-1.12,0.95
0.33,-1.13,0.97
0.34,-1.14,1.01
0.34,-1.16,1.05
0.37,-1.19,1.07
0.43,-1.22,1.08
0.49,-1.26,1.1
0.57,-1.25,1.1
0.64,-1.21,1.08
0.66,-1.16,1.05
0.64,-1.06,1.01
0.62,-0.98,0.98
0.64,-0.91,0.97
0.69,-0.84,0.97
0.73,-0.79,0.99
0.78,-0.74,1.01
0.84,-0.68,1
0.9,-0.65,0.97
0.95,-0.61,0.96
0.99,-0.59,0.95
0.99,-0.52,0.92
0.98,-0.48,0.89
1,-0.44,0.87
1.04,-0.4,0.87
1.11,-0.37,0.89
1.2,-0.33,0.91
1.28,-0.28,0.92
1.35,-0.22,0.91
1.41,-0.15,0.88
1.47,-0.07,0.88
1.53,-0.01,0.89
1.57,0.02,0.91
1.61,0.04,0.92
1.64,0.04,0.94
1.62,0.04,0.97
1.56,0.06,1
1.51,0.07,0.99
1.52,0.09,0.96
1.55,0.08,0.92
1.56,0.05,0.9
1.54,0.03,0.91
1.51,0.02,0.91
1.45,0.01,0.91
1.39,0.01,0.91
1.34,0,0.92
1.3,-0.01,0.91
1.24,-0.03,0.86
1.2,-0.05,0.83
1.19,-0.06,0.8
1.19,-0.08,0.8
1.19,-0.11,0.81
1.19,-0.14,0.81
1.17,-0.17,0.82
1.14,-0.21,0.81
1.1,-0.24,0.8
1.07,-0.27,0.78
1.06,-0.32,0.77
1.05,-0.35,0.78
1.04,-0.38,0.79
1.04,-0.41,0.78
1.05,-0.46,0.77
1.05,-0.5,0.76
1.06,-0.54,0.76
1.05,-0.58,0.78
1.03,-0.62,0.79
1.01,-0.65,0.8
1,-0.68,0.79
1,-0.71,0.78
1.01,-0.74,0.77
1.01,-0.77,0.74
1.04,-0.81,0.71
1.13,-0.83,0.7
1.21,-0.83,0.72
1.25,-0.86,0.71
1.22,-0.92,0.71
1.18,-0.96,0.73
1.11,-0.97,0.75
1.05,-0.96,0.75
1.02,-0.94,0.74
0.99,-0.93,0.74
0.96,-0.95,0.75
0.94,-0.98,0.75
0.91,-1.02,0.76
0.89,-1.08,0.79
0.84,-1.13,0.82
0.78,-1.14,0.87
0.79,-1.16,0.91
0.79,-1.2,0.95
0.77,-1.23,0.98
0.74,-1.24,1
0.72,-1.23,0.98
0.72,-1.25,0.93
0.72,-1.3,0.9
0.69,-1.33,0.89
0.65,-1.34,0.91
0.64,-1.35,0.95
0.65,-1.37,1
0.65,-1.41,1.06
0.68,-1.49,1.06
0.74,-1.54,0.99
0.8,-1.58,0.96
0.85,-1.61,1.04
0.76,-1.6,1.22
0.59,-1.56,1.38
0.46,-1.52,1.44
0.37,-1.5,1.39
0.31,-1.49,1.31
0.26,-1.47,1.26
0.23,-1.43,1.26
0.19,-1.38,1.28
0.13,-1.3,1.31
0.06,-1.21,1.4
-0.05,-1.07,1.46
-0.18,-0.94,1.42
-0.24,-0.86,1.38
-0.26,-0.78,1.34
-0.23,-0.73,1.29
-0.19,-0.68,1.24
-0.16,-0.64,1.22
-0.1,-0.62,1.19
-0.02,-0.59,1.15
0.07,-0.55,1.13
0.15,-0.51,1.12
0.2,-0.48,1.09
0.25,-0.46,0.95
0.32,-0.45,0.88
0.34,-0.44,0.86
0.32,-0.43,0.88
0.27,-0.44,0.89
0.23,-0.45,0.92
0.21,-0.46,0.96
0.22,-0.5,0.99
0.24,-0.55,1.02
0.28,-0.6,1.03
0.31,-0.63,1.03
0.32,-0.65,1.02
0.32,-0.67,1.02
0.31,-0.68,1.02
0.28,-0.7,1.02
0.25,-0.72,1.02
0.24,-0.75,1.04
0.22,-0.77,1.06
0.2,-0.79,1.06
0.17,-0.81,1.04
0.17,-0.83,1.03
0.21,-0.86,1.05
0.22,-0.86,1.07
0.2,-0.85,1.09
0.16,-0.84,1.08
0.13,-0.84,1.06
0.09,-0.82,0.95
0.02,-0.84,0.99
0.01,-0.85,1.05
0.02,-0.89,1.09
0.04,-0.94,1.14
0.05,-0.96,1.03
0.1,-1,1.08
0.17,-1.03,1.28
0.22,-1.04,1.31
0.25,-1.01,1.32
0.25,-0.99,1.3
0.21,-0.98,1.26
0.13,-1.01,1.25
0.06,-1.03,1.28
0.05,-1.05,1.32
0.07,-1.08,1.35
0.09,-1.1,1.35
0.11,-1.13,1.34
0.14,-1.16,1.33
0.18,-1.17,1.31
0.23,-1.17,1.3
0.29,-1.16,1.27
0.32,-1.13,1.23
0.33,-1.1,1.18
0.33,-1.09,1.17
0.36,-1.09,1.16
0.42,-1.09,1.13
0.48,-1.06,1.1
0.5,-1.01,1.06
0.55,-0.97,1.04
0.62,-0.95,1.05
0.69,-0.9,1.04
0.79,-0.84,1.01
0.87,-0.78,0.94
0.93,-0.7,0.86
0.98,-0.61,0.8
1,-0.53,0.76
1.01,-0.49,0.74
0.99,-0.45,0.74
0.98,-0.42,0.76
0.96,-0.39,0.75
0.92,-0.35,0.73
0.91,-0.31,0.73
0.95,-0.28,0.75
1,-0.27,0.76
1.03,-0.24,0.72
1.03,-0.19,0.68
1.07,-0.12,0.66
1.15,-0.06,0.68
1.21,-0.02,0.7
1.26,0.01,0.74
1.3,0.02,0.77
1.34,0.01,0.76
1.38,0.05,0.74
1.42,0.08,0.72
1.54,0.13,0.73
1.65,0.17,0.75
1.66,0.19,0.78
1.62,0.17,0.79
1.58,0.17,0.8
1.58,0.14,0.82
1.56,0.09,0.83
1.52,0.07,0.83
1.48,0.05,0.83
1.43,0.03,0.85
1.4,0,0.85
1.38,-0.02,0.85
1.35,-0.06,0.84
1.3,-0.08,0.82
1.27,-0.1,0.81
1.28,-0.14,0.8
1.28,-0.19,0.79
1.27,-0.25,0.79
1.28,-0.3,0.8
1.26,-0.34,0.8
1.25,-0.37,0.77
1.22,-0.4,0.75
1.17,-0.45,0.74
1.15,-0.48,0.75
1.12,-0.57,0.78
1.13,-0.62,0.81
1.14,-0.67,0.83
1.14,-0.72,0.82
1.1,-0.77,0.8
1.04,-0.82,0.79
0.99,-0.87,0.81
0.97,-0.93,0.84
0.96,-0.98,0.89
0.95,-1.01,0.92
0.94,-1.05,0.91
0.9,-1.07,0.89
0.86,-1.11,0.88
0.82,-1.12,0.87
0.77,-1.12,0.88
0.73,-1.1,0.9
0.73,-1.07,0.91
0.72,-1.07,0.9
0.72,-1.09,0.89
0.71,-1.11,0.89
0.72,-1.14,0.87
0.73,-1.17,0.86
0.75,-1.2,0.88
0.77,-1.23,0.88
0.8,-1.27,0.85
0.8,-1.3,0.82
0.78,-1.36,0.8
0.8,-1.49,0.76
0.77,-1.65,0.78
0.75,-1.66,0.81
0.81,-1.56,0.81
0.89,-1.53,0.85
0.98,-1.52,0.89
1.06,-1.52,0.85
1,-1.53,0.81
0.83,-1.53,0.81
0.68,-1.55,0.85
0.56,-1.58,0.91
0.4,-1.6,1.01
0.27,-1.61,1.13
0.21,-1.62,1.22
0.21,-1.6,1.27
0.2,-1.56,1.3
0.19,-1.54,1.29
0.19,-1.51,1.26
0.2,-1.45,1.27
0.2,-1.37,1.28
0.18,-1.3,1.3
0.16,-1.23,1.33
0.13,-1.14,1.37
0.1,-1.04,1.39
0.1,-0.95,1.39
0.11,-0.81,1.34
0.02,-0.73,1.31
-0.12,-0.64,1.25
-0.16,-0.58,1.23
-0.15,-0.51,1.25
-0.16,-0.44,1.25
-0.17,-0.37,1.24
-0.15,-0.32,1.23
-0.1,-0.28,1.18
-0.02,-0.25,1.14
0.06,-0.23,1.1
0.08,-0.22,1.07
0.08,-0.22,1.04
0.1,-0.23,1.01
0.15,-0.25,0.99
0.21,-0.27,0.97
0.23,-0.29,0.97
0.23,-0.32,0.99
0.23,-0.35,1.02
0.24,-0.38,1.05
0.23,-0.42,1.07
0.22,-0.47,1.05
0.19,-0.52,1.01
0.2,-0.58,0.97
0.27,-0.63,0.96
0.35,-0.66,0.99
0.39,-0.68,1.12
0.42,-0.69,1.18
0.4,-0.69,1.21
0.38,-0.69,1.21
0.36,-0.69,1.2
0.32,-0.7,1.16
0.28,-0.72,1.13
0.27,-0.74,1.11
0.26,-0.74,1.1
0.25,-0.74,1.11
0.24,-0.73,1.12
0.24,-0.73,1.14
0.24,-0.73,1.14
0.22,-0.75,1.14
0.21,-0.75,1.14
0.21,-0.76,1.12
0.22,-0.78,1.09
0.21,-0.78,1.08
0.19,-0.77,1.07
0.19,-0.79,1.06
0.19,-0.82,1.07
0.18,-0.85,1.09
0.19,-0.89,1.12
0.19,-0.91,1.11
0.2,-0.91,1.09
0.22,-0.93,1.06
0.21,-0.95,1.04
0.24,-0.96,1.03
0.29,-0.97,1.01
0.34,-0.98,1
0.37,-1,0.99
0.4,-1.01,0.97
0.43,-1,0.94
0.47,-0.97,0.92
0.51,-0.95,0.91
0.53,-0.96,0.92
0.55,-0.95,0.94
0.55,-0.93,0.96
0.56,-0.93,0.97
0.54,-0.95,0.97
0.5,-0.98,0.99
0.49,-1.01,1
0.52,-1.05,1.02
0.58,-1.05,1.05
0.64,-1.04,1.07
0.72,-1.04,1.08
0.85,-0.99,1.06
1,-0.91,1.04
1.19,-0.84,1.02
1.4,-0.69,0.97
1.55,-0.5,0.95
1.57,-0.38,0.95
1.48,-0.37,0.92
1.21,-0.45,0.92
1.16,-0.47,0.9
1.18,-0.44,0.89
1.25,-0.38,0.87
1.32,-0.33,0.85
1.39,-0.27,0.84
1.45,-0.21,0.84
1.48,-0.14,0.82
1.44,-0.07,0.8
1.39,-0.01,0.78
1.35,0.03,0.77
1.35,0.05,0.78
1.38,0.04,0.79
1.38,0.04,0.78
1.35,0.06,0.76
1.34,0.08,0.76
1.33,0.1,0.75
1.32,0.1,0.75
1.31,0.08,0.76
1.29,0.07,0.76
1.26,0.06,0.75
1.24,0.06,0.75
1.25,0.05,0.77
1.24,0.03,0.79
1.22,0.01,0.81
1.19,-0.01,0.84
1.17,-0.06,0.84
1.17,-0.1,0.84
1.15,-0.13,0.84
1.14,-0.16,0.85
1.13,-0.2,0.87
1.12,-0.23,0.89
1.11,-0.25,0.89
1.09,-0.27,0.89
1.09,-0.29,0.9
1.1,-0.33,0.91
1.1,-0.37,0.92
1.09,-0.41,0.93
1.06,-0.45,0.94
1.01,-0.49,0.95
0.96,-0.52,0.95
0.92,-0.55,0.94
0.89,-0.58,0.94
0.87,-0.61,0.94
0.87,-0.65,0.95
0.87,-0.68,0.95
0.86,-0.72,0.95
0.85,-0.76,0.96
0.83,-0.8,0.95
0.81,-0.85,0.94
0.8,-0.91,0.94
0.81,-0.96,0.94
0.76,-1.07,0.94
0.74,-1.11,0.92
0.75,-1.12,0.92
0.78,-1.12,0.92
0.78,-1.14,0.92
0.72,-1.14,0.92
0.7,-1.17,0.92
0.72,-1.22,0.94
0.74,-1.25,0.94
0.76,-1.29,0.92
0.76,-1.31,0.89
0.75,-1.36,0.86
0.72,-1.48,0.84
0.67,-1.5,0.88
0.59,-1.41,0.93
0.49,-1.39,1
0.46,-1.43,1.04
0.43,-1.45,1.06
0.38,-1.48,1.05
0.36,-1.51,1.05
0.29,-1.55,1.04
0.22,-1.53,1.04
0.18,-1.49,1.07
0.13,-1.46,1.1
0.11,-1.43,1.12
0.12,-1.4,1.15
0.13,-1.4,1.18
0.11,-1.4,1.18
0.04,-1.39,1.17
-0.08,-1.35,1.18
-0.18,-1.31,1.21
-0.25,-1.25,1.22
-0.3,-1.17,1.21
-0.31,-1.1,1.21
-0.33,-1.03,1.31
-0.38,-0.95,1.37
-0.4,-0.86,1.34
-0.38,-0.81,1.35
-0.38,-0.77,1.35
-0.38,-0.71,1.33
-0.39,-0.66,1.32
-0.39,-0.62,1.33
-0.35,-0.57,1.33
-0.26,-0.54,1.3
-0.14,-0.53,1.26
-0.07,-0.53,1.23
-0.03,-0.53,1.19
0,-0.53,1.13
0.02,-0.55,1.08
0.03,-0.55,1.07
0.03,-0.56,1.09
0.03,-0.57,1.13
0.05,-0.64,1.19
0.13,-0.67,1.2
0.16,-0.71,1.21
0.17,-0.75,1.18
0.16,-0.77,1.15
0.18,-0.79,1.14
0.18,-0.8,1.15
0.18,-0.81,1.17
0.17,-0.81,1.22
0.16,-0.81,1.26
0.13,-0.81,1.27
0.09,-0.81,1.24
0.06,-0.81,1.2
0.01,-0.79,1.14
-0.01,-0.8,1.08
0.01,-0.82,1.1
-0.06,-0.79,0.88
-0.06,-0.77,0.89
0,-0.76,1.14
0.02,-0.74,1.13
0.04,-0.73,1.12
0.06,-0.7,1.09
0.06,-0.69,1.06
0.06,-0.67,1.04
0.08,-0.66,1.02
0.1,-0.65,1.04
0.14,-0.63,1.12
0.2,-0.64,1.14
0.22,-0.67,1.15
0.21,-0.71,1.15
0.18,-0.72,1.13
0.15,-0.73,1.11
0.12,-0.76,1.11
0.12,-0.78,1.12
0.15,-0.82,1.13
0.19,-0.86,1.14
0.2,-0.9,1.13
0.22,-0.93,1.08
0.27,-0.95,1.03
0.33,-0.98,0.98
0.38,-1.01,0.97
0.45,-1.04,0.96
0.55,-1.04,0.94
0.61,-1.01,0.92
0.64,-1.04,0.93
0.71,-1.02,0.93
0.82,-0.96,0.89
0.89,-0.92,0.87
0.9,-0.86,0.89
0.86,-0.8,0.88
0.82,-0.73,0.86
0.82,-0.65,0.84
0.84,-0.6,0.78
0.92,-0.56,0.78
0.98,-0.57,0.79
1.02,-0.58,0.79
1.03,-0.57,0.77
1.05,-0.54,0.77
1.09,-0.49,0.8
1.14,-0.44,0.83
1.22,-0.4,0.85
1.29,-0.35,0.85
1.35,-0.28,0.85
1.38,-0.21,0.87
1.39,-0.13,0.89
1.44,-0.07,0.94
1.5,-0.03,0.98
1.54,-0.03,0.98
1.54,-0.02,0.96
1.54,0,0.94
1.52,0.01,0.93
1.49,0.02,0.92
1.45,0.02,0.93
1.42,0.01,0.94
1.4,0.01,0.95
1.39,0,0.96
1.36,-0.01,0.95
1.34,-0.03,0.93
1.33,-0.04,0.91
1.27,-0.08,0.9
1.25,-0.1,0.89
1.23,-0.13,0.89
1.2,-0.17,0.88
1.19,-0.21,0.87
1.18,-0.24,0.88
1.17,-0.27,0.88
1.14,-0.3,0.87
1.13,-0.34,0.87
1.13,-0.38,0.86
1.11,-0.41,0.86
1.12,-0.43,0.87
1.14,-0.47,0.88
1.15,-0.52,0.9
1.17,-0.56,0.92
1.2,-0.63,0.92
1.21,-0.7,0.89
1.18,-0.75,0.86
1.12,-0.79,0.85
1.06,-0.86,0.86
1.02,-0.91,0.89
1.02,-0.95,0.92
1.01,-1,0.92
1.01,-1.07,0.91
1.01,-1.14,0.89
1.01,-1.2,0.87
1,-1.28,0.87
0.99,-1.3,0.86
0.95,-1.32,0.85
0.93,-1.29,0.85
0.92,-1.28,0.83
0.92,-1.32,0.81
0.92,-1.39,0.82
0.88,-1.43,0.85
0.84,-1.42,0.85
0.82,-1.42,0.84
0.81,-1.42,0.79
0.79,-1.47,0.76
0.75,-1.59,0.78
0.68,-1.62,0.84
0.6,-1.53,0.89
0.52,-1.49,0.9
0.47,-1.5,0.87
0.48,-1.49,0.84
0.47,-1.5,0.84
0.42,-1.49,0.87
0.39,-1.48,0.88
0.38,-1.46,0.89
0.39,-1.46,0.91
0.4,-1.47,0.95
0.41,-1.48,0.98
0.37,-1.49,1.03
0.23,-1.46,1.07
0.22,-1.42,1.09
0.22,-1.37,1.11
0.21,-1.33,1.15
0.17,-1.32,1.22
0.1,-1.33,1.27
0.03,-1.3,1.3
-0.05,-1.23,1.34
-0.13,-1.15,1.37
-0.18,-1.09,1.42
-0.24,-0.95,1.46
-0.32,-0.8,1.45
-0.36,-0.74,1.44
-0.37,-0.67,1.42
-0.35,-0.6,1.39
-0.29,-0.55,1.35
-0.22,-0.53,1.33
-0.16,-0.5,1.3
-0.09,-0.46,1.27
-0.03,-0.43,1.23
-0.01,-0.41,1.18
-0.01,-0.39,1.13
-0.01,-0.39,1.06
0.02,-0.39,1
0.06,-0.4,0.97
0.1,-0.4,0.98
0.17,-0.44,1.05
0.2,-0.47,1.07
0.23,-0.51,1.09
0.27,-0.54,1.1
0.28,-0.57,1.08
0.29,-0.59,1.06
0.31,-0.61,1.06
0.32,-0.62,1.08
0.32,-0.64,1.1
0.32,-0.67,1.13
0.33,-0.68,1.15
0.33,-0.69,1.17
0.34,-0.71,1.19
0.34,-0.71,1.19
0.32,-0.7,1.16
0.28,-0.69,1.13
0.25,-0.68,1.11
0.23,-0.67,1.12
0.2,-0.66,1.15
0.15,-0.65,1.18
0.12,-0.65,1.19
0.11,-0.64,1.2
0.12,-0.64,1.21
0.15,-0.63,1.22
0.16,-0.62,1.19
0.18,-0.62,1.15
0.2,-0.59,1.13
0.22,-0.58,1.15
0.19,-0.58,1.15
0.18,-0.58,1.17
0.2,-0.59,1.18
0.23,-0.6,1.19
0.25,-0.61,1.18
0.28,-0.62,1.15
0.31,-0.64,1.12
0.32,-0.64,1.1
0.32,-0.64,1.09
0.33,-0.66,1.1
0.36,-0.68,1.1
0.39,-0.72,1.09
0.41,-0.74,1.07
0.42,-0.77,1.05
0.43,-0.8,1.02
0.46,-0.82,0.97
0.5,-0.84,0.95
0.53,-0.87,0.95
0.55,-0.92,0.97
0.58,-0.98,0.97
0.64,-1.02,0.94
0.71,-1.05,0.91
0.76,-1.07,0.87
0.81,-1.05,0.85
0.88,-0.97,0.88
1,-0.93,0.86
1.1,-0.84,0.84
1.21,-0.69,0.8
1.33,-0.57,0.76
1.44,-0.45,0.73
1.43,-0.35,0.71
1.34,-0.32,0.7
1.24,-0.33,0.69
1.19,-0.37,0.68
1.22,-0.4,0.68
1.26,-0.38,0.66
1.26,-0.33,0.63
1.24,-0.27,0.6
1.22,-0.21,0.6
1.18,-0.16,0.61
1.15,-0.12,0.61
1.15,-0.07,0.6
1.2,-0.04,0.59
1.25,0,0.57
1.3,0.03,0.56
1.34,0.06,0.56
1.36,0.08,0.56
1.38,0.1,0.57
1.41,0.1,0.58
1.42,0.1,0.58
1.41,0.1,0.54
1.41,0.1,0.54
1.4,0.09,0.57
1.38,0.08,0.59
1.35,0.07,0.6
1.31,0.05,0.6
1.28,0.04,0.61
1.25,0.03,0.61
1.23,0.02,0.61
1.26,0.01,0.62
1.3,-0.02,0.62
1.31,-0.05,0.63
1.29,-0.07,0.63
1.27,-0.08,0.65
1.26,-0.11,0.66
1.26,-0.14,0.66
1.25,-0.17,0.67
1.24,-0.19,0.67
1.23,-0.22,0.67
1.24,-0.25,0.67
1.22,-0.29,0.67
1.2,-0.34,0.68
1.18,-0.38,0.69
1.2,-0.43,0.72
1.23,-0.47,0.76
1.24,-0.51,0.8
1.23,-0.55,0.83
1.17,-0.64,0.83
1.14,-0.69,0.83
1.12,-0.73,0.84
1.09,-0.76,0.85
1.06,-0.78,0.88
1.02,-0.81,0.89
0.98,-0.82,0.88
0.98,-0.82,0.89
0.98,-0.82,0.89
0.95,-0.85,0.89
0.93,-0.87,0.89
0.9,-0.88,0.91
0.89,-0.89,0.91
0.87,-0.91,0.9
0.86,-0.91,0.89
0.87,-0.93,0.9
0.84,-0.95,0.91
0.79,-0.95,0.92
0.74,-0.96,0.9
0.7,-0.99,0.88
0.67,-1.07,0.86
0.62,-1.11,0.85
0.58,-1.07,0.89
0.56,-1.02,0.94
0.55,-1.03,0.96
0.56,-1.03,0.92
0.57,-1.09,0.88
0.51,-1.12,0.89
0.48,-1.13,0.97
0.48,-1.13,1.01
0.47,-1.14,1.04
0.48,-1.15,1.05
0.47,-1.16,1.05
0.45,-1.16,1.06
0.43,-1.16,1.06
0.39,-1.17,1.06
0.36,-1.15,1.1
0.36,-1.12,1.15
0.33,-1.13,1.2
0.25,-1.13,1.25
0.15,-1.12,1.28
0.08,-1.1,1.3
0.01,-1.05,1.32
-0.1,-0.99,1.33
-0.2,-0.96,1.4
-0.27,-0.88,1.46
-0.28,-0.76,1.48
-0.27,-0.72,1.47
-0.26,-0.69,1.45
-0.22,-0.64,1.42
-0.18,-0.59,1.4
-0.15,-0.55,1.35
-0.06,-0.46,1.3
-0.01,-0.44,1.23
0.01,-0.43,1.18
0.02,-0.42,1.16
0.04,-0.4,1.14
0.07,-0.4,1.12
0.09,-0.39,1.09
0.11,-0.39,1.07
0.14,-0.4,1.06
0.16,-0.41,1.06
0.19,-0.41,1.07
0.19,-0.41,1.08
0.19,-0.42,1.09
0.19,-0.43,1.09
0.19,-0.46,1.08
0.2,-0.48,1.09
0.21,-0.49,1.09
0.23,-0.51,1.11
0.27,-0.52,1.14
0.31,-0.54,1.19
0.35,-0.55,1.24
0.4,-0.54,1.27
0.43,-0.53,1.28
0.42,-0.5,1.24
0.32,-0.47,1.12
0.15,-0.46,0.94
-0.13,-0.47,1.03
-0.31,-0.49,1.18
-0.44,-0.52,1.28
-0.44,-0.53,1.32
-0.38,-0.54,1.32
-0.32,-0.55,1.31
-0.26,-0.56,1.27
-0.19,-0.56,1.22
-0.13,-0.56,1.16
-0.09,-0.55,1.12
-0.06,-0.52,1.09
-0.06,-0.49,1.09
-0.07,-0.46,1.1
-0.08,-0.42,1.1
-0.08,-0.4,1.11
-0.07,-0.41,1.11
-0.03,-0.42,1.11
0,-0.44,1.1
0.03,-0.47,1.08
0.07,-0.49,1.05
0.09,-0.51,1.03
0.09,-0.53,1.02
0.12,-0.6,1.04
0.16,-0.66,1.06
0.19,-0.71,1.06
0.2,-0.76,1.05
0.2,-0.85,1.01
0.21,-0.87,0.99
0.23,-0.91,0.98
0.25,-0.97,0.98
0.25,-1,0.99
0.29,-1.05,0.97
0.33,-1.09,0.92
0.38,-1.1,0.89
0.49,-1.14,0.87
0.54,-1.15,0.87
0.59,-1.09,0.9
0.71,-1.01,0.85
0.75,-0.93,0.81
0.76,-0.86,0.82
0.8,-0.8,0.83
0.85,-0.74,0.81
0.86,-0.64,0.77
0.84,-0.6,0.77
0.87,-0.59,0.83
0.95,-0.59,0.9
1.03,-0.57,0.94
1.09,-0.51,0.97
1.14,-0.46,1.01
1.16,-0.44,1.06
1.15,-0.42,1.09
1.16,-0.38,1.11
1.21,-0.26,1.17
1.38,-0.2,1.19
1.44,-0.14,1.21
1.48,-0.09,1.24
1.48,-0.05,1.22
1.37,-0.01,1.17
1.35,0,1.17
1.36,-0.01,1.17
1.37,-0.02,1.16
1.37,-0.03,1.13
1.35,-0.03,1.1
1.33,-0.03,1.06
1.29,-0.04,1.01
1.25,-0.06,0.97
1.21,-0.09,0.95
1.19,-0.11,0.95
1.2,-0.14,0.95
1.2,-0.17,0.92
1.19,-0.2,0.89
1.19,-0.22,0.87
1.21,-0.24,0.86
1.24,-0.26,0.87
1.27,-0.3,0.88
1.26,-0.34,0.85
1.22,-0.38,0.81
1.19,-0.45,0.8
1.18,-0.5,0.81
1.19,-0.55,0.81
1.21,-0.59,0.81
1.22,-0.62,0.82
1.2,-0.65,0.82
1.16,-0.69,0.82
1.13,-0.73,0.8
1.13,-0.77,0.78
1.16,-0.81,0.75
1.19,-0.86,0.72
1.22,-0.92,0.68
1.26,-0.96,0.63
1.32,-1.01,0.61
1.33,-1.07,0.61
1.3,-1.12,0.62
1.28,-1.13,0.61
1.26,-1.14,0.6
1.21,-1.16,0.59
1.16,-1.14,0.6
1.14,-1.11,0.61
1.12,-1.11,0.62
1.12,-1.11,0.62
1.15,-1.11,0.62
1.2,-1.13,0.62
1.23,-1.17,0.65
1.21,-1.18,0.72
1.08,-1.15,0.73
1,-1.17,0.74
0.93,-1.22,0.77
0.86,-1.27,0.84
0.82,-1.32,0.94
0.82,-1.34,1.03
0.8,-1.38,1.1
0.75,-1.4,1.14
0.73,-1.38,1.18
0.8,-1.38,1.17
0.92,-1.44,1.16
0.98,-1.5,1.2
0.94,-1.55,1.25
0.82,-1.59,1.26
0.7,-1.59,1.29
0.68,-1.54,1.34
0.75,-1.44,1.34
0.82,-1.34,1.3
0.85,-1.27,1.25
0.82,-1.26,1.21
0.71,-1.25,1.19
0.52,-1.21,1.2
0.32,-1.12,1.21
0.17,-1.03,1.23
0.08,-0.94,1.21
0.02,-0.75,1.22
-0.13,-0.65,1.25
-0.2,-0.56,1.28
-0.2,-0.47,1.27
-0.16,-0.4,1.22
-0.12,-0.34,1.15
-0.14,-0.29,1.13
-0.17,-0.24,1.13
-0.15,-0.19,1.14
-0.05,-0.17,1.11
0.1,-0.17,1.09
0.25,-0.16,1.06
0.4,-0.13,1.06
0.54,-0.1,1.03
0.58,-0.09,0.95
0.55,-0.08,0.85
0.58,-0.08,0.78
0.68,-0.08,0.78
0.71,-0.08,0.86
0.65,-0.07,0.96
0.57,-0.1,1.02
0.51,-0.14,1.05
0.46,-0.16,1.06
0.4,-0.19,1.06
0.32,-0.23,1.04
0.25,-0.29,1.02
0.22,-0.35,1
0.29,-0.43,1.03
0.35,-0.46,1.04
0.41,-0.47,1.06
0.44,-0.48,1.07
0.43,-0.49,1.08
0.41,-0.49,1.08
0.36,-0.49,1.09
0.28,-0.5,1.08
0.2,-0.5,1.05
0.12,-0.53,1.03
0.1,-0.57,1.03
0.13,-0.6,1.06
0.15,-0.62,1.09
0.14,-0.62,1.12
0.12,-0.63,1.15
0.09,-0.65,1.18
0.1,-0.69,1.19
0.11,-0.73,1.19
0.12,-0.76,1.18
0.14,-0.79,1.18
0.18,-0.81,1.19
0.2,-0.83,1.2
0.22,-0.83,1.22
0.22,-0.83,1.23
0.21,-0.85,1.24
0.2,-0.86,1.2
0.15,-0.91,1.16
0.12,-0.92,1.13
0.15,-0.94,1.13
0.21,-0.96,1.14
0.25,-1,1.13
0.28,-1.02,1.11
0.3,-1.05,1.09
0.32,-1.08,1.05
0.36,-1.11,1.03
0.42,-1.13,1.04
0.49,-1.13,1.09
0.56,-1.15,1.12
0.6,-1.15,1.1
0.61,-1.13,1.03
0.6,-1.1,0.95
0.59,-1.09,0.89
0.6,-1.11,0.87
0.64,-1.12,0.88
0.66,-1.08,0.89
0.63,-1.01,0.89
0.66,-0.96,0.83
0.71,-0.94,0.78
0.77,-0.88,0.75
0.84,-0.8,0.75
0.95,-0.76,0.75
1.06,-0.71,0.71
1.25,-0.59,0.73
1.38,-0.5,0.77
1.49,-0.44,0.83
1.56,-0.39,0.86
1.57,-0.35,0.86
1.55,-0.31,0.85
1.5,-0.26,0.83
1.45,-0.2,0.83
1.44,-0.14,0.88
1.46,-0.12,0.94
1.47,-0.11,0.97
1.45,-0.11,0.96
1.43,-0.09,0.95
1.41,-0.06,0.94
1.38,-0.03,0.96
1.35,-0.02,0.99
1.35,-0.03,1.01
1.33,-0.04,1.02
1.29,-0.06,1.01
1.24,-0.05,0.99
1.22,-0.05,0.99
1.2,-0.09,1.02
1.2,-0.14,1.02
1.19,-0.17,0.98
1.19,-0.21,0.96
1.17,-0.24,0.94
1.1,-0.4,0.88
1.1,-0.4,0.88
1.06,-0.44,0.84
1.02,-0.47,0.81
1.02,-0.5,0.8
1.05,-0.63,0.78
1.05,-0.63,0.78
1.05,-0.67,0.76
1.02,-0.71,0.75
0.99,-0.75,0.76
0.98,-0.8,0.78
0.96,-0.84,0.77
0.97,-0.89,0.74
0.97,-0.93,0.71
0.96,-0.96,0.71
0.93,-1,0.73
0.91,-1.02,0.76
0.9,-1.02,0.78
0.9,-1.03,0.78
0.89,-1.03,0.79
0.87,-1.07,0.79
0.82,-1.1,0.79
0.78,-1.09,0.78
0.76,-1.06,0.78
0.77,-1.05,0.77
0.78,-1.07,0.76
0.79,-1.11,0.77
0.76,-1.2,0.78
0.71,-1.25,0.81
0.62,-1.22,0.86
0.53,-1.21,0.88
0.46,-1.22,0.88
0.43,-1.27,0.9
0.47,-1.34,0.94
0.5,-1.4,0.97
0.48,-1.45,0.94
0.42,-1.48,0.92
0.38,-1.49,0.94
0.36,-1.51,0.99
0.36,-1.53,1.05
0.34,-1.52,1.1
0.3,-1.47,1.14
0.29,-1.41,1.18
0.29,-1.36,1.2
0.27,-1.28,1.19
0.24,-1.21,1.16
0.2,-1.16,1.13
0.12,-1.05,1.16
0.09,-0.98,1.23
0.07,-0.92,1.3
0.04,-0.86,1.32
-0.02,-0.8,1.34
-0.12,-0.7,1.36
-0.23,-0.62,1.37
-0.32,-0.56,1.41
-0.39,-0.49,1.4
-0.37,-0.42,1.37
-0.31,-0.38,1.35
-0.26,-0.34,1.32
-0.19,-0.3,1.31
-0.1,-0.26,1.28
-0.01,-0.22,1.24
0.06,-0.17,1.21
0.1,-0.14,1.18
0.14,-0.11,1.14
0.18,-0.1,1.1
0.2,-0.08,1.06
0.2,-0.09,1.04
0.19,-0.12,1.03
0.19,-0.16,1.03
0.19,-0.22,1.03
0.22,-0.29,1.03
0.25,-0.41,1.01
0.29,-0.46,1.02
0.3,-0.52,1.03
0.32,-0.56,1.04
0.36,-0.61,1.06
0.39,-0.65,1.09
0.4,-0.68,1.1
0.4,-0.71,1.11
0.38,-0.73,1.11
0.35,-0.74,1.1
0.31,-0.75,1.1
0.26,-0.74,1.12
0.2,-0.73,1.12
0.18,-0.72,1.13
0.19,-0.71,1.14
0.2,-0.71,1.15
0.2,-0.69,1.15
0.19,-0.66,1.14
0.16,-0.64,1.12
0.13,-0.63,1.09
0.12,-0.62,1.09
0.1,-0.61,1.09
0.08,-0.61,1.08
0.08,-0.59,1.08
0.08,-0.57,1.08
0.09,-0.56,1.08
0.12,-0.54,1.06
0.17,-0.52,1.05
0.21,-0.53,1.03
0.23,-0.54,1.01
0.24,-0.53,1
0.24,-0.52,0.98
0.28,-0.51,0.96
0.32,-0.51,0.96
0.34,-0.52,0.96
0.36,-0.52,0.96
0.37,-0.53,0.97
0.37,-0.54,0.99
0.38,-0.57,0.98
0.37,-0.6,0.94
0.37,-0.62,0.91
0.39,-0.63,0.9
0.42,-0.66,0.91
0.45,-0.69,0.93
0.46,-0.71,0.94
0.47,-0.72,0.93
0.47,-0.73,0.9
0.47,-0.76,0.89
0.49,-0.78,0.89
0.51,-0.82,0.89
0.55,-0.88,0.89
0.61,-0.92,0.87
0.68,-0.94,0.84
0.77,-0.92,0.86
0.8,-0.86,0.88
0.87,-0.8,0.85
0.92,-0.76,0.82
0.92,-0.73,0.82
0.97,-0.68,0.83
1.11,-0.59,0.83
1.25,-0.48,0.82
1.33,-0.37,0.79
1.35,-0.32,0.78
1.32,-0.3,0.77
1.29,-0.29,0.78
1.3,-0.29,0.82
1.29,-0.3,0.83
1.26,-0.27,0.81
1.24,-0.23,0.78
1.23,-0.19,0.76
1.2,-0.16,0.76
1.16,-0.12,0.79
1.14,-0.09,0.82
1.15,-0.09,0.83
1.14,-0.08,0.82
1.15,-0.06,0.8
1.15,-0.04,0.78
1.15,-0.03,0.76
1.14,-0.03,0.75
1.1,-0.05,0.76
1.09,-0.05,0.77
1.07,-0.06,0.75
1.05,-0.07,0.73
1.04,-0.08,0.72
1.01,-0.1,0.71
0.99,-0.11,0.69
0.98,-0.13,0.69
0.96,-0.15,0.69
0.93,-0.17,0.68
0.92,-0.19,0.65
0.9,-0.22,0.61
0.87,-0.25,0.57
0.85,-0.29,0.53
0.83,-0.34,0.5
0.82,-0.38,0.49
0.82,-0.41,0.48
0.83,-0.45,0.47
0.83,-0.49,0.45
0.82,-0.54,0.44
0.81,-0.58,0.41
0.79,-0.61,0.39
0.78,-0.65,0.36
0.75,-0.7,0.31
0.72,-0.77,0.27
0.67,-0.84,0.26
0.64,-0.92,0.31
0.67,-0.94,0.32
0.66,-0.99,0.31
0.63,-1,0.26
0.63,-0.98,0.22
0.6,-1,0.26
0.6,-1,0.23
0.49,-1.13,0.43
0.45,-1.25,0.48
0.59,-1.22,0.33
0.63,-1.15,0.39
0.65,-1.16,0.39
0.65,-1.26,0.39
0.6,-1.28,0.38
0.58,-1.25,0.42
0.59,-1.25,0.42
0.62,-1.28,0.39
0.62,-1.32,0.41
0.59,-1.31,0.45
0.57,-1.33,0.49
0.59,-1.37,0.54
0.61,-1.4,0.61
0.64,-1.4,0.65
0.65,-1.41,0.65
0.64,-1.42,0.64
0.63,-1.43,0.65
0.63,-1.44,0.69
0.59,-1.46,0.74
0.58,-1.47,0.77
0.57,-1.45,0.78
0.59,-1.43,0.78
0.58,-1.4,0.78
0.57,-1.37,0.77
0.56,-1.34,0.76
0.56,-1.31,0.74
0.55,-1.29,0.72
0.54,-1.28,0.71
0.53,-1.27,0.72
0.54,-1.26,0.72
0.53,-1.25,0.71
0.52,-1.23,0.7
0.5,-1.21,0.68
0.48,-1.19,0.65
0.46,-1.16,0.64
0.45,-1.13,0.63
0.44,-1.1,0.62
0.44,-1.09,0.6
0.46,-1.07,0.6
0.47,-1.07,0.59
0.47,-1.07,0.58
0.47,-1.07,0.57
0.48,-1.05,0.56
0.49,-1.01,0.53
0.46,-0.98,0.52
0.46,-0.93,0.51
0.48,-0.9,0.5
0.48,-0.88,0.48
0.48,-0.86,0.47
0.47,-0.83,0.46
0.46,-0.8,0.45
0.47,-0.76,0.45
0.48,-0.72,0.45
0.48,-0.68,0.44
0.49,-0.65,0.45
0.52,-0.62,0.45
0.55,-0.61,0.45
0.55,-0.6,0.45
0.56,-0.57,0.46
0.56,-0.55,0.45
0.56,-0.53,0.43
0.59,-0.5,0.41
0.62,-0.48,0.4
0.65,-0.47,0.39
0.67,-0.47,0.39
0.7,-0.46,0.39
0.74,-0.46,0.39
0.79,-0.44,0.35
0.81,-0.43,0.26
0.82,-0.43,0.43
0.81,-0.39,0.42
0.85,-0.39,0.33
0.85,-0.37,0.33
0.85,-0.36,0.35
0.82,-0.4,0.29
0.91,-0.38,0.23
1.04,-0.28,0.23
1.01,-0.26,0.22
0.97,-0.29,0.19
1,-0.29,0.15
1.02,-0.29,0.13
1,-0.27,0.12
1.01,-0.24,0.11
1.02,-0.21,0.13
1.11,-0.19,0.09
1.14,-0.22,0.07
1.09,-0.3,0.08
1.15,-0.33,0.04
1.26,-0.32,-0.01
1.34,-0.34,-0.01
1.35,-0.38,0
1.38,-0.42,0.03
1.38,-0.46,0.02
1.41,-0.46,-0.07
1.37,-0.43,-0.1
1.18,-0.42,-0.12
0.95,-0.38,-0.13
0.82,-0.33,-0.12
0.71,-0.29,-0.08
0.64,-0.28,-0.07
0.64,-0.29,-0.08
0.68,-0.31,-0.08
0.71,-0.34,-0.07
0.74,-0.38,-0.06
0.78,-0.4,-0.07
0.83,-0.43,-0.08
0.89,-0.46,-0.1
0.96,-0.51,-0.14
1.02,-0.56,-0.17
1.03,-0.6,-0.17
1.01,-0.63,-0.16
0.95,-0.63,-0.16
0.87,-0.62,-0.16
0.8,-0.58,-0.15
0.76,-0.53,-0.14
0.73,-0.49,-0.13
0.72,-0.46,-0.13
0.72,-0.43,-0.13
0.74,-0.41,-0.12
0.76,-0.39,-0.12
0.78,-0.38,-0.14
0.81,-0.37,-0.18
0.84,-0.35,-0.19
0.86,-0.34,-0.19
0.87,-0.33,-0.19
0.89,-0.33,-0.19
0.92,-0.36,-0.18
0.91,-0.39,-0.17
0.94,-0.41,-0.2
1.04,-0.44,-0.24
1.11,-0.44,-0.26
1.09,-0.46,-0.27
1.04,-0.48,-0.27
1,-0.49,-0.26
0.95,-0.49,-0.25
0.92,-0.49,-0.23
0.88,-0.5,-0.21
0.84,-0.49,-0.19
0.81,-0.48,-0.19
0.78,-0.46,-0.2
0.76,-0.43,-0.22
0.74,-0.4,-0.24
0.73,-0.36,-0.26
0.73,-0.32,-0.28
0.75,-0.3,-0.32
0.77,-0.29,-0.34
0.77,-0.29,-0.38
0.78,-0.29,-0.41
0.83,-0.32,-0.42
0.83,-0.32,-0.44
0.83,-0.32,-0.45
0.83,-0.3,-0.46
0.87,-0.26,-0.46
0.89,-0.19,-0.44
0.86,-0.14,-0.44
0.84,-0.14,-0.44
0.83,-0.13,-0.44
0.83,-0.11,-0.46
0.82,-0.12,-0.48
0.81,-0.14,-0.49
0.79,-0.17,-0.46
0.76,-0.21,-0.43
0.74,-0.25,-0.38
0.72,-0.29,-0.35
0.68,-0.33,-0.33
0.64,-0.38,-0.31
0.61,-0.42,-0.27
0.61,-0.46,-0.24
0.62,-0.5,-0.19
0.63,-0.55,-0.16
0.66,-0.62,-0.19
0.7,-0.69,-0.24
0.76,-0.74,-0.23
0.84,-0.76,-0.2
0.94,-0.75,-0.03
1.02,-0.74,0.05
0.98,-0.71,0.09
0.93,-0.68,0.07
0.9,-0.63,0.02
0.9,-0.58,-0.05
0.88,-0.54,-0.11
0.87,-0.5,-0.16
0.88,-0.46,-0.2
0.88,-0.44,-0.23
0.91,-0.42,-0.26
0.92,-0.39,-0.27
0.87,-0.37,-0.28
0.79,-0.37,-0.29
0.72,-0.39,-0.31
0.68,-0.39,-0.32
0.67,-0.39,-0.34
0.67,-0.4,-0.35
0.66,-0.43,-0.36
0.65,-0.48,-0.36
0.65,-0.54,-0.36
0.66,-0.6,-0.38
0.66,-0.63,-0.39
0.69,-0.65,-0.41
0.73,-0.67,-0.44
0.77,-0.67,-0.45
0.79,-0.67,-0.46
0.89,-0.66,-0.46
0.96,-0.65,-0.47
1.04,-0.66,-0.47
1.09,-0.67,-0.46
1.13,-0.67,-0.46
1.16,-0.66,-0.43
1.18,-0.66,-0.4
1.17,-0.67,-0.36
1.16,-0.69,-0.32
1.19,-0.7,-0.28
1.25,-0.71,-0.26
1.33,-0.73,-0.26
1.42,-0.76,-0.28
1.47,-0.8,-0.3
1.48,-0.82,-0.32
1.46,-0.84,-0.31
1.41,-0.88,-0.26
1.34,-0.99,-0.33
1.17,-0.91,-0.27
1.06,-0.74,-0.13
1,-0.75,-0.11
0.87,-0.76,-0.07
0.79,-0.77,-0.02
0.73,-0.72,0.03
0.7,-0.65,0.07
0.68,-0.52,0.14
0.65,-0.45,0.18
0.66,-0.4,0.18
0.66,-0.37,0.18
0.67,-0.31,0.17
0.68,-0.28,0.16
0.71,-0.28,0.14
0.75,-0.29,0.13
0.81,-0.31,0.13
0.86,-0.34,0.16
0.89,-0.35,0.18
0.91,-0.37,0.21
0.93,-0.39,0.22
0.96,-0.41,0.22
0.96,-0.43,0.22
0.95,-0.44,0.21
0.93,-0.45,0.19
0.91,-0.44,0.18
0.89,-0.43,0.17
0.85,-0.42,0.17
0.83,-0.41,0.18
0.83,-0.42,0.21
0.85,-0.41,0.23
0.88,-0.39,0.23
0.9,-0.38,0.22
0.9,-0.38,0.2
0.92,-0.38,0.1
1.01,-0.4,0.06
1.03,-0.4,0.04
1.01,-0.38,0.04
0.95,-0.37,0.06
0.89,-0.38,0.08
0.84,-0.4,0.1
0.79,-0.42,0.11
0.75,-0.45,0.11
0.74,-0.47,0.09
0.77,-0.49,0.06
0.8,-0.53,0.03
0.83,-0.57,-0.02
0.86,-0.62,-0.06
0.88,-0.65,-0.1
0.9,-0.69,-0.13
0.92,-0.72,-0.14
0.91,-0.74,-0.15
0.89,-0.75,-0.14
0.86,-0.75,-0.13
0.8,-0.74,-0.12
0.76,-0.72,-0.1
0.72,-0.7,-0.08
0.7,-0.67,-0.06
0.68,-0.65,-0.04
0.66,-0.62,-0.01
0.66,-0.6,0.02
0.72,-0.53,0
0.76,-0.51,-0.02
0.8,-0.5,-0.03
0.84,-0.5,-0.03
0.88,-0.5,-0.03
0.93,-0.49,-0.05
0.96,-0.49,-0.06
1.02,-0.52,-0.06
1.08,-0.54,-0.06
1.11,-0.55,-0.06
1.05,-0.55,-0.06
0.97,-0.56,-0.06
0.94,-0.59,-0.08
0.95,-0.6,-0.12
0.94,-0.6,-0.14
