Acc_x,Acc_y,Acc_z
0.1,-1.21,1.04
0.13,-1.19,1.02
0.16,-1.18,1.03
0.2,-1.19,1.05
0.23,-1.19,1.08
0.25,-1.19,1.1
0.28,-1.19,1.1
0.28,-1.18,1.1
0.28,-1.19,1.1
0.29,-1.21,1.09
0.3,-1.24,1.08
0.3,-1.26,1.07
0.3,-1.29,1.06
0.31,-1.32,1.04
0.34,-1.34,1.02
0.37,-1.36,1.01
0.4,-1.38,1
0.45,-1.42,1
0.5,-1.46,0.99
0.6,-1.5,0.95
0.67,-1.47,0.94
0.72,-1.43,0.92
0.78,-1.4,0.93
0.86,-1.35,0.97
0.92,-1.3,0.95
0.99,-1.21,0.91
1.07,-1.1,0.91
1.16,-1,0.9
1.28,-0.9,0.88
1.34,-0.81,0.84
1.37,-0.74,0.82
1.37,-0.7,0.82
1.35,-0.67,0.82
1.33,-0.65,0.81
1.33,-0.61,0.82
1.34,-0.57,0.82
1.35,-0.52,0.81
1.36,-0.46,0.8
1.38,-0.4,0.8
1.42,-0.35,0.79
1.47,-0.29,0.78
1.52,-0.23,0.78
1.56,-0.19,0.79
1.58,-0.17,0.79
1.58,-0.14,0.8
1.55,-0.07,0.8
1.53,-0.06,0.8
1.51,-0.05,0.8
1.51,-0.05,0.8
1.5,-0.04,0.81
1.48,-0.03,0.81
1.47,-0.05,0.81
1.44,-0.06,0.8
1.42,-0.07,0.78
1.39,-0.08,0.78
1.38,-0.1,0.78
1.35,-0.12,0.77
1.33,-0.14,0.75
1.33,-0.15,0.75
1.31,-0.18,0.75
1.29,-0.21,0.76
1.27,-0.24,0.76
1.25,-0.27,0.74
1.26,-0.29,0.73
1.28,-0.32,0.73
1.27,-0.35,0.73
1.25,-0.39,0.74
1.26,-0.44,0.76
1.28,-0.51,0.78
1.31,-0.58,0.79
1.32,-0.64,0.77
1.26,-0.75,0.74
1.2,-0.81,0.74
1.14,-0.87,0.74
1.1,-0.91,0.75
1.09,-0.94,0.75
1.1,-0.97,0.75
1.08,-1,0.77
1.03,-1.02,0.83
0.95,-1.04,0.88
0.86,-1.06,0.87
0.79,-1.08,0.84
0.75,-1.08,0.83
0.74,-1.11,0.84
0.72,-1.15,0.87
0.68,-1.16,0.93
0.64,-1.17,1
0.62,-1.18,1.03
0.59,-1.18,1.03
0.54,-1.18,1.03
0.51,-1.19,1.02
0.49,-1.21,0.99
0.48,-1.23,0.98
0.49,-1.24,1
0.48,-1.27,1.02
0.45,-1.3,1.04
0.43,-1.29,1.05
0.37,-1.26,1
0.36,-1.26,0.98
0.37,-1.24,0.97
0.39,-1.25,0.96
0.4,-1.28,0.94
0.39,-1.29,0.92
0.37,-1.29,0.93
0.4,-1.28,0.95
0.45,-1.26,0.96
0.51,-1.24,0.96
0.57,-1.26,0.96
0.58,-1.29,0.95
0.55,-1.31,0.93
0.49,-1.32,0.89
0.44,-1.31,0.87
0.41,-1.29,0.88
0.39,-1.28,0.9
0.35,-1.3,0.94
0.31,-1.29,0.98
0.29,-1.28,1
0.27,-1.28,1.01
0.28,-1.25,1.01
0.28,-1.22,1.02
0.28,-1.21,1
0.27,-1.2,0.96
0.26,-1.19,0.94
0.25,-1.16,1
0.19,-1.14,1.05
0.13,-1.11,1.1
0.09,-1.08,1.12
0.03,-1.07,1.1
-0.03,-1.05,1.07
-0.07,-1.03,1.05
-0.11,-0.99,1.05
-0.15,-0.96,1.05
-0.19,-0.95,1.07
-0.21,-0.92,1.09
-0.22,-0.87,1.09
-0.23,-0.83,1.09
-0.22,-0.79,1.09
-0.21,-0.76,1.08
-0.2,-0.73,1.08
-0.2,-0.7,1.07
-0.2,-0.68,1.04
-0.2,-0.66,1
-0.19,-0.65,0.99
-0.17,-0.63,1.01
-0.15,-0.63,1.04
-0.15,-0.63,1.05
-0.14,-0.64,1.06
-0.13,-0.66,1.05
-0.13,-0.69,1.04
-0.12,-0.74,1.04
-0.11,-0.77,1.04
-0.1,-0.8,1.03
-0.11,-0.82,1.02
-0.13,-0.84,1.03
-0.13,-0.86,1.06
-0.12,-0.89,1.09
-0.1,-0.93,1.09
-0.11,-0.95,1.06
-0.1,-0.97,1.02
-0.09,-0.99,1.01
-0.09,-1.01,1.01
-0.11,-1.03,1.03
-0.11,-1.06,1.09
-0.09,-1.08,1.11
-0.07,-1.1,1.1
-0.07,-1.11,1.07
-0.07,-1.11,1.03
-0.07,-1.13,0.99
-0.06,-1.13,0.97
-0.04,-1.14,0.96
-0.01,-1.15,0.97
0.04,-1.15,1
0.08,-1.16,1.01
0.1,-1.14,0.99
0.11,-1.12,0.94
0.12,-1.09,0.9
0.16,-1.08,0.9
0.19,-1.08,0.9
0.2,-1.1,0.9
0.22,-1.13,0.91
0.25,-1.15,0.94
0.27,-1.17,0.99
0.27,-1.2,1.04
0.25,-1.22,1.07
0.24,-1.23,1.07
0.22,-1.23,1.06
0.2,-1.22,1.05
0.19,-1.23,1.05
0.2,-1.23,1.06
0.19,-1.24,1.1
0.19,-1.23,1.14
0.23,-1.2,1.16
0.25,-1.17,1.18
0.27,-1.13,1.17
0.27,-1.12,1.16
0.26,-1.11,1.16
0.25,-1.13,1.15
0.24,-1.13,1.12
0.24,-1.13,1.11
0.27,-1.14,1.12
0.31,-1.15,1.12
0.33,-1.16,1.05
0.35,-1.17,0.99
0.36,-1.15,0.91
0.4,-1.11,0.87
0.5,-1.09,0.86
0.64,-1.12,0.85
0.77,-1.17,0.83
0.85,-1.19,0.77
0.96,-1.17,0.72
1.11,-1.09,0.67
1.26,-0.97,0.63
1.36,-0.86,0.63
1.44,-0.76,0.64
1.48,-0.65,0.67
1.5,-0.54,0.68
1.53,-0.45,0.67
1.55,-0.38,0.68
1.55,-0.34,0.71
1.53,-0.33,0.73
1.51,-0.3,0.75
1.49,-0.26,0.77
1.49,-0.22,0.8
1.5,-0.18,0.84
1.52,-0.15,0.85
1.53,-0.12,0.84
1.54,-0.08,0.84
1.53,-0.05,0.88
1.5,-0.03,0.89
1.48,-0.02,0.89
1.45,-0.02,0.89
1.42,-0.04,0.9
1.4,-0.05,0.9
1.38,-0.06,0.89
1.37,-0.07,0.89
1.36,-0.08,0.88
1.35,-0.07,0.85
1.31,-0.06,0.82
1.3,-0.08,0.79
1.36,-0.13,0.77
1.48,-0.18,0.76
1.57,-0.23,0.72
1.64,-0.29,0.66
1.67,-0.35,0.62
1.64,-0.4,0.61
1.55,-0.47,0.63
1.45,-0.54,0.65
1.39,-0.6,0.66
1.37,-0.65,0.66
1.35,-0.68,0.65
1.33,-0.72,0.66
1.31,-0.75,0.67
1.27,-0.81,0.68
1.19,-0.86,0.68
1.09,-0.88,0.66
1.04,-0.89,0.69
1.03,-0.93,0.72
1,-0.95,0.73
0.98,-0.98,0.75
0.97,-1.01,0.76
0.96,-1.04,0.76
0.95,-1.05,0.74
0.93,-1.06,0.73
0.91,-1.08,0.74
0.93,-1.1,0.75
0.95,-1.13,0.75
0.93,-1.15,0.74
0.93,-1.17,0.73
0.94,-1.19,0.73
0.94,-1.21,0.74
0.93,-1.27,0.75
0.92,-1.33,0.74
0.94,-1.39,0.72
0.89,-1.43,0.73
0.79,-1.44,0.77
0.73,-1.42,0.81
0.72,-1.37,0.8
0.77,-1.37,0.78
0.81,-1.38,0.77
0.81,-1.39,0.8
0.8,-1.41,0.85
0.71,-1.41,0.83
0.63,-1.41,0.81
0.65,-1.4,0.82
0.67,-1.37,0.87
0.65,-1.32,0.96
0.62,-1.26,1.03
0.61,-1.24,1.06
0.62,-1.24,1.05
0.62,-1.26,1.06
0.57,-1.28,1.07
0.5,-1.29,1.09
0.47,-1.28,1.09
0.47,-1.25,1.1
0.46,-1.23,1.15
0.42,-1.24,1.2
0.38,-1.27,1.2
0.35,-1.25,1.18
0.34,-1.19,1.12
0.37,-1.14,1.08
0.39,-1.09,1.13
0.39,-1,1.18
0.38,-0.94,1.19
0.36,-0.88,1.18
0.31,-0.83,1.15
0.26,-0.82,1.12
0.19,-0.7,1.11
0.05,-0.59,1.09
0.05,-0.51,1.09
0.07,-0.46,1.1
0.06,-0.41,1.09
0.05,-0.35,1.05
0.07,-0.3,1.02
0.11,-0.28,0.99
0.14,-0.27,0.96
0.14,-0.25,0.95
0.12,-0.25,0.92
0.13,-0.27,0.9
0.14,-0.3,0.89
0.14,-0.33,0.91
0.12,-0.37,0.94
0.11,-0.41,0.95
0.1,-0.45,0.96
0.09,-0.49,0.97
0.09,-0.53,0.98
0.09,-0.57,1
0.07,-0.61,1.01
0.07,-0.65,1.02
0.07,-0.69,1.02
0.06,-0.72,1
0.04,-0.74,0.98
0.03,-0.76,0.97
0.03,-0.82,1.06
0.04,-0.84,1.1
0.05,-0.86,1.13
0.06,-0.87,1.15
0.07,-0.89,1.16
0.06,-0.91,1.16
0.05,-0.93,1.15
0.04,-0.96,1.15
0.03,-0.99,1.17
0.02,-1.01,1.18
0.02,-1.03,1.2
0.01,-1.05,1.22
0.01,-1.07,1.22
0.01,-1.1,1.22
0.02,-1.14,1.22
0.04,-1.17,1.24
0.07,-1.2,1.24
0.08,-1.22,1.19
0.08,-1.25,1.12
0.08,-1.29,1.07
0.1,-1.32,1.07
0.14,-1.37,1.12
0.2,-1.42,1.18
0.23,-1.46,1.25
0.24,-1.47,1.29
0.24,-1.5,1.29
0.25,-1.53,1.21
0.27,-1.51,1.16
0.24,-1.51,1.11
0.24,-1.54,1.1
0.29,-1.56,1.15
0.36,-1.54,1.2
0.42,-1.49,1.2
0.45,-1.44,1.18
0.45,-1.4,1.15
0.45,-1.36,1.13
0.44,-1.33,1.12
0.43,-1.31,1.13
0.43,-1.29,1.14
0.4,-1.27,1.16
0.36,-1.25,1.17
0.34,-1.24,1.17
0.31,-1.24,1.18
0.27,-1.22,1.19
0.25,-1.23,1.21
0.24,-1.26,1.24
0.24,-1.28,1.23
0.31,-1.27,1.21
0.42,-1.25,1.21
0.53,-1.27,1.23
0.62,-1.29,1.23
0.7,-1.27,1.21
0.76,-1.23,1.09
0.86,-1.19,1.04
0.97,-1.17,1
1.12,-1.13,0.92
1.24,-1.06,0.85
1.36,-0.95,0.79
1.48,-0.8,0.76
1.54,-0.67,0.76
1.51,-0.6,0.73
1.45,-0.56,0.69
1.48,-0.52,0.63
1.55,-0.49,0.56
1.56,-0.42,0.52
1.56,-0.33,0.54
1.59,-0.25,0.57
1.6,-0.2,0.58
1.54,-0.14,0.56
1.51,-0.08,0.56
1.52,-0.04,0.58
1.54,0,0.61
1.55,0.02,0.63
1.55,0.02,0.64
1.44,-0.01,0.82
1.44,-0.01,0.81
1.39,-0.04,0.81
1.36,-0.07,0.83
1.34,-0.08,0.85
1.36,-0.1,0.89
1.4,-0.13,0.92
1.42,-0.17,0.93
1.4,-0.2,0.92
1.35,-0.24,0.89
1.31,-0.29,0.89
1.28,-0.33,0.91
1.28,-0.38,0.95
1.28,-0.42,0.98
1.29,-0.46,1
1.27,-0.51,1.01
1.24,-0.57,1.02
1.2,-0.63,1.03
1.15,-0.69,1.05
1.11,-0.74,1.08
1.07,-0.79,1.1
1.01,-0.82,1.09
0.95,-0.86,1.06
0.89,-0.89,1.03
0.81,-0.93,1
0.75,-0.98,0.97
0.71,-0.99,0.95
0.68,-0.98,0.96
0.65,-0.99,0.98
0.65,-1,0.97
0.65,-1.02,0.97
0.65,-1.04,0.97
0.65,-1.06,0.98
0.64,-1.08,0.99
0.65,-1.1,1.01
0.66,-1.11,1.03
0.62,-1.14,1.04
0.57,-1.17,1.03
0.51,-1.18,1.01
0.47,-1.2,1.01
0.46,-1.23,1
0.42,-1.24,1
0.36,-1.2,1.04
0.34,-1.15,1.06
0.34,-1.14,1.05
0.35,-1.15,1.02
0.31,-1.18,0.97
0.25,-1.18,0.94
0.24,-1.15,0.92
0.26,-1.12,0.93
0.27,-1.1,0.96
0.28,-1.11,0.98
0.29,-1.12,1.01
0.3,-1.15,1.03
0.31,-1.2,1.06
0.26,-1.21,1.04
0.23,-1.19,1.03
0.23,-1.15,1.02
0.24,-1.13,1.04
0.25,-1.12,1.1
0.28,-1.09,1.18
0.29,-1.08,1.24
0.29,-1.11,1.27
0.27,-1.13,1.27
0.2,-1.12,1.24
0.12,-1.09,1.19
0.07,-1.03,1.15
0.04,-0.97,1.15
0,-0.9,1.18
-0.02,-0.85,1.2
-0.05,-0.83,1.21
-0.08,-0.8,1.24
-0.13,-0.72,1.24
-0.17,-0.63,1.18
-0.19,-0.56,1.13
-0.21,-0.5,1.1
-0.21,-0.44,1.1
-0.19,-0.37,1.1
-0.17,-0.33,1.1
-0.15,-0.33,1.1
-0.14,-0.31,1.1
-0.07,-0.31,1.08
-0.05,-0.29,1.06
-0.05,-0.29,1.03
-0.05,-0.31,1
-0.04,-0.35,0.98
-0.02,-0.39,0.98
-0.01,-0.43,0.98
0.01,-0.47,1
0.05,-0.51,1.03
0.09,-0.55,1.07
0.12,-0.59,1.11
0.16,-0.63,1.15
0.2,-0.67,1.18
0.22,-0.71,1.22
0.23,-0.74,1.26
0.2,-0.77,1.26
0.09,-0.8,1.16
0.01,-0.82,1.05
0.03,-0.85,0.99
0.09,-0.88,0.97
0.11,-0.9,0.98
0.11,-0.9,1.01
0.14,-0.91,1.06
0.17,-0.92,1.11
0.17,-0.92,1.17
0.16,-0.93,1.17
0.17,-0.94,1.14
0.17,-0.93,1.09
0.14,-0.92,0.99
0.1,-0.92,0.92
0.11,-0.92,0.9
0.16,-0.91,0.93
0.21,-0.89,0.96
0.22,-0.87,1
0.18,-0.87,1.06
0.13,-0.89,1.09
0.11,-0.92,1.07
0.1,-0.93,1.06
0.08,-0.92,1.06
0.05,-0.93,1.07
0.03,-0.98,1.06
0.03,-1.04,1.03
0.06,-1.09,1.03
0.11,-1.12,1.04
0.13,-1.14,1.08
0.13,-1.12,1.16
0.11,-1.12,1.23
0.14,-1.14,1.28
0.13,-1.16,1.28
0.1,-1.16,1.23
0.11,-1.14,1.2
0.09,-1.13,1.19
0.13,-1.16,1.2
0.19,-1.18,1.2
0.24,-1.17,1.2
0.27,-1.14,1.17
0.29,-1.11,1.15
0.31,-1.11,1.13
0.36,-1.12,1.12
0.45,-1.11,1.14
0.51,-1.1,1.14
0.56,-1.09,1.11
0.62,-1.06,1.06
0.69,-1.03,1
0.79,-1.01,0.95
0.91,-0.99,0.92
1.01,-0.95,0.89
1.08,-0.87,0.85
1.13,-0.74,0.84
1.18,-0.63,0.87
1.21,-0.54,0.91
1.2,-0.47,0.94
1.14,-0.41,0.92
1.11,-0.37,0.86
1.13,-0.33,0.82
1.17,-0.31,0.8
1.21,-0.3,0.83
1.24,-0.27,0.89
1.3,-0.2,0.9
1.36,-0.17,0.9
1.42,-0.14,0.88
1.47,-0.11,0.87
1.5,-0.07,0.88
1.49,-0.04,0.88
1.45,-0.01,0.88
1.42,0.01,0.88
1.41,0.02,0.89
1.43,0.02,0.89
1.45,0.02,0.9
1.45,0.01,0.9
1.44,0,0.88
1.41,0,0.87
1.4,-0.01,0.86
1.39,-0.03,0.83
1.37,-0.05,0.81
1.34,-0.08,0.78
1.31,-0.1,0.75
1.27,-0.13,0.73
1.22,-0.16,0.72
1.17,-0.19,0.71
1.12,-0.22,0.71
1.08,-0.24,0.71
1.05,-0.27,0.7
1.03,-0.29,0.75
1.05,-0.36,0.77
1.02,-0.39,0.78
1,-0.43,0.78
1.01,-0.48,0.79
1,-0.53,0.82
1,-0.59,0.86
0.99,-0.63,0.88
0.99,-0.67,0.89
0.99,-0.72,0.89
1.01,-0.78,0.89
1.02,-0.85,0.88
1.03,-0.94,0.86
1.03,-1.04,0.85
1.01,-1.13,0.85
0.99,-1.2,0.84
0.98,-1.27,0.82
0.97,-1.36,0.82
0.93,-1.42,0.83
0.86,-1.45,0.89
0.81,-1.46,0.98
0.76,-1.48,1.02
0.71,-1.5,1.01
0.66,-1.52,0.97
0.61,-1.56,0.94
0.6,-1.58,0.92
0.58,-1.59,0.92
0.58,-1.58,0.97
0.59,-1.61,1.04
0.6,-1.64,1.07
0.6,-1.69,1.06
0.54,-1.71,1.03
0.46,-1.66,1.02
0.4,-1.63,0.99
0.36,-1.6,0.98
0.4,-1.58,0.99
0.45,-1.57,1.02
0.47,-1.57,1.08
0.47,-1.57,1.12
0.45,-1.59,1.14
0.41,-1.6,1.14
0.37,-1.58,1.13
0.37,-1.56,1.07
0.36,-1.57,1.03
0.33,-1.55,1.06
0.27,-1.51,1.1
0.22,-1.48,1.14
0.19,-1.45,1.12
0.18,-1.44,1.09
0.16,-1.41,1.08
0.12,-1.37,1.09
0.05,-1.34,1.13
-0.04,-1.3,1.19
-0.12,-1.18,1.15
-0.15,-1.13,1.12
-0.14,-1.08,1.09
-0.14,-1,1.06
-0.14,-0.93,1.05
-0.15,-0.88,1.02
-0.15,-0.85,1.02
-0.16,-0.79,1.01
-0.19,-0.71,0.98
-0.19,-0.67,0.98
-0.18,-0.66,0.98
-0.16,-0.64,0.97
-0.13,-0.63,0.95
-0.1,-0.65,0.94
-0.08,-0.68,0.95
-0.08,-0.67,0.95
-0.08,-0.67,0.95
-0.07,-0.68,0.94
-0.05,-0.7,0.92
-0.04,-0.72,0.91
-0.03,-0.74,0.92
-0.04,-0.76,0.94
-0.05,-0.77,0.95
-0.03,-0.79,0.94
0,-0.81,0.94
0.02,-0.82,0.95
0.01,-0.83,0.96
-0.05,-0.85,0.97
-0.07,-0.87,0.98
-0.09,-0.9,0.99
-0.09,-0.93,1.01
-0.09,-0.95,1.02
-0.09,-0.99,1.04
-0.08,-1.02,1.07
-0.06,-1.05,1.09
-0.04,-1.08,1.09
-0.03,-1.13,1.06
-0.02,-1.16,1.02
-0.04,-1.2,1
-0.06,-1.26,1
-0.06,-1.3,1.03
-0.03,-1.34,1.06
0,-1.37,1.1
0.01,-1.38,1.12
0.04,-1.41,1.13
0.07,-1.44,1.15
0.08,-1.48,1.14
0.06,-1.53,1.11
0.05,-1.58,1.08
0.06,-1.62,1.06
0.09,-1.66,1.05
0.14,-1.68,1.06
0.21,-1.67,1.09
0.35,-1.61,1.11
0.37,-1.57,1.09
0.37,-1.54,1.07
0.37,-1.51,1.05
0.4,-1.47,1.02
0.45,-1.42,0.99
0.48,-1.41,0.99
0.52,-1.38,0.98
0.57,-1.35,0.97
0.6,-1.35,0.95
0.62,-1.35,0.93
0.64,-1.34,0.92
0.67,-1.33,0.89
0.74,-1.32,0.87
0.81,-1.35,0.87
0.9,-1.29,0.85
1.05,-1.18,0.82
1.19,-1.11,0.81
1.35,-1.01,0.81
1.53,-0.9,0.77
1.67,-0.78,0.72
1.74,-0.66,0.69
1.78,-0.56,0.68
1.79,-0.51,0.69
1.79,-0.43,0.67
1.8,-0.4,0.63
1.78,-0.34,0.58
1.74,-0.27,0.52
1.72,-0.2,0.5
1.74,-0.14,0.53
1.77,-0.1,0.56
1.75,-0.07,0.55
1.74,-0.03,0.53
1.75,0,0.53
1.74,0.01,0.53
1.73,0.02,0.53
1.72,0,0.52
1.69,-0.03,0.52
1.65,-0.06,0.55
1.63,-0.07,0.58
1.61,-0.07,0.61
1.58,-0.09,0.63
1.52,-0.11,0.64
1.52,-0.16,0.62
1.58,-0.22,0.58
1.64,-0.29,0.58
1.72,-0.37,0.59
1.8,-0.45,0.59
1.8,-0.52,0.61
1.73,-0.6,0.59
1.48,-0.72,0.59
1.4,-0.78,0.61
1.34,-0.83,0.63
1.3,-0.88,0.65
1.26,-0.93,0.66
1.22,-0.98,0.66
1.18,-1,0.65
1.13,-1,0.66
1.09,-1.02,0.69
1.07,-1.05,0.74
1.04,-1.06,0.76
1,-1.07,0.76
0.95,-1.08,0.74
0.92,-1.08,0.71
0.9,-1.09,0.69
0.89,-1.12,0.67
0.9,-1.16,0.68
0.93,-1.19,0.71
0.96,-1.19,0.73
1,-1.18,0.73
1.03,-1.18,0.74
1.05,-1.2,0.73
1.06,-1.24,0.72
1.06,-1.29,0.75
1.05,-1.33,0.81
1.05,-1.36,0.82
1.03,-1.36,0.81
1.01,-1.36,0.79
1,-1.39,0.78
0.99,-1.44,0.8
0.99,-1.48,0.84
0.94,-1.49,0.87
0.88,-1.49,0.88
0.85,-1.51,0.89
0.82,-1.53,0.91
0.78,-1.53,0.9
0.72,-1.52,0.89
0.64,-1.5,0.88
0.56,-1.51,0.86
0.53,-1.52,0.87
0.53,-1.53,0.9
0.54,-1.54,0.96
0.52,-1.54,1.02
0.47,-1.51,1.05
0.38,-1.5,1.05
0.29,-1.48,1.03
0.23,-1.45,1.01
0.18,-1.41,1.01
0.13,-1.39,1.01
0.09,-1.37,1.02
0.06,-1.34,1.06
0.03,-1.26,1.11
0.01,-1.2,1.11
-0.07,-1.16,1.11
-0.09,-1.11,1.1
-0.1,-1.05,1.09
-0.11,-1.01,1.11
-0.11,-0.96,1.12
-0.12,-0.91,1.13
-0.16,-0.86,1.14
-0.2,-0.82,1.16
-0.21,-0.76,1.17
-0.22,-0.71,1.18
-0.24,-0.69,1.17
-0.24,-0.67,1.16
-0.27,-0.65,1.17
-0.31,-0.63,1.17
-0.3,-0.61,1.15
-0.31,-0.6,1.14
-0.31,-0.61,1.12
-0.27,-0.61,1.11
-0.24,-0.62,1.09
-0.21,-0.64,1.09
-0.18,-0.66,1.08
-0.16,-0.68,1.08
-0.16,-0.7,1.06
-0.15,-0.73,1.03
-0.13,-0.77,1.02
-0.05,-0.84,1
-0.01,-0.88,0.99
0.03,-0.91,1
0.06,-0.94,1.04
0.06,-0.97,1.07
0.07,-1.01,1.1
0.1,-1.03,1.1
0.12,-1.05,1.08
0.14,-1.08,1.05
0.16,-1.11,1.02
0.17,-1.15,1.03
0.18,-1.19,1.06
0.19,-1.22,1.1
0.19,-1.23,1.15
0.18,-1.26,1.17
0.17,-1.27,1.17
0.18,-1.29,1.15
0.19,-1.31,1.13
0.18,-1.3,1.12
0.19,-1.33,1.1
0.22,-1.37,1.1
0.23,-1.38,1.13
0.25,-1.39,1.16
0.26,-1.41,1.17
0.27,-1.42,1.15
0.29,-1.42,1.13
0.29,-1.43,1.1
0.29,-1.42,1.11
0.32,-1.42,1.12
0.34,-1.44,1.13
0.36,-1.45,1.16
0.39,-1.45,1.19
0.43,-1.43,1.19
0.44,-1.39,1.2
0.46,-1.36,1.19
0.48,-1.35,1.16
0.47,-1.34,1.12
0.44,-1.33,1.09
0.38,-1.32,1.07
0.34,-1.32,1.07
0.32,-1.32,1.06
0.36,-1.3,1.04
0.43,-1.29,1.01
0.51,-1.28,0.96
0.61,-1.27,0.91
0.72,-1.24,0.86
0.85,-1.18,0.82
0.96,-1.11,0.78
1,-1.07,0.74
1.04,-1.02,0.7
1.06,-0.97,0.64
1.08,-0.93,0.58
1.11,-0.89,0.49
1.22,-0.84,0.46
1.25,-0.79,0.42
1.29,-0.74,0.37
1.35,-0.67,0.34
1.4,-0.58,0.31
1.47,-0.5,0.31
1.55,-0.43,0.31
1.6,-0.36,0.32
1.62,-0.29,0.35
1.64,-0.23,0.36
1.65,-0.18,0.36
1.68,-0.14,0.36
1.72,-0.09,0.38
1.76,-0.06,0.39
1.78,-0.04,0.35
1.8,-0.04,0.29
1.81,-0.03,0.26
1.77,-0.01,0.28
1.71,0.01,0.31
1.66,0.01,0.37
1.65,0.01,0.46
1.68,0.01,0.55
1.69,0,0.61
1.66,-0.02,0.64
1.62,-0.02,0.67
1.61,0.01,0.73
1.62,0,0.76
1.59,0,0.76
1.55,-0.01,0.75
1.46,-0.03,0.75
1.37,-0.07,0.75
1.33,-0.09,0.75
1.3,-0.1,0.74
1.29,-0.13,0.76
1.28,-0.15,0.78
1.27,-0.17,0.78
1.26,-0.2,0.75
1.26,-0.24,0.73
1.24,-0.28,0.7
1.21,-0.33,0.65
1.18,-0.37,0.6
1.14,-0.41,0.58
1.12,-0.45,0.58
1.11,-0.47,0.61
1.11,-0.49,0.66
1.12,-0.51,0.7
1.14,-0.54,0.7
1.14,-0.58,0.69
1.12,-0.6,0.67
1.1,-0.62,0.65
1.09,-0.67,0.68
1.07,-0.71,0.71
1.04,-0.78,0.69
1.03,-0.81,0.66
1.03,-0.85,0.66
1.02,-0.89,0.7
1,-0.91,0.74
0.97,-0.92,0.77
0.95,-0.91,0.8
0.94,-0.9,0.82
0.93,-0.89,0.81
0.93,-0.92,0.79
0.92,-0.97,0.76
0.92,-1.01,0.75
0.95,-1.04,0.72
0.97,-1.04,0.69
0.98,-1.04,0.67
1,-1.06,0.67
1,-1.11,0.71
1,-1.15,0.77
1,-1.17,0.83
0.98,-1.18,0.87
0.92,-1.21,0.87
0.87,-1.25,0.84
0.84,-1.28,0.8
0.81,-1.3,0.81
0.79,-1.32,0.85
0.75,-1.34,0.93
0.68,-1.35,1.1
0.64,-1.37,1.14
0.58,-1.41,1.16
0.48,-1.44,1.15
0.38,-1.43,1.13
0.3,-1.42,1.13
0.25,-1.4,1.12
0.23,-1.37,1.14
0.22,-1.35,1.18
0.21,-1.35,1.23
0.2,-1.34,1.24
0.17,-1.33,1.22
0.14,-1.3,1.17
0.09,-1.28,1.1
0.04,-1.24,1.06
0,-1.21,1.05
-0.03,-1.22,1.07
-0.02,-1.17,1.09
-0.01,-1.11,1.1
-0.04,-1.08,1.1
-0.03,-1.05,1.09
-0.02,-1.02,1.09
-0.01,-0.96,1.09
0,-0.91,1.08
0,-0.86,1.08
-0.02,-0.82,1.09
-0.03,-0.75,1.07
-0.02,-0.73,1.09
-0.05,-0.72,1.12
-0.07,-0.68,1.11
-0.08,-0.65,1.1
-0.09,-0.64,1.1
-0.08,-0.62,1.09
-0.07,-0.6,1.07
-0.06,-0.59,1.05
-0.06,-0.59,1.03
-0.06,-0.6,1.04
-0.04,-0.62,1.06
-0.03,-0.63,1.06
-0.02,-0.64,1.04
0,-0.66,1.02
0.01,-0.67,1.01
0.03,-0.67,0.99
0.03,-0.69,0.97
0.03,-0.71,0.96
0.05,-0.73,0.96
0.07,-0.75,0.97
0.1,-0.77,0.99
0.14,-0.8,1.01
0.16,-0.83,1.02
0.19,-0.85,1.03
0.2,-0.88,1.01
0.19,-0.95,0.95
0.18,-0.97,0.97
0.2,-0.99,1
0.24,-1.02,1.03
0.27,-1.06,1.04
0.29,-1.1,1.05
0.29,-1.12,1.05
0.28,-1.15,1.04
0.28,-1.19,1.02
0.28,-1.21,1.02
0.26,-1.23,1.01
0.23,-1.26,0.99
0.24,-1.29,0.97
0.25,-1.32,0.98
0.27,-1.35,1.02
0.3,-1.38,1.05
0.3,-1.39,1.02
0.3,-1.4,0.98
0.3,-1.42,0.95
0.32,-1.44,0.94
0.35,-1.44,0.96
0.38,-1.44,0.97
0.41,-1.46,0.96
0.42,-1.47,0.95
0.42,-1.45,0.95
0.43,-1.42,0.98
0.47,-1.4,1.01
0.48,-1.34,1.04
0.45,-1.32,1.06
0.42,-1.31,1.06
0.41,-1.3,1.06
0.41,-1.28,1.09
0.44,-1.27,1.11
0.47,-1.23,1.13
0.5,-1.19,1.14
0.52,-1.15,1.12
0.57,-1.12,1.1
0.63,-1.05,1.09
0.96,-0.66,0.89
0.96,-0.66,0.89
1.1,-0.61,0.89
1.21,-0.58,0.87
1.27,-0.55,0.82
1.3,-0.49,0.79
1.35,-0.43,0.79
1.4,-0.38,0.79
1.44,-0.33,0.75
1.44,-0.21,0.7
1.43,-0.15,0.65
1.42,-0.1,0.61
1.43,-0.06,0.59
1.45,-0.03,0.56
1.47,-0.04,0.52
1.47,-0.05,0.41
1.47,-0.05,0.41
1.42,-0.02,0.38
1.38,0.01,0.39
1.38,0.03,0.43
1.37,0,0.48
1.37,0,0.48
1.35,-0.01,0.47
1.34,-0.03,0.48
1.32,-0.05,0.5
1.29,-0.08,0.5
1.26,-0.1,0.52
1.24,-0.11,0.54
1.24,-0.13,0.58
1.27,-0.14,0.64
1.3,-0.17,0.67
1.3,-0.23,0.68
1.27,-0.29,0.68
1.25,-0.35,0.72
1.27,-0.43,0.77
1.29,-0.45,0.81
1.28,-0.47,0.82
1.24,-0.51,0.79
1.21,-0.55,0.75
1.2,-0.6,0.71
1.19,-0.64,0.7
1.16,-0.69,0.73
1.11,-0.75,0.76
1.07,-0.79,0.76
1.05,-0.83,0.74
1.04,-0.86,0.72
1.03,-0.9,0.71
1.02,-0.95,0.74
1.03,-1.02,0.76
1.01,-1.06,0.77
0.98,-1.1,0.78
0.97,-1.14,0.79
0.96,-1.16,0.78
0.93,-1.19,0.77
0.89,-1.23,0.75
0.85,-1.25,0.73
0.82,-1.25,0.71
0.8,-1.25,0.73
0.8,-1.25,0.77
0.79,-1.27,0.8
0.7,-1.28,0.79
0.7,-1.26,0.76
0.68,-1.26,0.73
0.66,-1.28,0.71
0.65,-1.29,0.71
0.63,-1.34,0.71
0.59,-1.38,0.74
0.57,-1.37,0.8
0.57,-1.32,0.84
0.55,-1.28,0.82
0.54,-1.29,0.81
0.56,-1.29,0.82
0.58,-1.31,0.81
0.54,-1.36,0.83
0.5,-1.36,0.84
0.49,-1.35,0.81
0.51,-1.39,0.8
0.55,-1.44,0.82
0.6,-1.47,0.88
0.61,-1.48,0.96
0.55,-1.47,1.04
0.47,-1.45,1.05
0.44,-1.46,1.04
0.35,-1.5,1.07
0.21,-1.53,1.13
0.11,-1.49,1.21
-0.11,-1.4,1.17
-0.25,-1.38,1.2
-0.37,-1.37,1.23
-0.43,-1.31,1.26
-0.47,-1.23,1.28
-0.5,-1.13,1.27
-0.5,-1.06,1.23
-0.55,-0.97,1.16
-0.6,-0.84,1.07
-0.6,-0.76,1.01
-0.61,-0.69,0.99
-0.61,-0.63,0.99
-0.57,-0.56,0.97
-0.51,-0.49,0.95
-0.47,-0.45,0.95
-0.43,-0.41,0.95
-0.38,-0.39,0.94
-0.34,-0.38,0.93
-0.3,-0.38,0.93
-0.28,-0.38,0.93
-0.25,-0.39,0.91
-0.21,-0.43,0.9
-0.18,-0.46,0.92
-0.17,-0.51,0.94
-0.17,-0.56,0.96
-0.16,-0.6,0.97
-0.16,-0.67,0.95
-0.18,-0.71,0.96
-0.17,-0.77,0.97
-0.18,-0.82,0.98
-0.2,-0.86,1
-0.21,-0.88,0.97
-0.21,-0.9,0.94
-0.19,-0.94,0.93
-0.17,-0.99,0.94
-0.14,-1.03,0.97
-0.11,-1.04,1.04
-0.09,-1.05,1.09
-0.1,-1.07,1.09
-0.11,-1.07,1.1
-0.14,-1.05,1.1
-0.16,-1.03,1.08
-0.2,-1.04,1.05
-0.24,-1.07,1.01
-0.27,-1.08,1
-0.27,-1.1,1.01
-0.24,-1.14,1.03
-0.22,-1.14,1.06
-0.19,-1.14,1.09
-0.15,-1.16,1.13
-0.15,-1.17,1.15
-0.14,-1.17,1.13
-0.1,-1.22,1.09
-0.06,-1.21,1.08
-0.04,-1.2,1.04
-0.03,-1.21,1.02
-0.02,-1.22,1.01
0.02,-1.23,1.05
0.07,-1.23,1.08
0.1,-1.24,1.1
0.11,-1.25,1.11
0.12,-1.25,1.1
0.13,-1.25,1.06
0.14,-1.25,1.04
0.18,-1.26,1.03
0.19,-1.28,1.04
0.21,-1.31,1.04
0.24,-1.34,1.03
0.26,-1.36,1.02
0.29,-1.34,1.01
0.3,-1.34,0.99
0.29,-1.35,0.99
0.32,-1.37,1.02
0.36,-1.37,1.03
0.4,-1.34,0.99
0.47,-1.33,0.89
0.6,-1.29,0.83
0.71,-1.22,0.76
0.81,-1.16,0.58
1.01,-1.03,0.51
1.02,-0.98,0.49
0.97,-0.92,0.5
0.91,-0.89,0.54
0.88,-0.87,0.59
0.9,-0.82,0.64
0.92,-0.78,0.69
0.95,-0.76,0.73
0.99,-0.74,0.75
1.04,-0.68,0.76
1.12,-0.62,0.76
1.23,-0.57,0.75
1.28,-0.55,0.75
1.28,-0.52,0.75
1.29,-0.47,0.76
1.35,-0.4,0.77
1.41,-0.34,0.79
1.47,-0.29,0.8
1.52,-0.25,0.79
1.57,-0.19,0.77
1.6,-0.14,0.76
1.6,-0.09,0.75
1.58,-0.05,0.74
1.56,-0.02,0.76
1.58,0,0.82
1.61,0,0.8
1.64,-0.02,0.72
1.63,-0.01,0.66
1.61,-0.01,0.64
1.59,-0.02,0.64
1.58,-0.04,0.66
1.57,-0.06,0.68
1.56,-0.07,0.67
1.53,-0.08,0.63
1.5,-0.09,0.6
1.47,-0.1,0.59
1.44,-0.12,0.57
1.4,-0.13,0.56
1.37,-0.15,0.55
1.35,-0.18,0.53
1.35,-0.21,0.51
1.34,-0.22,0.49
1.32,-0.22,0.48
1.3,-0.23,0.46
1.27,-0.25,0.46
1.22,-0.27,0.48
1.17,-0.27,0.49
1.14,-0.27,0.5
1.13,-0.28,0.49
1.13,-0.29,0.49
1.14,-0.3,0.48
1.16,-0.32,0.41
1.31,-0.4,0.47
1.36,-0.54,0.57
1.37,-0.68,0.6
1.34,-0.79,0.58
1.31,-0.87,0.54
1.26,-0.95,0.54
1.21,-1.01,0.56
1.18,-1.03,0.58
1.15,-1.05,0.62
1.12,-1.1,0.66
1.09,-1.16,0.69
1.05,-1.21,0.71
0.99,-1.26,0.74
0.94,-1.3,0.74
0.89,-1.3,0.73
0.86,-1.29,0.74
0.85,-1.29,0.75
0.82,-1.31,0.76
0.78,-1.35,0.77
0.78,-1.38,0.8
0.79,-1.45,0.82
0.74,-1.52,0.83
0.66,-1.53,0.82
0.62,-1.49,0.84
0.65,-1.43,0.89
0.75,-1.37,0.93
0.76,-1.38,0.91
0.68,-1.38,0.88
0.63,-1.37,0.86
0.56,-1.36,0.86
0.49,-1.35,0.88
0.47,-1.29,0.93
0.48,-1.24,0.98
0.51,-1.22,1.03
0.57,-1.23,1.07
0.61,-1.22,1.09
0.6,-1.2,1.1
0.58,-1.17,1.12
0.55,-1.14,1.13
0.55,-1.1,1.13
0.56,-1.07,1.13
0.58,-1.05,1.15
0.61,-1.02,1.15
0.62,-0.99,1.15
0.58,-0.97,1.17
0.51,-0.98,1.17
0.39,-0.98,1.18
0.25,-1,1.2
0.16,-0.99,1.22
0.08,-0.93,1.23
-0.01,-0.88,1.21
-0.06,-0.82,1.2
-0.07,-0.73,1.15
-0.05,-0.69,1.16
-0.05,-0.64,1.17
-0.02,-0.57,1.14
0.01,-0.56,1.11
0,-0.56,1.07
0.02,-0.54,1.04
0.04,-0.53,0.99
0.02,-0.54,0.96
0.03,-0.53,0.95
0.04,-0.53,0.94
0.04,-0.52,0.93
0.04,-0.52,0.93
0.05,-0.54,0.94
0.06,-0.55,0.94
0.08,-0.56,0.94
0.1,-0.57,0.93
0.12,-0.59,0.93
0.12,-0.62,0.94
0.12,-0.65,0.95
0.11,-0.68,0.98
0.1,-0.71,1
0.09,-0.73,1.02
0.08,-0.76,1.03
0.06,-0.79,1.04
0.05,-0.82,1.06
0.05,-0.87,1.07
0.02,-0.89,1.07
0.01,-0.91,1.08
-0.01,-0.94,1.08
-0.03,-0.95,1.07
-0.07,-0.95,1.04
-0.12,-0.97,1.02
-0.16,-0.99,1
-0.19,-1,0.98
-0.2,-1.03,1
-0.18,-1.07,1.02
-0.15,-1.1,1.05
-0.14,-1.12,1.07
-0.14,-1.15,1.1
-0.13,-1.17,1.12
-0.12,-1.19,1.11
-0.11,-1.21,1.09
-0.11,-1.23,1.06
-0.13,-1.26,1.03
-0.14,-1.27,1.03
-0.13,-1.29,1.05
-0.1,-1.31,1.08
-0.06,-1.31,1.08
-0.02,-1.31,1.07
0.02,-1.31,1.06
0.04,-1.31,1.05
0.08,-1.33,1.04
0.16,-1.34,1.04
0.2,-1.36,1.06
0.26,-1.39,1.09
0.32,-1.4,1.14
0.37,-1.39,1.18
0.39,-1.38,1.2
0.39,-1.37,1.18
0.39,-1.34,1.13
0.38,-1.33,1.09
0.36,-1.34,1.08
0.33,-1.35,1.09
0.35,-1.36,1.1
0.42,-1.35,1.09
0.47,-1.35,1.08
0.5,-1.35,1.09
0.51,-1.33,1.06
0.57,-1.29,1.01
0.61,-1.27,0.99
0.65,-1.25,1.01
0.69,-1.23,1
0.68,-1.2,0.99
0.72,-1.14,0.97
0.74,-1.06,0.95
0.75,-1.01,0.93
0.77,-0.98,0.92
0.77,-0.95,0.91
0.87,-0.88,0.9
0.95,-0.84,0.89
1.03,-0.79,0.87
1.05,-0.72,0.82
1.05,-0.63,0.78
1.06,-0.57,0.78
1.08,-0.54,0.79
1.15,-0.53,0.79
1.23,-0.52,0.77
1.3,-0.49,0.72
1.33,-0.43,0.68
1.35,-0.35,0.68
1.38,-0.29,0.72
1.41,-0.24,0.79
1.47,-0.2,0.88
1.51,-0.16,0.95
1.51,-0.12,0.96
1.49,-0.09,0.95
1.47,-0.07,0.96
1.45,-0.05,1.01
1.45,-0.05,1.08
1.45,-0.06,1.12
1.45,-0.07,1.13
1.45,-0.09,1.14
1.42,-0.12,1.15
1.38,-0.14,1.17
1.33,-0.16,1.19
1.3,-0.19,1.19
1.26,-0.23,1.18
1.21,-0.27,1.17
1.16,-0.31,1.15
1.13,-0.35,1.1
1.1,-0.38,1.07
1.09,-0.42,1.06
1.08,-0.46,1.07
1.08,-0.5,1.1
1.06,-0.54,1.09
1.03,-0.58,1.07
0.99,-0.63,1.05
0.96,-0.69,1.03
0.95,-0.74,1.03
0.95,-0.79,1.03
0.95,-0.84,1.01
0.94,-0.89,0.99
0.92,-0.96,0.97
0.91,-1,0.94
0.91,-1.05,0.94
0.92,-1.11,0.93
0.93,-1.15,0.92
0.91,-1.18,0.9
0.88,-1.22,0.87
0.84,-1.24,0.84
0.8,-1.21,0.85
0.78,-1.2,0.86
0.78,-1.21,0.88
0.79,-1.22,0.88
0.78,-1.22,0.89
0.76,-1.22,0.89
0.74,-1.23,0.88
0.73,-1.25,0.87
0.72,-1.26,0.87
0.7,-1.25,0.89
0.67,-1.25,0.91
0.64,-1.24,0.93
0.63,-1.29,0.96
0.62,-1.36,0.97
0.59,-1.37,0.95
0.54,-1.36,0.93
0.52,-1.34,0.92
0.51,-1.34,0.92
0.51,-1.32,0.93
0.51,-1.32,0.96
0.48,-1.32,0.99
0.44,-1.31,1.02
0.41,-1.31,1.04
0.4,-1.32,1.03
0.39,-1.33,1.03
0.36,-1.35,1.02
0.33,-1.36,1.05
0.35,-1.32,1.07
0.35,-1.3,1.09
0.32,-1.3,1.11
0.28,-1.3,1.12
0.23,-1.27,1.11
0.21,-1.24,1.09
0.2,-1.23,1.08
0.16,-1.22,1.1
0.12,-1.21,1.11
0.08,-1.18,1.12
0.05,-1.15,1.15
0.03,-1.11,1.16
0,-1.06,1.16
-0.02,-1.01,1.16
-0.06,-0.98,1.15
-0.1,-0.96,1.16
-0.11,-0.88,1.16
-0.12,-0.84,1.17
-0.15,-0.84,1.18
-0.17,-0.78,1.16
-0.2,-0.71,1.12
-0.23,-0.66,1.14
-0.24,-0.61,1.16
-0.23,-0.56,1.11
-0.22,-0.52,1.1
-0.22,-0.49,1.1
-0.21,-0.48,1.08
-0.24,-0.48,1.07
-0.24,-0.48,1.06
-0.24,-0.51,1.05
-0.24,-0.53,1.04
-0.24,-0.55,1.03
-0.23,-0.57,1.03
-0.22,-0.6,1.03
-0.2,-0.63,1.03
-0.18,-0.66,1.02
-0.16,-0.69,0.99
-0.14,-0.72,0.99
-0.14,-0.76,0.99
-0.13,-0.79,1.01
-0.12,-0.81,1.02
-0.11,-0.83,1.04
-0.09,-0.86,1.06
-0.06,-0.88,1.08
-0.05,-0.9,1.07
-0.05,-0.92,1.05
-0.04,-0.94,1.03
-0.03,-0.96,1.04
-0.03,-0.97,1.06
-0.03,-0.99,1.08
-0.02,-1,1.09
-0.01,-1,1.11
-0.02,-1,1.08
-0.04,-1.01,1.08
-0.04,-1.03,1.06
-0.06,-1.06,1.04
-0.06,-1.08,1.06
-0.06,-1.09,1.09
-0.04,-1.11,1.12
-0.03,-1.13,1.13
-0.02,-1.14,1.12
0,-1.16,1.1
-0.01,-1.18,1.08
-0.01,-1.19,1.08
0.01,-1.21,1.08
0.04,-1.22,1.09
0.08,-1.23,1.12
0.13,-1.23,1.15
0.18,-1.23,1.16
0.25,-1.23,1.15
0.31,-1.21,1.13
0.36,-1.19,1.13
0.39,-1.17,1.13
0.41,-1.15,1.12
0.44,-1.13,1.09
0.45,-1.14,1.06
0.44,-1.15,1.03
0.46,-1.16,0.97
0.55,-1.11,1.01
0.56,-1.09,1.05
0.56,-1.08,1.05
0.55,-1.05,1.03
0.53,-1,0.99
0.54,-0.97,0.97
0.56,-0.97,1
0.58,-0.95,1.03
0.59,-0.89,1.05
0.64,-0.82,1.03
0.68,-0.75,0.99
0.75,-0.7,1
0.84,-0.63,1.02
0.93,-0.56,1.02
1.01,-0.51,0.99
1.05,-0.44,0.96
1.05,-0.36,0.95
1.07,-0.28,0.97
1.1,-0.24,1
1.13,-0.23,1.03
1.14,-0.22,1.03
1.13,-0.2,1.03
1.12,-0.17,1.03
1.09,-0.12,1.04
1.05,-0.07,1.07
1.05,-0.03,1.12
1.09,0.02,1.12
1.1,0.03,1.09
1.12,0.04,1.07
1.11,0.05,1.07
1.09,0.07,1.1
1.09,0.08,1.12
1.12,0.08,1.12
1.16,0.07,1.11
1.17,0.07,1.09
1.17,0.06,1.07
1.17,0.04,1.04
1.22,0.01,1.02
1.31,0,1
1.39,-0.04,0.99
1.45,-0.07,0.97
1.48,-0.09,0.91
1.51,-0.11,0.82
1.53,-0.13,0.77
1.52,-0.17,0.75
1.46,-0.22,0.75
1.38,-0.26,0.75
1.34,-0.28,0.75
1.3,-0.31,0.74
1.26,-0.34,0.72
1.23,-0.38,0.71
1.19,-0.43,0.67
1.13,-0.51,0.66
1.11,-0.53,0.66
1.11,-0.54,0.67
1.09,-0.55,0.67
1.06,-0.59,0.67
1.02,-0.64,0.67
0.96,-0.67,0.67
0.91,-0.69,0.67
0.88,-0.71,0.67
0.87,-0.74,0.68
0.87,-0.76,0.7
0.87,-0.77,0.72
0.88,-0.79,0.74
0.88,-0.82,0.76
0.86,-0.86,0.78
0.85,-0.9,0.8
0.85,-0.93,0.82
0.84,-0.96,0.83
0.83,-0.98,0.81
0.82,-0.99,0.78
0.82,-1.01,0.75
0.82,-1.06,0.75
0.8,-1.11,0.77
0.77,-1.11,0.82
0.74,-1.1,0.86
0.72,-1.11,0.92
0.67,-1.14,0.93
0.64,-1.16,0.92
0.59,-1.16,0.89
0.57,-1.17,0.88
0.56,-1.18,0.89
0.54,-1.19,0.92
0.5,-1.2,0.97
0.46,-1.2,1.02
0.41,-1.19,1.05
0.4,-1.19,1.07
0.42,-1.19,1.06
0.45,-1.2,1.04
0.43,-1.22,1.02
0.36,-1.23,1.02
0.31,-1.22,1.05
0.25,-1.17,1.1
0.21,-1.11,1.15
0.21,-1.06,1.19
0.21,-1.02,1.23
0.18,-0.98,1.26
0.15,-0.95,1.25
0.11,-0.88,1.22
0.05,-0.83,1.21
0,-0.8,1.21
-0.05,-0.76,1.24
-0.1,-0.71,1.26
-0.2,-0.62,1.25
-0.24,-0.55,1.29
-0.29,-0.5,1.27
-0.29,-0.45,1.24
-0.26,-0.4,1.22
-0.25,-0.35,1.19
-0.23,-0.3,1.16
-0.21,-0.26,1.13
-0.17,-0.22,1.11
-0.16,-0.18,1.1
-0.16,-0.17,1.1
-0.13,-0.15,1.09
-0.12,-0.14,1.08
-0.13,-0.15,1.05
-0.15,-0.18,1.04
-0.14,-0.23,1.03
-0.14,-0.27,1.03
-0.14,-0.33,1.04
-0.11,-0.39,1.06
-0.08,-0.46,1.08
-0.04,-0.53,1.1
-0.01,-0.6,1.15
-0.01,-0.68,1.17
-0.04,-0.72,1.15
-0.09,-0.76,1.13
-0.15,-0.78,1.12
-0.2,-0.78,1.1
-0.24,-0.78,1.09
-0.23,-0.77,1.07
-0.22,-0.79,1.07
-0.23,-0.82,1.1
-0.23,-0.85,1.12
-0.21,-0.86,1.1
-0.22,-0.84,1.07
-0.25,-0.83,1.03
-0.26,-0.84,1
-0.26,-0.86,1
-0.24,-0.87,1.01
-0.22,-0.87,1.02
-0.21,-0.87,1.02
-0.2,-0.87,1
-0.19,-0.87,0.97
-0.2,-0.86,0.94
-0.2,-0.87,0.94
-0.2,-0.88,0.96
-0.19,-0.87,0.98
-0.17,-0.87,0.99
-0.15,-0.87,1
-0.14,-0.87,1.02
-0.11,-0.87,1.03
-0.11,-0.88,1.03
-0.11,-0.89,1.02
-0.09,-0.91,1.04
-0.07,-0.94,1.07
-0.05,-0.95,1.12
-0.03,-0.96,1.15
-0.02,-0.96,1.17
0,-0.98,1.16
0.01,-1,1.15
0.02,-1.01,1.14
0.04,-1.02,1.15
0.06,-1.03,1.15
0.09,-1.05,1.15
0.13,-1.07,1.14
0.19,-1.08,1.14
0.3,-1.09,1.16
0.45,-1.09,1.17
0.53,-1.06,1.17
0.51,-1,1.16
0.43,-0.95,1.16
0.38,-0.95,1.11
0.38,-0.97,1.06
0.41,-0.98,1.01
0.43,-0.99,0.95
0.47,-1,0.93
0.51,-1,0.92
0.54,-1,0.93
0.59,-0.98,0.94
0.69,-0.92,0.93
0.83,-0.83,0.91
0.83,-0.79,0.89
0.81,-0.74,0.85
0.8,-0.69,0.83
0.82,-0.64,0.82
0.84,-0.6,0.8
0.87,-0.58,0.8
0.93,-0.56,0.79
1,-0.52,0.79
1.05,-0.47,0.78
1.09,-0.41,0.78
1.1,-0.36,0.79
1.1,-0.33,0.82
1.09,-0.31,0.86
1.11,-0.29,0.89
1.12,-0.24,0.91
1.13,-0.18,0.94
1.14,-0.14,0.94
1.13,-0.13,0.93
1.12,-0.11,0.92
1.09,-0.09,0.93
1.08,-0.07,0.93
1.12,-0.06,0.92
1.17,-0.03,0.93
1.21,-0.01,0.94
1.22,0.01,0.95
1.23,0.02,0.93
1.25,0.02,0.91
1.29,0.03,0.89
1.32,0.03,0.87
1.32,0.03,0.87
1.31,0.02,0.89
1.29,0.01,0.9
1.09,-0.44,0.85
1.07,-0.47,0.85
1.05,-0.5,0.84
1,-0.54,0.83
0.97,-0.56,0.84
0.95,-0.57,0.84
0.93,-0.59,0.84
0.92,-0.61,0.85
0.91,-0.62,0.84
0.92,-0.63,0.85
0.92,-0.65,0.85
0.92,-0.67,0.86
0.91,-0.68,0.87
0.88,-0.69,0.87
0.84,-0.7,0.87
0.82,-0.69,0.87
0.81,-0.7,0.88
0.82,-0.72,0.89
0.81,-0.74,0.9
0.81,-0.76,0.9
0.82,-0.77,0.89
0.81,-0.79,0.9
0.8,-0.81,0.92
0.78,-0.83,0.93
0.76,-0.83,0.92
0.77,-0.83,0.9
0.79,-0.84,0.91
0.78,-0.84,0.91
0.76,-0.86,0.92
0.67,-0.9,0.92
0.64,-0.92,0.91
0.62,-0.92,0.9
0.61,-0.9,0.88
0.59,-0.9,0.88
0.57,-0.92,0.88
0.56,-0.94,0.87
0.53,-0.96,0.88
0.52,-0.97,0.9
0.51,-0.99,0.92
0.48,-1.01,0.9
0.43,-1.04,0.88
0.38,-1.05,0.89
0.34,-1.05,0.95
0.32,-1.04,1
0.33,-1.04,1.04
0.33,-1.03,1.1
0.28,-1.03,1.16
0.21,-1.03,1.21
0.12,-1,1.24
0.06,-0.96,1.25
0,-0.92,1.28
-0.04,-0.86,1.3
-0.06,-0.81,1.29
-0.09,-0.76,1.29
-0.11,-0.72,1.29
-0.14,-0.66,1.3
-0.2,-0.6,1.3
-0.24,-0.51,1.27
-0.27,-0.42,1.25
-0.3,-0.37,1.24
-0.27,-0.35,1.21
-0.22,-0.33,1.19
-0.21,-0.31,1.16
-0.2,-0.3,1.14
-0.17,-0.26,1.11
-0.14,-0.24,1.08
-0.13,-0.22,1.06
-0.1,-0.21,1.06
-0.07,-0.21,1.05
-0.03,-0.21,1.03
-0.01,-0.21,1.01
-0.01,-0.2,0.99
-0.01,-0.21,0.96
0,-0.22,0.95
0,-0.24,0.95
-0.01,-0.27,0.94
-0.01,-0.31,0.95
0.01,-0.34,0.97
0.04,-0.38,1.01
0.07,-0.43,1.06
0.1,-0.47,1.1
0.11,-0.55,1.13
0.11,-0.58,1.13
0.07,-0.6,1.11
0.02,-0.62,1.07
-0.02,-0.64,1.04
-0.03,-0.68,1.05
-0.03,-0.7,1.08
-0.03,-0.71,1.13
-0.03,-0.72,1.19
-0.04,-0.73,1.22
-0.05,-0.73,1.22
-0.05,-0.73,1.2
-0.08,-0.72,1.13
-0.13,-0.72,1.06
-0.18,-0.72,1.05
-0.21,-0.74,1.07
-0.21,-0.75,1.09
-0.21,-0.75,1.1
-0.21,-0.74,1.14
-0.21,-0.75,1.16
-0.2,-0.75,1.15
-0.2,-0.74,1.12
-0.2,-0.73,1.09
-0.21,-0.74,1.05
-0.21,-0.75,1.03
-0.2,-0.76,1.03
-0.16,-0.77,1.07
-0.09,-0.79,1.09
-0.06,-0.8,1.11
-0.05,-0.81,1.14
-0.06,-0.82,1.16
-0.06,-0.84,1.14
-0.04,-0.86,1.11
-0.03,-0.87,1.09
-0.03,-0.89,1.08
-0.02,-0.9,1.08
-0.02,-0.92,1.09
0,-0.95,1.09
0.01,-0.99,1.1
0.02,-1.04,1.09
0.03,-1.06,1.07
0.08,-1.08,1.07
0.14,-1.1,1.08
0.21,-1.11,1.09
0.27,-1.11,1.11
0.3,-1.1,1.12
0.33,-1.09,1.12
0.36,-1.08,1.11
0.39,-1.07,1.09
0.43,-1.06,1.06
0.47,-1.04,1.03
0.51,-1.01,1.01
0.54,-0.99,1
0.56,-0.96,0.98
0.55,-0.95,0.97
0.56,-0.94,0.98
0.57,-0.91,0.99
0.58,-0.88,0.99
0.58,-0.87,1
0.6,-0.86,0.98
0.61,-0.86,0.96
0.62,-0.84,0.93
0.64,-0.8,0.89
0.69,-0.75,0.89
0.76,-0.71,0.91
0.86,-0.62,0.94
0.86,-0.62,0.94
0.88,-0.58,0.93
0.89,-0.54,0.89
0.92,-0.48,0.86
1,-0.43,0.87
1.09,-0.41,0.89
1.16,-0.38,0.9
1.19,-0.34,0.9
1.19,-0.29,0.89
1.2,-0.24,0.89
1.2,-0.21,0.9
1.18,-0.17,0.9
1.17,-0.15,0.91
1.2,-0.12,0.93
1.22,-0.1,0.96
1.24,-0.1,0.99
1.27,-0.09,1.01
1.3,-0.07,1.02
1.31,-0.05,1.03
1.32,-0.05,1.05
1.32,-0.06,1.06
1.29,-0.07,1.06
1.28,-0.08,1.06
1.29,-0.11,1.05
1.29,-0.11,1.04
1.3,-0.11,1.04
1.32,-0.12,1.03
1.33,-0.14,1.02
1.32,-0.2,1.02
1.31,-0.26,1.01
1.28,-0.32,0.99
1.23,-0.38,0.96
1.17,-0.42,0.93
1.13,-0.46,0.93
1.1,-0.48,0.93
1.08,-0.51,0.94
1.07,-0.56,0.95
1.05,-0.61,0.97
1.03,-0.65,1
0.94,-0.71,1
0.9,-0.75,1.01
0.85,-0.79,1
0.8,-0.81,0.97
0.79,-0.82,0.95
0.8,-0.84,0.95
0.8,-0.85,0.96
0.8,-0.86,0.97
0.79,-0.87,0.98
0.77,-0.88,0.98
0.74,-0.89,0.98
0.72,-0.93,0.96
0.72,-0.93,0.96
0.69,-0.95,0.93
0.68,-0.97,0.92
0.68,-1,0.9
0.68,-1.02,0.89
0.69,-1,0.87
0.7,-0.99,0.86
0.71,-1.02,0.85
0.71,-1.05,0.82
0.69,-1.06,0.79
0.66,-1.11,0.77
0.64,-1.16,0.79
0.63,-1.17,0.81
0.62,-1.15,0.82
0.59,-1.12,0.82
0.59,-1.11,0.81
0.58,-1.1,0.82
0.58,-1.1,0.84
0.56,-1.09,0.87
0.54,-1.08,0.9
0.5,-1.08,0.94
0.43,-1.06,0.96
0.4,-1.03,0.97
0.42,-1.01,0.96
0.44,-1,0.96
0.42,-0.99,0.96
0.37,-0.98,0.98
0.35,-0.96,1.03
0.36,-0.94,1.07
0.36,-0.92,1.11
0.32,-0.91,1.11
0.25,-0.9,1.1
0.19,-0.87,1.08
0.17,-0.85,1.07
0.2,-0.82,1.08
0.21,-0.79,1.11
0.22,-0.76,1.15
0.25,-0.75,1.17
0.28,-0.77,1.2
0.29,-0.78,1.24
0.22,-0.7,1.33
0,-0.66,1.34
-0.08,-0.63,1.32
-0.08,-0.6,1.26
-0.07,-0.55,1.19
-0.09,-0.5,1.13
-0.11,-0.45,1.11
-0.13,-0.42,1.09
-0.14,-0.4,1.06
-0.15,-0.37,1.06
-0.18,-0.33,1.07
-0.16,-0.31,1.06
-0.15,-0.28,1.05
-0.17,-0.27,1.05
-0.16,-0.25,1.03
-0.14,-0.24,1.01
-0.13,-0.26,1
-0.12,-0.29,0.99
-0.12,-0.32,0.98
-0.11,-0.34,0.97
-0.09,-0.37,0.97
-0.07,-0.4,0.97
-0.05,-0.43,1.01
-0.04,-0.47,1.07
-0.04,-0.5,1.12
-0.03,-0.53,1.15
-0.03,-0.57,1.13
-0.09,-0.6,1.07
-0.14,-0.65,1.02
-0.15,-0.69,1.01
-0.13,-0.72,1.02
-0.11,-0.74,1.08
-0.1,-0.76,1.15
-0.11,-0.76,1.2
-0.12,-0.76,1.22
-0.13,-0.76,1.2
-0.15,-0.75,1.18
-0.19,-0.75,1.14
-0.23,-0.76,1.06
-0.28,-0.77,0.97
-0.33,-0.79,0.93
-0.33,-0.82,0.97
-0.28,-0.85,1.04
-0.22,-0.85,1.11
-0.17,-0.83,1.15
-0.16,-0.81,1.17
-0.15,-0.8,1.16
-0.15,-0.79,1.12
-0.14,-0.78,1.08
-0.15,-0.78,1.06
-0.2,-0.78,1.04
-0.23,-0.79,1.03
-0.21,-0.82,1.07
-0.15,-0.85,1.1
-0.13,-0.85,1.13
-0.1,-0.86,1.13
-0.09,-0.87,1.12
-0.09,-0.89,1.1
-0.08,-0.89,1.07
-0.07,-0.9,1.05
-0.07,-0.92,1.03
-0.07,-0.93,1.01
-0.06,-0.94,1
-0.04,-0.97,1
-0.01,-0.99,1.01
0.03,-1.02,1.02
0.08,-1.01,1
0.12,-1.01,0.98
0.14,-1.02,0.96
0.18,-0.99,0.94
0.18,-0.98,0.92
0.19,-0.99,0.91
0.23,-0.98,0.91
0.26,-0.97,0.91
0.29,-0.96,0.91
0.31,-0.95,0.92
0.31,-0.95,0.91
0.3,-0.96,0.89
0.29,-0.96,0.93
0.27,-0.99,0.97
0.28,-1,0.98
0.32,-1.01,0.95
0.35,-1,0.94
0.36,-1,0.94
0.39,-1.02,0.92
0.43,-1,0.89
0.46,-1,0.85
0.56,-0.98,0.79
0.76,-0.95,0.78
0.9,-0.9,0.8
0.91,-0.85,0.81
0.89,-0.83,0.81
0.93,-0.8,0.81
0.99,-0.74,0.8
1.03,-0.69,0.84
1.05,-0.65,0.88
1.05,-0.62,0.89
1.06,-0.6,0.87
1.08,-0.56,0.83
1.13,-0.53,0.78
1.21,-0.49,0.76
1.31,-0.44,0.77
1.39,-0.38,0.8
1.45,-0.33,0.83
1.47,-0.28,0.83
1.45,-0.22,0.82
1.45,-0.21,0.82
1.5,-0.17,0.83
1.56,-0.13,0.84
1.58,-0.11,0.87
1.56,-0.11,0.9
1.51,-0.12,0.93
1.47,-0.15,0.95
1.44,-0.16,0.93
1.44,-0.16,0.92
1.45,-0.17,0.91
1.44,-0.18,0.91
1.42,-0.18,0.91
1.4,-0.2,0.92
1.37,-0.24,0.93
1.36,-0.27,0.94
1.35,-0.29,0.95
1.35,-0.31,0.95
1.32,-0.33,0.94
1.27,-0.37,0.93
1.24,-0.41,0.92
1.21,-0.44,0.91
1.18,-0.49,0.89
1.16,-0.55,0.88
1.13,-0.6,0.88
1.11,-0.63,0.88
1.07,-0.71,0.87
1.03,-0.75,0.86
0.98,-0.81,0.86
0.94,-0.86,0.86
0.91,-0.9,0.87
0.88,-0.95,0.89
0.85,-1.01,0.88
0.84,-1.05,0.88
0.84,-1.09,0.86
0.81,-1.13,0.85
0.79,-1.16,0.85
0.77,-1.18,0.86
0.75,-1.2,0.89
0.74,-1.21,0.92
0.74,-1.24,0.92
0.74,-1.26,0.91
0.71,-1.28,0.91
0.67,-1.31,0.92
0.63,-1.3,0.94
0.61,-1.28,0.98
0.59,-1.29,1.01
0.57,-1.29,1.02
0.55,-1.3,1.03
0.54,-1.29,1.01
0.52,-1.29,1.01
0.51,-1.31,1.01
0.49,-1.33,1.06
0.44,-1.28,1.09
0.39,-1.25,1.12
0.38,-1.21,1.12
0.38,-1.2,1.12
0.36,-1.25,1.12
0.32,-1.31,1.12
0.26,-1.34,1.13
0.22,-1.32,1.14
0.2,-1.32,1.16
0.21,-1.32,1.17
0.22,-1.28,1.17
0.26,-1.24,1.19
0.31,-1.22,1.22
0.29,-1.23,1.22
0.22,-1.21,1.22
0.18,-1.17,1.21
0.14,-1.14,1.18
0.07,-1.09,1.14
0,-1.01,1.11
-0.06,-0.94,1.09
-0.08,-0.93,1.08
-0.07,-0.91,1.09
-0.08,-0.88,1.1
-0.1,-0.87,1.11
-0.14,-0.84,1.08
-0.2,-0.77,1.03
-0.3,-0.73,1.02
-0.33,-0.67,1
-0.37,-0.59,1
-0.39,-0.54,1.02
-0.38,-0.49,1.05
-0.34,-0.44,1.06
-0.3,-0.39,1.05
-0.26,-0.34,1.05
-0.22,-0.31,1.06
-0.18,-0.27,1.05
-0.15,-0.23,1.04
-0.13,-0.2,1.03
-0.11,-0.18,1.02
-0.12,-0.17,1.02
-0.11,-0.18,1.03
-0.09,-0.19,1.05
-0.07,-0.2,1.07
-0.05,-0.22,1.07
-0.02,-0.25,1.05
0,-0.29,1.04
0.03,-0.34,1.04
0.06,-0.38,1.07
0.08,-0.43,1.08
0.11,-0.48,1.08
0.13,-0.52,1.08
0.12,-0.59,1.15
0.07,-0.62,1.18
0.03,-0.64,1.19
-0.01,-0.64,1.2
-0.06,-0.64,1.21
-0.11,-0.64,1.2
-0.14,-0.64,1.18
-0.21,-0.63,1.12
-0.3,-0.64,1.06
-0.37,-0.67,1.07
-0.41,-0.68,1.12
-0.4,-0.68,1.16
-0.39,-0.67,1.18
-0.37,-0.66,1.19
-0.37,-0.65,1.16
-0.37,-0.65,1.12
-0.36,-0.65,1.07
-0.34,-0.65,1.04
-0.33,-0.65,1.03
-0.32,-0.66,1.02
-0.31,-0.67,1.01
-0.3,-0.67,1.01
-0.28,-0.67,1.02
-0.26,-0.68,1.05
-0.24,-0.69,1.06
-0.23,-0.7,1.06
-0.21,-0.7,1.04
-0.18,-0.72,1.01
-0.17,-0.74,0.99
-0.16,-0.74,0.99
-0.15,-0.76,1
-0.12,-0.77,1.02
-0.08,-0.77,1.04
-0.04,-0.77,1.04
-0.01,-0.78,1.05
0,-0.79,1.04
0.01,-0.8,1.04
0.01,-0.81,1.02
0.03,-0.82,0.98
0.06,-0.83,0.96
0.09,-0.82,0.95
0.11,-0.82,0.93
0.14,-0.83,0.93
0.17,-0.85,0.92
0.2,-0.86,0.89
0.22,-0.87,0.87
0.23,-0.89,0.86
0.23,-0.96,0.84
0.27,-1.05,0.84
0.35,-1.1,0.83
0.43,-1.16,0.79
0.51,-1.21,0.8
0.56,-1.25,0.81
0.74,-1.21,0.79
0.79,-1.16,0.79
0.87,-1.13,0.81
0.9,-1.09,0.83
1.01,-0.91,0.8
1.13,-0.84,0.81
1.2,-0.77,0.83
1.23,-0.74,0.86
1.24,-0.7,0.85
1.25,-0.66,0.85
1.26,-0.63,0.87
1.27,-0.6,0.9
1.25,-0.56,0.91
1.22,-0.52,0.9
1.19,-0.49,0.88
1.18,-0.46,0.88
1.18,-0.42,0.92
1.2,-0.37,0.95
1.21,-0.33,0.97
1.23,-0.28,0.96
1.24,-0.25,0.95
1.26,-0.21,0.95
1.28,-0.19,0.96
1.31,-0.18,0.95
1.32,-0.15,0.91
1.31,-0.13,0.87
1.3,-0.12,0.83
1.3,-0.1,0.81
1.33,-0.09,0.81
1.35,-0.08,0.81
1.35,-0.1,0.8
1.33,-0.11,0.79
1.3,-0.13,0.79
1.27,-0.14,0.77
1.26,-0.14,0.75
1.26,-0.15,0.73
1.27,-0.15,0.73
1.33,-0.16,0.72
1.38,-0.18,0.72
1.39,-0.21,0.72
1.37,-0.23,0.72
1.34,-0.25,0.71
1.31,-0.27,0.7
1.28,-0.32,0.67
1.26,-0.36,0.64
1.23,-0.38,0.62
1.2,-0.4,0.62
1.19,-0.42,0.63
1.18,-0.46,0.63
1.15,-0.5,0.61
1.11,-0.6,0.58
1.11,-0.64,0.58
1.09,-0.67,0.6
1.08,-0.71,0.61
1.07,-0.77,0.62
1.06,-0.82,0.64
1.03,-0.86,0.68
1.01,-0.91,0.7
0.98,-0.95,0.69
0.95,-0.98,0.67
0.92,-1,0.66
0.91,-1,0.66
0.89,-0.99,0.66
0.9,-0.99,0.67
0.91,-1,0.69
0.88,-1.04,0.73
0.85,-1.06,0.77
0.83,-1.06,0.81
0.83,-1.05,0.82
0.82,-1.05,0.81
0.81,-1.07,0.8
0.78,-1.09,0.78
0.74,-1.09,0.78
0.72,-1.1,0.8
0.7,-1.17,0.8
0.67,-1.2,0.82
0.64,-1.17,0.93
0.6,-1.2,0.97
0.58,-1.21,1
0.57,-1.2,0.99
0.56,-1.21,0.96
0.53,-1.24,0.95
0.45,-1.27,0.97
0.39,-1.26,1
0.35,-1.24,1.05
0.33,-1.23,1.12
0.31,-1.23,1.2
0.28,-1.23,1.23
0.27,-1.23,1.23
0.25,-1.25,1.2
0.18,-1.25,1.17
0.09,-1.23,1.15
0.04,-1.19,1.16
-0.01,-1.14,1.19
-0.07,-1.08,1.22
-0.1,-1.02,1.21
-0.14,-0.96,1.19
-0.19,-0.93,1.21
-0.22,-0.9,1.23
-0.24,-0.83,1.22
-0.22,-0.74,1.2
-0.24,-0.67,1.18
-0.27,-0.59,1.11
-0.25,-0.57,1.1
-0.22,-0.59,1.13
-0.23,-0.59,1.16
-0.26,-0.53,1.17
-0.28,-0.49,1.16
-0.32,-0.52,1.16
-0.34,-0.5,1.18
-0.31,-0.46,1.18
-0.3,-0.46,1.17
-0.29,-0.45,1.18
-0.27,-0.45,1.16
-0.26,-0.44,1.13
-0.25,-0.45,1.11
-0.24,-0.46,1.09
-0.23,-0.46,1.08
-0.23,-0.48,1.08
-0.23,-0.5,1.1
-0.22,-0.51,1.11
-0.24,-0.51,1.11
-0.26,-0.54,1.11
-0.25,-0.56,1.11
-0.26,-0.58,1.12
-0.26,-0.6,1.13
-0.25,-0.61,1.14
-0.25,-0.62,1.15
-0.25,-0.64,1.15
-0.28,-0.66,1.14
-0.29,-0.68,1.14
-0.3,-0.69,1.13
-0.3,-0.7,1.11
-0.28,-0.71,1.11
-0.26,-0.72,1.09
-0.26,-0.74,1.05
-0.25,-0.77,1.03
-0.24,-0.78,1.04
-0.21,-0.8,1.06
-0.19,-0.81,1.07
-0.18,-0.82,1.09
-0.17,-0.82,1.09
-0.15,-0.83,1.1
-0.13,-0.85,1.1
-0.12,-0.86,1.09
-0.11,-0.87,1.06
-0.1,-0.88,1.01
-0.08,-0.89,0.96
-0.06,-0.9,0.95
-0.04,-0.92,0.98
-0.01,-0.93,1.02
0.01,-0.93,1.04
0.04,-0.91,1.05
0.07,-0.9,1.04
0.08,-0.91,0.97
0.11,-0.89,0.94
0.11,-0.88,0.93
0.14,-0.88,0.94
0.19,-0.87,0.95
0.24,-0.85,0.94
0.26,-0.85,0.92
0.27,-0.84,0.92
0.28,-0.85,0.95
0.29,-0.9,0.98
0.33,-0.93,1
0.37,-0.92,1.02
0.44,-0.92,1.06
0.54,-0.93,1.1
0.59,-0.94,1.11
0.6,-0.94,1.09
0.56,-0.94,1.05
0.51,-0.95,1.01
0.47,-0.94,1
0.46,-0.95,1.03
0.48,-0.98,1.08
0.53,-0.97,1.1
0.57,-0.93,1.07
0.58,-0.88,1.01
0.59,-0.86,0.94
0.61,-0.82,0.88
0.66,-0.8,0.9
0.85,-0.74,0.92
0.84,-0.73,0.88
0.81,-0.66,0.82
0.83,-0.61,0.77
0.92,-0.59,0.78
1.02,-0.58,0.84
1.09,-0.55,0.89
1.13,-0.53,0.89
1.14,-0.49,0.89
1.15,-0.4,0.89
1.18,-0.34,0.96
1.23,-0.29,1.06
1.29,-0.26,1.1
1.3,-0.23,1.09
1.28,-0.21,1.07
1.26,-0.18,1.08
1.29,-0.15,1.12
1.33,-0.13,1.16
1.34,-0.13,1.18
1.32,-0.14,1.18
1.3,-0.12,1.18
1.28,-0.1,1.18
1.27,-0.09,1.16
1.26,-0.1,1.16
1.25,-0.12,1.14
1.22,-0.12,1.08
1.23,-0.12,1.06
1.27,-0.13,1.07
1.26,-0.16,1.07
1.21,-0.18,1.05
1.18,-0.21,1.01
1.16,-0.24,0.99
1.17,-0.25,0.98
1.17,-0.26,0.97
1.16,-0.3,0.95
1.17,-0.36,0.92
1.24,-0.45,0.92
1.34,-0.54,0.93
1.38,-0.6,0.91
1.36,-0.64,0.88
1.34,-0.69,0.88
1.29,-0.77,0.9
1.21,-0.84,0.91
1.15,-0.91,0.9
1.12,-0.97,0.88
1.1,-1.03,0.85
1.09,-1.09,0.82
1.08,-1.15,0.81
1.04,-1.19,0.83
0.98,-1.22,0.82
0.92,-1.24,0.82
0.86,-1.25,0.82
0.81,-1.22,0.78
0.75,-1.2,0.76
0.73,-1.2,0.74
0.7,-1.22,0.75
0.67,-1.21,0.79
0.65,-1.18,0.83
0.65,-1.18,0.84
0.62,-1.2,0.83
0.6,-1.19,0.81
0.6,-1.19,0.79
0.57,-1.23,0.79
0.56,-1.27,0.8
0.55,-1.27,0.82
0.55,-1.27,0.83
0.54,-1.28,0.85
0.5,-1.3,0.86
0.47,-1.3,0.86
0.45,-1.29,0.87
0.42,-1.29,0.88
0.38,-1.33,0.89
0.35,-1.37,0.9
0.31,-1.4,0.93
0.29,-1.43,0.95
0.28,-1.47,0.92
0.31,-1.47,0.9
0.36,-1.44,0.91
0.37,-1.39,0.97
0.31,-1.39,0.99
0.3,-1.39,1.05
0.28,-1.39,1.1
0.21,-1.38,1.12
0.15,-1.32,1.13
0.09,-1.27,1.12
-0.01,-1.25,1.12
-0.1,-1.21,1.13
-0.2,-1.18,1.15
-0.3,-1.12,1.17
-0.34,-1.04,1.2
-0.35,-0.98,1.26
-0.38,-0.92,1.29
-0.42,-0.82,1.27
-0.45,-0.76,1.25
-0.48,-0.7,1.23
-0.47,-0.61,1.21
-0.45,-0.56,1.19
-0.44,-0.54,1.19
-0.39,-0.5,1.2
-0.34,-0.48,1.2
-0.3,-0.46,1.2
-0.26,-0.46,1.19
-0.21,-0.46,1.18
-0.18,-0.47,1.15
-0.17,-0.49,1.07
-0.17,-0.51,1.05
-0.16,-0.54,1.05
-0.14,-0.58,1.06
-0.12,-0.61,1.08
-0.1,-0.65,1.09
-0.09,-0.69,1.09
-0.09,-0.72,1.09
-0.13,-0.75,1.09
-0.17,-0.77,1.09
-0.21,-0.79,1.1
-0.26,-0.82,1.12
-0.29,-0.85,1.14
-0.32,-0.88,1.15
-0.31,-0.9,1.16
-0.28,-0.91,1.14
-0.28,-0.92,1.09
-0.27,-0.94,1.05
-0.25,-0.96,1.04
-0.23,-0.96,1.05
-0.22,-0.96,1.06
-0.23,-0.96,1.07
-0.23,-0.96,1.08
-0.23,-0.96,1.1
-0.21,-0.97,1.12
-0.17,-0.97,1.12
-0.12,-0.98,1.08
-0.1,-0.97,1.04
-0.1,-0.96,1
-0.07,-0.96,1
-0.02,-0.98,1.03
0.02,-0.99,1.07
0.06,-0.99,1.08
0.08,-1,1.06
0.09,-1.02,1.03
0.09,-1.02,1.01
0.11,-1.01,0.99
0.14,-1.01,0.98
0.19,-1.02,0.97
0.23,-1.02,0.97
0.26,-1.04,0.97
0.31,-1.05,0.97
0.37,-1.04,0.96
0.44,-1.02,0.95
0.49,-1,0.93
0.51,-1.01,0.92
0.52,-1.01,0.91
0.53,-1.02,0.89
0.54,-1.06,0.86
0.58,-1.06,0.84
0.64,-1.04,0.84
0.69,-1.05,0.82
0.72,-1.04,0.77
0.65,-1.06,0.76
0.73,-1.05,0.75
0.91,-1,0.72
1.02,-0.97,0.71
1.1,-0.88,0.68
1.2,-0.75,0.61
1.25,-0.65,0.57
1.23,-0.62,0.58
1.26,-0.6,0.62
1.32,-0.57,0.64
1.29,-0.54,0.65
1.28,-0.49,0.66
1.34,-0.42,0.71
1.43,-0.37,0.78
1.46,-0.33,0.82
1.47,-0.3,0.83
1.47,-0.27,0.83
1.48,-0.25,0.84
1.5,-0.22,0.86
1.52,-0.18,0.89
1.53,-0.15,0.9
1.52,-0.13,0.92
1.52,-0.12,0.96
1.5,-0.12,0.98
1.49,-0.13,1.01
1.49,-0.13,1.05
1.49,-0.13,1.05
1.46,-0.14,1.05
1.4,-0.16,1.04
1.36,-0.18,1.04
1.34,-0.2,1.05
1.36,-0.22,1.06
1.38,-0.25,1.06
1.36,-0.28,1.05
1.32,-0.31,1.03
1.27,-0.34,1
1.21,-0.38,0.99
1.18,-0.43,0.99
1.16,-0.48,0.99
1.14,-0.51,0.99
1.14,-0.55,0.99
1.13,-0.6,0.98
1.08,-0.65,0.97
1.01,-0.7,0.96
0.97,-0.72,0.96
0.95,-0.77,0.96
0.92,-0.83,0.96
0.89,-0.88,0.95
0.85,-0.91,0.91
0.82,-0.95,0.87
0.8,-1,0.85
0.79,-1.04,0.84
0.77,-1.06,0.78
0.77,-1.05,0.77
0.77,-1.05,0.77
0.79,-1.09,0.77
0.79,-1.12,0.76
0.76,-1.14,0.77
0.71,-1.13,0.77
0.7,-1.14,0.75
0.72,-1.17,0.73
0.71,-1.2,0.72
0.69,-1.18,0.72
0.69,-1.18,0.72
0.67,-1.19,0.73
0.64,-1.2,0.75
0.61,-1.15,0.77
0.59,-1.1,0.77
0.58,-1.13,0.78
0.56,-1.15,0.78
0.51,-1.13,0.75
0.47,-1.13,0.74
0.44,-1.13,0.77
0.43,-1.12,0.82
0.46,-1.12,0.85
0.45,-1.15,0.87
0.39,-1.15,0.89
0.32,-1.15,0.9
0.31,-1.16,0.96
0.31,-1.17,0.99
0.23,-1.16,1.02
0.16,-1.14,1.05
0.12,-1.13,1.1
0.11,-1.11,1.14
0.1,-1.1,1.18
0.07,-1.06,1.21
0,-1,1.21
-0.07,-0.96,1.22
-0.11,-0.95,1.25
-0.15,-0.94,1.27
-0.18,-0.87,1.28
-0.21,-0.81,1.28
-0.23,-0.75,1.28
-0.21,-0.7,1.3
-0.22,-0.64,1.31
-0.25,-0.59,1.28
-0.25,-0.52,1.24
-0.28,-0.47,1.19
-0.33,-0.43,1.15
-0.35,-0.4,1.11
-0.34,-0.34,1.08
-0.34,-0.3,1.08
-0.32,-0.27,1.07
-0.27,-0.23,1.04
-0.25,-0.21,0.96
-0.14,-0.2,0.93
-0.09,-0.22,0.92
-0.03,-0.23,0.9
0.01,-0.24,0.9
0.05,-0.25,0.91
0.08,-0.25,0.9
0.11,-0.25,0.88
0.13,-0.26,0.87
0.14,-0.28,0.87
0.14,-0.29,0.89
0.14,-0.31,0.91
0.13,-0.33,0.93
0.14,-0.34,0.95
0.14,-0.34,0.96
0.14,-0.35,0.96
0.14,-0.36,0.96
0.15,-0.38,0.98
0.16,-0.41,1.02
0.16,-0.45,1.07
0.16,-0.47,1.08
0.15,-0.48,1.08
0.14,-0.47,1.06
0.14,-0.47,1.05
0.17,-0.46,1.05
0.19,-0.45,1.04
0.2,-0.44,1.03
0.21,-0.4,1.02
0.21,-0.37,0.99
0.21,-0.34,0.96
0.19,-0.3,0.93
0.16,-0.27,0.9
0.14,-0.24,0.86
0.12,-0.2,0.81
0.11,-0.17,0.77
0.12,-0.14,0.72
0.12,-0.13,0.67
0.11,-0.11,0.65
0.11,-0.08,0.64
0.13,-0.05,0.64
0.15,-0.03,0.65
0.17,0,0.65
0.18,0.02,0.64
0.18,0.02,0.62
0.19,0.03,0.58
0.21,0.04,0.56
0.25,0.06,0.55
0.29,0.06,0.53
0.33,0.06,0.51
0.38,0.05,0.5
0.43,0.04,0.5
0.47,0.04,0.49
0.52,0.04,0.48
0.62,0.02,0.48
0.69,0.01,0.46
0.75,0,0.45
0.82,-0.01,0.45
0.89,-0.02,0.43
0.93,-0.03,0.43
0.97,-0.04,0.44
0.98,-0.04,0.44
1,-0.04,0.45
1.04,-0.05,0.48
1.08,-0.07,0.5
1.12,-0.08,0.52
1.15,-0.1,0.53
1.19,-0.12,0.54
1.24,-0.13,0.54
1.3,-0.13,0.55
1.36,-0.16,0.56
1.43,-0.2,0.59
1.5,-0.23,0.64
1.54,-0.25,0.69
1.52,-0.28,0.72
1.49,-0.3,0.74
1.47,-0.3,0.76
1.44,-0.29,0.75
1.36,-0.29,0.71
1.29,-0.25,0.67
1.09,-0.23,0.68
1.07,-0.23,0.63
1.12,-0.19,0.61
1.15,-0.14,0.65
1.15,-0.14,0.7
1.15,-0.16,0.74
1.16,-0.21,0.77
1.16,-0.27,0.79
1.15,-0.32,0.78
1.13,-0.36,0.73
1.09,-0.39,0.67
1.04,-0.41,0.61
1,-0.45,0.55
0.98,-0.48,0.49
0.98,-0.5,0.42
0.97,-0.5,0.38
0.91,-0.5,0.36
0.86,-0.5,0.32
0.81,-0.48,0.29
0.77,-0.46,0.26
0.73,-0.44,0.23
0.71,-0.42,0.21
0.71,-0.4,0.19
0.72,-0.39,0.17
0.73,-0.38,0.16
0.76,-0.39,0.16
0.84,-0.42,0.17
0.87,-0.44,0.18
0.9,-0.47,0.19
0.93,-0.48,0.19
0.96,-0.48,0.19
0.97,-0.48,0.18
0.98,-0.48,0.18
0.97,-0.47,0.19
0.96,-0.46,0.2
0.95,-0.45,0.22
0.94,-0.45,0.26
0.93,-0.45,0.29
0.92,-0.44,0.31
0.91,-0.43,0.32
0.89,-0.42,0.32
0.86,-0.4,0.31
0.83,-0.37,0.31
0.82,-0.33,0.31
0.83,-0.32,0.31
0.84,-0.3,0.31
0.86,-0.28,0.32
0.87,-0.26,0.34
0.86,-0.25,0.35
0.86,-0.25,0.35
0.87,-0.24,0.35
0.86,-0.23,0.35
0.83,-0.2,0.35
0.83,-0.19,0.35
0.8,-0.19,0.36
0.79,-0.19,0.36
0.78,-0.19,0.37
0.78,-0.18,0.36
0.8,-0.17,0.37
0.82,-0.15,0.38
0.84,-0.13,0.39
0.86,-0.13,0.42
0.87,-0.13,0.46
0.89,-0.14,0.5
0.9,-0.14,0.52
0.92,-0.14,0.53
0.93,-0.15,0.53
0.92,-0.15,0.54
0.91,-0.17,0.54
0.9,-0.17,0.55
0.88,-0.16,0.55
0.89,-0.15,0.56
0.91,-0.14,0.59
0.92,-0.15,0.63
0.9,-0.16,0.67
0.86,-0.16,0.68
0.81,-0.15,0.69
0.77,-0.14,0.69
0.74,-0.13,0.66
0.79,-0.13,0.66
0.8,-0.12,0.7
0.79,-0.11,0.78
0.75,-0.09,0.87
0.7,-0.06,0.91
0.65,-0.04,0.9
0.62,-0.02,0.87
0.63,0,0.81
0.66,0.01,0.74
0.7,0.03,0.71
0.72,0.06,0.72
0.65,0.07,0.78
0.56,0.08,0.87
0.51,0.11,0.93
0.46,0.14,0.92
0.42,0.14,0.87
0.43,0.15,0.82
0.45,0.16,0.78
0.46,0.16,0.77
0.47,0.15,0.77
0.51,0.16,0.78
0.56,0.16,0.81
0.59,0.16,0.84
0.59,0.15,0.86
0.58,0.15,0.85
0.58,0.18,0.81
0.53,0.17,0.81
0.5,0.16,0.82
0.51,0.18,0.85
0.54,0.19,0.91
0.56,0.21,0.96
0.57,0.24,0.99
0.55,0.27,1.01
0.5,0.27,1.01
0.43,0.28,0.97
0.35,0.28,0.91
0.29,0.27,0.86
0.26,0.28,0.82
0.25,0.29,0.79
0.25,0.28,0.79
0.25,0.29,0.82
0.26,0.29,0.87
0.26,0.31,0.91
0.24,0.32,0.92
0.23,0.33,0.91
0.23,0.35,0.89
0.24,0.38,0.87
0.24,0.41,0.85
0.23,0.44,0.85
0.2,0.45,0.87
0.16,0.44,0.9
0.14,0.42,0.84
0.17,0.42,0.84
0.2,0.43,0.85
0.23,0.44,0.88
0.24,0.45,0.9
0.23,0.48,0.91
0.2,0.5,0.93
0.17,0.5,0.94
0.2,0.5,0.94
0.23,0.51,0.94
0.25,0.5,0.94
0.25,0.48,0.95
0.23,0.46,0.97
0.2,0.44,0.99
0.19,0.42,1
0.17,0.41,1
0.15,0.4,1
0.14,0.4,0.98
0.14,0.41,0.96
0.14,0.42,0.95
0.13,0.44,0.95
0.12,0.44,0.96
0.12,0.44,0.97
0.12,0.43,0.97
0.14,0.42,0.98
0.15,0.42,0.96
0.16,0.41,0.91
0.24,0.41,0.9
0.28,0.41,0.91
0.28,0.41,0.9
0.26,0.42,0.89
0.26,0.42,0.87
0.26,0.41,0.85
0.27,0.41,0.86
0.27,0.41,0.87
0.27,0.42,0.88
0.25,0.43,0.88
0.23,0.44,0.88
0.22,0.45,0.89
0.22,0.46,0.89
0.24,0.46,0.89
0.24,0.46,0.89
0.24,0.46,0.88
0.23,0.47,0.87
0.22,0.47,0.87
0.21,0.47,0.87
0.21,0.47,0.88
0.21,0.47,0.88
0.22,0.47,0.87
0.23,0.47,0.86
0.23,0.47,0.85
0.22,0.46,0.84
0.22,0.44,0.81
0.26,0.41,0.8
0.3,0.41,0.82
0.32,0.42,0.85
0.34,0.42,0.87
0.34,0.42,0.88
0.34,0.42,0.88
0.33,0.43,0.86
0.32,0.44,0.84
0.31,0.45,0.84
0.3,0.48,0.83
0.29,0.5,0.84
0.29,0.51,0.86
0.29,0.52,0.9
0.29,0.5,0.92
0.29,0.49,0.92
0.28,0.48,0.89
0.28,0.46,0.86
0.29,0.45,0.83
0.28,0.45,0.81
0.26,0.46,0.79
0.25,0.49,0.78
0.27,0.49,0.79
0.28,0.48,0.81
0.29,0.46,0.82
0.3,0.46,0.82
0.3,0.45,0.79
0.28,0.44,0.77
0.27,0.44,0.76
0.26,0.43,0.77
0.27,0.42,0.78
