Acc_x,Acc_y,Acc_z
0.65,-0.66,0.47
0.65,-0.65,0.47
0.65,-0.65,0.46
0.66,-0.64,0.46
0.67,-0.63,0.45
0.7,-0.62,0.45
0.74,-0.6,0.44
0.75,-0.59,0.42
0.76,-0.59,0.41
0.77,-0.58,0.38
0.77,-0.57,0.36
0.78,-0.56,0.35
0.79,-0.55,0.35
0.8,-0.55,0.38
0.8,-0.54,0.41
0.79,-0.51,0.42
0.8,-0.52,0.42
0.8,-0.5,0.42
0.8,-0.49,0.41
0.8,-0.48,0.4
0.8,-0.46,0.39
0.81,-0.46,0.38
0.81,-0.45,0.39
0.8,-0.44,0.4
0.81,-0.44,0.42
0.81,-0.44,0.44
0.8,-0.43,0.45
0.8,-0.41,0.45
0.79,-0.4,0.45
0.78,-0.4,0.46
0.78,-0.4,0.48
0.76,-0.41,0.5
0.79,-0.41,0.52
0.82,-0.41,0.53
0.81,-0.41,0.54
0.8,-0.41,0.55
0.8,-0.41,0.55
0.81,-0.4,0.55
0.81,-0.4,0.57
0.81,-0.41,0.59
0.81,-0.41,0.62
0.85,-0.39,0.68
0.85,-0.37,0.71
0.84,-0.36,0.72
0.83,-0.33,0.71
0.82,-0.31,0.69
0.79,-0.3,0.67
0.75,-0.28,0.65
0.7,-0.27,0.63
0.67,-0.29,0.6
0.67,-0.31,0.58
0.67,-0.32,0.58
0.66,-0.32,0.58
0.63,-0.33,0.58
0.6,-0.33,0.56
0.55,-0.32,0.53
0.51,-0.33,0.49
0.47,-0.34,0.45
0.46,-0.35,0.42
0.46,-0.36,0.4
0.47,-0.36,0.39
0.48,-0.37,0.38
0.51,-0.39,0.37
0.56,-0.4,0.38
0.61,-0.41,0.4
0.64,-0.41,0.42
0.66,-0.43,0.42
0.68,-0.45,0.44
0.69,-0.49,0.47
0.74,-0.54,0.51
0.8,-0.6,0.57
0.85,-0.67,0.63
0.92,-0.75,0.72
1.05,-0.88,0.89
1.23,-1.04,1.16
1.39,-1.15,1.41
1.34,-1.12,1.36
1.07,-0.95,0.96
0.72,-0.71,0.49
0.39,-0.52,0.11
0.1,-0.52,0.1
0.17,-0.61,0.17
0.42,-0.76,0.19
0.53,-0.98,0.4
0.74,-1.16,0.65
1.03,-1.26,0.89
1.19,-1.22,0.98
1.15,-1.18,0.83
1.09,-1.22,0.61
1.04,-1.25,0.43
0.99,-1.34,0.34
0.9,-1.47,0.31
0.79,-1.57,0.35
0.69,-1.69,0.39
0.57,-1.68,0.38
0.49,-1.72,0.34
0.47,-1.76,0.32
0.4,-1.72,0.27
0.36,-1.63,0.2
0.33,-1.56,0.17
0.25,-1.48,0.16
0.19,-1.34,0.13
0.14,-1.21,0.08
0.15,-1.08,0.03
0.24,-0.95,0.02
0.3,-0.83,0.04
0.28,-0.71,0.03
0.29,-0.63,0.04
0.31,-0.56,0.03
0.31,-0.47,0.03
0.29,-0.4,0.05
0.28,-0.29,0.09
0.25,-0.23,0.12
0.22,-0.18,0.13
0.21,-0.13,0.13
0.21,-0.1,0.12
0.21,-0.07,0.11
0.21,-0.04,0.1
0.2,-0.02,0.09
0.16,0,0.08
0.15,0.02,0.07
0.18,-0.02,0.04
0.21,-0.08,0.05
0.23,-0.12,0.08
0.23,-0.17,0.08
0.22,-0.23,0.08
0.2,-0.31,0.09
0.2,-0.39,0.07
0.22,-0.48,0.04
0.24,-0.61,0.02
0.25,-0.75,0.02
0.25,-0.92,0.02
0.26,-1.09,0.01
0.25,-1.24,-0.01
0.25,-1.37,0.01
0.27,-1.44,0.03
0.3,-1.42,0.06
0.32,-1.32,0.09
0.33,-1.22,0.12
0.32,-1.13,0.14
0.31,-1.07,0.13
0.31,-1.02,0.11
0.32,-0.98,0.09
0.34,-0.95,0.08
0.38,-0.93,0.08
0.43,-0.94,0.11
0.51,-0.99,0.12
0.53,-1.02,0.11
0.52,-1.05,0.11
0.5,-1.08,0.1
0.49,-1.09,0.11
0.46,-1.1,0.12
0.44,-1.1,0.12
0.42,-1.09,0.12
0.4,-1.08,0.13
0.38,-1.05,0.13
0.37,-1.03,0.15
0.35,-1.01,0.16
0.33,-1.01,0.18
0.31,-1.01,0.2
0.28,-1.01,0.21
0.25,-1.01,0.21
0.24,-1,0.18
0.24,-0.99,0.16
0.24,-0.99,0.15
0.24,-0.99,0.16
0.24,-1,0.17
0.24,-1.02,0.18
0.24,-1.02,0.18
0.24,-1.03,0.18
0.23,-1.02,0.17
0.23,-1.01,0.16
0.21,-1,0.16
0.21,-1,0.15
0.2,-1,0.14
0.2,-1,0.14
0.2,-1,0.13
0.19,-1,0.14
0.19,-1,0.14
0.19,-0.99,0.14
0.19,-0.99,0.14
0.19,-0.99,0.14
0.2,-0.99,0.13
0.2,-0.99,0.13
0.19,-1,0.12
0.2,-1,0.12
0.21,-1,0.11
0.21,-1,0.11
0.22,-0.99,0.11
0.22,-0.98,0.11
0.22,-0.97,0.1
0.23,-0.96,0.1
0.24,-0.95,0.1
0.25,-0.94,0.1
0.25,-0.92,0.1
0.26,-0.91,0.1
0.27,-0.91,0.1
0.27,-0.91,0.1
0.27,-0.89,0.09
0.25,-0.88,0.08
0.25,-0.87,0.08
0.24,-0.85,0.09
0.24,-0.83,0.09
0.24,-0.8,0.08
0.23,-0.78,0.08
0.21,-0.76,0.08
0.21,-0.74,0.08
0.2,-0.71,0.08
0.2,-0.69,0.07
0.2,-0.65,0.06
0.2,-0.62,0.06
0.19,-0.59,0.06
0.19,-0.57,0.06
0.19,-0.55,0.06
0.18,-0.52,0.06
0.17,-0.48,0.06
0.16,-0.45,0.06
0.16,-0.43,0.06
0.17,-0.43,0.05
0.2,-0.43,0.05
0.23,-0.44,0.04
0.26,-0.44,0.04
0.29,-0.45,0.04
0.3,-0.48,0.06
0.27,-0.51,0.16
0.19,-0.51,0.19
0.18,-0.54,0.18
0.17,-0.59,0.14
0.16,-0.63,0.12
0.17,-0.69,0.11
0.22,-0.76,0.1
0.34,-0.86,0.13
0.47,-0.97,0.24
0.52,-1.08,0.37
0.5,-1.16,0.46
0.43,-1.21,0.48
0.36,-1.23,0.41
0.38,-1.27,0.28
0.47,-1.31,0.24
0.58,-1.35,0.28
0.69,-1.39,0.32
0.76,-1.4,0.37
0.78,-1.43,0.4
0.77,-1.46,0.4
0.75,-1.45,0.4
0.72,-1.42,0.37
0.69,-1.37,0.32
0.69,-1.33,0.27
0.71,-1.29,0.2
0.75,-1.26,0.15
0.77,-1.22,0.16
0.72,-1.15,0.19
0.68,-1.11,0.22
0.65,-1.07,0.25
0.62,-1.03,0.28
0.6,-1.04,0.39
0.62,-1.16,0.48
0.65,-1.19,0.54
0.73,-1.18,0.66
0.87,-1.32,0.82
0.92,-1.38,0.87
0.86,-1.29,0.68
0.85,-1.14,0.39
0.76,-1.05,0.23
0.56,-1.01,0.24
0.6,-0.85,0.25
0.73,-0.62,0.29
0.76,-0.44,0.37
0.72,-0.34,0.46
0.63,-0.22,0.51
0.73,-0.14,0.61
0.91,-0.13,0.7
0.88,-0.15,0.84
0.75,-0.19,0.97
0.66,-0.17,0.89
0.61,-0.16,0.75
0.57,-0.15,0.57
0.58,-0.12,0.52
0.6,-0.13,0.51
0.63,-0.14,0.51
0.69,-0.17,0.52
0.74,-0.2,0.56
0.77,-0.23,0.63
0.8,-0.26,0.7
0.84,-0.28,0.74
0.84,-0.3,0.78
0.83,-0.33,0.81
0.81,-0.34,0.82
0.77,-0.36,0.81
0.74,-0.38,0.78
0.7,-0.39,0.74
0.66,-0.41,0.7
0.63,-0.42,0.67
0.6,-0.44,0.64
0.58,-0.46,0.61
0.57,-0.47,0.59
0.57,-0.49,0.57
0.56,-0.51,0.57
0.57,-0.53,0.57
0.59,-0.53,0.58
0.61,-0.54,0.58
0.64,-0.54,0.58
0.65,-0.54,0.61
0.66,-0.53,0.61
0.67,-0.53,0.62
0.68,-0.52,0.62
0.68,-0.51,0.62
0.68,-0.51,0.62
0.68,-0.5,0.61
0.68,-0.5,0.59
0.67,-0.49,0.57
0.67,-0.47,0.57
0.68,-0.46,0.56
0.7,-0.45,0.56
0.71,-0.44,0.56
0.73,-0.44,0.57
0.76,-0.43,0.57
0.78,-0.44,0.57
0.79,-0.45,0.58
0.79,-0.46,0.58
0.77,-0.46,0.57
0.75,-0.47,0.56
0.74,-0.48,0.56
0.73,-0.48,0.55
0.74,-0.48,0.54
0.74,-0.48,0.54
0.75,-0.47,0.54
0.75,-0.46,0.54
0.75,-0.46,0.52
0.75,-0.43,0.52
0.75,-0.42,0.52
0.74,-0.41,0.52
0.73,-0.39,0.52
0.72,-0.38,0.52
0.72,-0.37,0.52
0.71,-0.36,0.52
0.7,-0.36,0.52
0.69,-0.36,0.51
0.69,-0.36,0.51
0.69,-0.38,0.51
0.69,-0.38,0.5
0.66,-0.37,0.47
0.62,-0.37,0.43
0.61,-0.38,0.42
0.62,-0.42,0.43
0.66,-0.46,0.47
0.71,-0.49,0.51
0.74,-0.52,0.53
0.74,-0.56,0.56
0.74,-0.59,0.58
0.73,-0.61,0.6
0.72,-0.62,0.61
0.7,-0.62,0.61
0.69,-0.62,0.6
0.69,-0.62,0.59
0.67,-0.59,0.57
0.69,-0.58,0.57
0.71,-0.56,0.55
0.7,-0.53,0.51
0.7,-0.5,0.47
0.7,-0.48,0.44
0.67,-0.46,0.42
0.66,-0.45,0.41
0.7,-0.47,0.42
0.76,-0.51,0.46
0.88,-0.58,0.55
1.03,-0.66,0.67
1.12,-0.71,0.78
1.1,-0.7,0.8
0.99,-0.63,0.71
0.84,-0.53,0.55
0.71,-0.45,0.4
0.66,-0.4,0.28
0.72,-0.38,0.18
0.93,-0.4,0.16
1.21,-0.48,0.21
1.32,-0.53,0.27
1.19,-0.56,0.34
1.1,-0.64,0.36
1.05,-0.73,0.32
0.95,-0.83,0.3
0.87,-1,0.19
0.83,-1.06,0.17
0.83,-1.12,0.16
0.82,-1.18,0.14
0.8,-1.25,0.1
0.79,-1.32,0.06
0.78,-1.39,0.04
0.79,-1.49,0.06
0.8,-1.6,0.11
0.79,-1.74,0.16
0.68,-1.86,0.19
0.62,-1.92,0.14
0.59,-1.91,0.11
0.55,-1.85,0.18
0.51,-1.72,0.21
0.48,-1.53,0.2
0.42,-1.37,0.19
0.3,-1.28,0.2
0.2,-1.17,0.22
0.18,-1.05,0.22
0.2,-0.91,0.2
0.23,-0.8,0.17
0.29,-0.71,0.14
0.24,-0.55,0.12
0.2,-0.47,0.09
0.21,-0.44,0.09
0.21,-0.37,0.14
0.22,-0.29,0.15
0.23,-0.27,0.15
0.24,-0.23,0.15
0.25,-0.23,0.15
0.28,-0.23,0.15
0.3,-0.22,0.15
0.28,-0.23,0.13
0.24,-0.22,0.1
0.24,-0.23,0.07
0.23,-0.26,0.04
0.24,-0.27,0.01
0.25,-0.3,-0.01
0.24,-0.36,-0.01
0.24,-0.41,-0.03
0.28,-0.44,-0.06
0.28,-0.5,-0.06
0.25,-0.57,-0.05
0.26,-0.63,-0.06
0.29,-0.7,-0.07
0.31,-0.79,-0.07
0.32,-0.88,-0.06
0.32,-0.98,-0.04
0.32,-1.06,-0.02
0.32,-1.11,0.01
0.33,-1.11,0.04
0.34,-1.09,0.07
0.38,-1.04,0.09
0.39,-1.01,0.09
0.39,-0.99,0.09
0.39,-0.98,0.09
0.39,-0.97,0.1
0.39,-0.98,0.11
0.39,-0.99,0.11
0.39,-1,0.1
0.4,-1,0.1
0.39,-1.01,0.09
0.39,-1.02,0.08
0.39,-1.02,0.08
0.38,-1.02,0.08
0.37,-1.02,0.07
0.36,-1.02,0.07
0.35,-1.01,0.08
0.34,-1,0.09
0.34,-0.99,0.1
0.34,-0.99,0.11
0.34,-0.99,0.12
0.33,-0.98,0.13
0.33,-0.97,0.15
0.33,-0.96,0.16
0.33,-0.95,0.16
0.33,-0.94,0.17
0.33,-0.94,0.19
0.33,-0.93,0.2
0.33,-0.94,0.2
0.33,-0.95,0.21
0.33,-0.95,0.22
0.32,-0.95,0.23
0.31,-0.95,0.24
0.3,-0.95,0.24
0.3,-0.96,0.26
0.29,-0.96,0.27
0.27,-0.96,0.28
0.25,-0.96,0.29
0.24,-0.96,0.31
0.24,-0.97,0.31
0.25,-0.96,0.3
0.27,-0.96,0.28
0.29,-0.96,0.25
0.3,-0.97,0.23
0.31,-0.97,0.22
0.31,-0.98,0.2
0.31,-0.97,0.19
0.31,-0.97,0.17
0.31,-0.97,0.16
0.31,-0.97,0.15
0.3,-0.97,0.14
0.3,-0.97,0.14
0.31,-0.97,0.14
0.31,-0.97,0.13
0.31,-0.97,0.12
0.31,-0.97,0.12
0.32,-0.97,0.11
0.32,-0.96,0.11
0.32,-0.96,0.11
0.32,-0.96,0.11
0.31,-0.96,0.1
0.31,-0.96,0.1
0.31,-0.96,0.1
0.31,-0.96,0.1
0.31,-0.95,0.1
0.3,-0.95,0.1
0.3,-0.94,0.1
0.3,-0.93,0.1
0.3,-0.92,0.11
0.3,-0.92,0.11
0.3,-0.92,0.11
0.29,-0.92,0.1
0.29,-0.92,0.11
0.29,-0.92,0.12
0.28,-0.91,0.13
0.28,-0.91,0.12
0.28,-0.91,0.12
0.28,-0.9,0.12
0.27,-0.89,0.12
0.27,-0.86,0.12
0.26,-0.83,0.12
0.26,-0.81,0.13
0.25,-0.78,0.14
0.25,-0.76,0.14
0.25,-0.73,0.13
0.24,-0.7,0.12
0.23,-0.68,0.11
0.23,-0.66,0.09
0.23,-0.64,0.09
0.23,-0.63,0.08
0.23,-0.62,0.08
0.23,-0.6,0.08
0.22,-0.57,0.08
0.21,-0.55,0.08
0.21,-0.54,0.08
0.21,-0.53,0.07
0.21,-0.52,0.06
0.21,-0.52,0.06
0.22,-0.52,0.06
0.23,-0.53,0.06
0.23,-0.54,0.06
0.24,-0.55,0.06
0.27,-0.57,0.05
0.31,-0.62,0.04
0.36,-0.68,0.03
0.38,-0.78,0.07
0.41,-0.83,0.08
0.41,-0.88,0.11
0.4,-0.92,0.13
0.4,-0.96,0.16
0.39,-1.01,0.18
0.39,-1.06,0.19
0.39,-1.11,0.2
0.39,-1.14,0.21
0.38,-1.16,0.22
0.36,-1.17,0.23
0.36,-1.18,0.24
0.36,-1.17,0.25
0.37,-1.16,0.26
0.39,-1.16,0.26
0.41,-1.16,0.26
0.42,-1.17,0.25
0.44,-1.19,0.26
0.46,-1.21,0.27
0.47,-1.22,0.27
0.48,-1.25,0.27
0.51,-1.26,0.27
0.51,-1.28,0.29
0.5,-1.31,0.39
0.49,-1.35,0.55
0.54,-1.53,0.72
0.62,-1.6,1.06
0.86,-1.56,1.05
0.93,-1.4,0.67
0.75,-1.19,0.28
0.49,-1.04,0.08
0.5,-1.01,0.01
0.68,-1.03,-0.01
0.86,-1.04,-0.01
1.04,-1.04,0.01
1.11,-1.01,0.11
1.02,-0.96,0.25
0.87,-0.88,0.34
0.73,-0.79,0.36
0.72,-0.7,0.34
0.85,-0.57,0.31
0.9,-0.33,0.27
0.88,-0.17,0.27
0.9,-0.18,0.41
0.84,-0.17,0.56
0.77,-0.12,0.64
0.73,-0.09,0.7
0.69,-0.09,0.71
0.66,-0.07,0.72
0.59,-0.05,0.72
0.52,-0.07,0.73
0.51,-0.12,0.75
0.53,-0.16,0.77
0.58,-0.22,0.77
0.62,-0.26,0.78
0.64,-0.29,0.79
0.67,-0.32,0.79
0.7,-0.34,0.79
0.72,-0.35,0.8
0.74,-0.36,0.79
0.75,-0.38,0.78
0.75,-0.38,0.75
0.75,-0.39,0.71
0.75,-0.4,0.67
0.74,-0.42,0.63
0.72,-0.44,0.59
0.71,-0.46,0.57
0.7,-0.48,0.54
0.68,-0.49,0.53
0.68,-0.5,0.52
0.68,-0.51,0.52
0.67,-0.52,0.51
0.67,-0.52,0.52
0.66,-0.53,0.52
0.65,-0.53,0.52
0.65,-0.54,0.53
0.65,-0.54,0.54
0.65,-0.54,0.54
0.65,-0.54,0.55
0.65,-0.53,0.54
0.66,-0.53,0.54
0.66,-0.52,0.53
0.67,-0.51,0.53
0.68,-0.51,0.52
0.69,-0.5,0.53
0.71,-0.49,0.52
0.72,-0.49,0.52
0.73,-0.48,0.52
0.74,-0.47,0.53
0.75,-0.46,0.53
0.76,-0.46,0.53
0.77,-0.45,0.52
0.77,-0.44,0.52
0.77,-0.44,0.52
0.77,-0.43,0.52
0.76,-0.43,0.53
0.76,-0.43,0.53
0.77,-0.42,0.53
0.76,-0.42,0.53
0.77,-0.42,0.52
0.77,-0.42,0.52
0.77,-0.42,0.53
0.78,-0.42,0.52
0.77,-0.43,0.51
0.76,-0.44,0.5
0.75,-0.46,0.5
0.74,-0.46,0.5
0.74,-0.47,0.5
0.73,-0.47,0.5
0.73,-0.48,0.5
0.73,-0.48,0.5
0.73,-0.48,0.5
0.74,-0.49,0.51
0.74,-0.49,0.51
0.74,-0.49,0.51
0.74,-0.49,0.51
0.74,-0.48,0.5
0.74,-0.48,0.51
0.75,-0.48,0.51
0.75,-0.48,0.51
0.75,-0.47,0.51
0.76,-0.47,0.5
0.76,-0.47,0.5
0.78,-0.47,0.49
0.79,-0.47,0.48
0.79,-0.48,0.48
0.78,-0.48,0.49
0.76,-0.49,0.49
0.75,-0.49,0.49
0.73,-0.49,0.5
0.73,-0.49,0.49
0.73,-0.49,0.49
0.74,-0.49,0.49
0.74,-0.49,0.48
0.75,-0.48,0.48
0.75,-0.47,0.48
0.74,-0.46,0.48
0.73,-0.45,0.47
0.74,-0.45,0.46
0.75,-0.44,0.45
0.76,-0.44,0.45
0.77,-0.45,0.45
0.78,-0.45,0.46
0.79,-0.45,0.46
0.8,-0.45,0.47
0.8,-0.45,0.48
0.79,-0.44,0.48
0.76,-0.43,0.48
0.72,-0.42,0.47
0.67,-0.41,0.45
0.67,-0.43,0.44
0.7,-0.48,0.43
0.78,-0.51,0.41
0.86,-0.53,0.39
0.91,-0.53,0.37
0.93,-0.52,0.37
0.94,-0.5,0.36
0.91,-0.43,0.32
0.78,-0.4,0.32
0.73,-0.39,0.32
0.7,-0.4,0.35
0.68,-0.42,0.4
0.72,-0.46,0.47
0.78,-0.55,0.55
0.85,-0.65,0.64
0.94,-0.75,0.73
1.02,-0.83,0.82
1.04,-0.88,0.85
0.98,-0.77,0.71
0.75,-0.65,0.53
0.53,-0.63,0.44
0.54,-0.65,0.41
0.7,-0.69,0.46
0.86,-0.7,0.49
0.93,-0.62,0.44
1,-0.53,0.36
1.11,-0.49,0.32
1.1,-0.47,0.32
1.01,-0.49,0.31
0.97,-0.55,0.31
0.98,-0.65,0.29
0.97,-0.71,0.22
0.92,-0.76,0.12
0.9,-0.81,-0.06
0.9,-0.94,-0.1
0.88,-1.01,-0.12
0.82,-1.05,-0.15
0.74,-1.1,-0.22
0.72,-1.17,-0.27
0.72,-1.2,-0.27
0.68,-1.22,-0.24
0.61,-1.24,-0.17
0.55,-1.26,-0.11
0.54,-1.32,-0.07
0.58,-1.41,-0.03
0.58,-1.5,0.02
0.55,-1.61,0.06
0.5,-1.71,0.05
0.44,-1.77,0.09
0.41,-1.82,0.18
0.42,-1.89,0.21
0.38,-1.85,0.21
0.37,-1.73,0.19
0.37,-1.59,0.16
0.23,-1.32,0.18
0.11,-1.07,0.21
0.07,-0.91,0.2
0.03,-0.74,0.19
-0.1,-0.6,0.22
-0.12,-0.5,0.27
0.03,-0.32,0.35
0.02,-0.29,0.41
0.04,-0.27,0.48
0.1,-0.26,0.48
0.15,-0.27,0.37
0.12,-0.25,0.26
0.13,-0.26,0.17
0.19,-0.3,0.09
0.22,-0.34,0.06
0.18,-0.35,0.08
0.12,-0.38,0.06
0.08,-0.42,0.03
0.05,-0.48,0.02
0.02,-0.52,0.02
0.02,-0.58,-0.01
0.02,-0.64,-0.01
0.02,-0.69,-0.01
0.05,-0.75,-0.04
0.09,-0.82,-0.09
0.15,-0.87,-0.14
0.19,-0.92,-0.17
0.22,-0.97,-0.19
0.26,-1,-0.19
0.29,-1.01,-0.19
0.31,-1.02,-0.17
0.31,-1.02,-0.11
0.29,-0.95,-0.08
0.27,-0.93,-0.05
0.27,-0.9,-0.04
0.27,-0.87,-0.02
0.24,-0.85,0
0.23,-0.84,0.03
0.24,-0.84,0.05
0.24,-0.84,0.08
0.25,-0.85,0.1
0.25,-0.86,0.12
0.26,-0.86,0.14
0.28,-0.88,0.14
0.3,-0.9,0.14
0.32,-0.93,0.14
0.36,-0.94,0.14
0.38,-0.96,0.13
0.4,-0.97,0.13
0.43,-0.98,0.13
0.47,-1,0.11
0.48,-1,0.13
0.48,-1.01,0.14
0.5,-1.01,0.16
0.5,-1.01,0.16
0.48,-1.03,0.17
0.48,-1.04,0.18
0.5,-1.04,0.2
0.47,-1.05,0.23
0.44,-1.04,0.26
0.42,-1.03,0.31
0.37,-1.03,0.36
0.34,-1.02,0.39
0.36,-1.02,0.39
0.41,-1.01,0.36
0.43,-1.01,0.34
0.43,-1.01,0.31
0.43,-1.01,0.28
0.41,-1,0.25
0.4,-1,0.24
0.38,-1.01,0.22
0.36,-1.01,0.2
0.34,-1.01,0.19
0.32,-1.01,0.17
0.3,-1.01,0.16
0.28,-1.01,0.15
0.26,-1,0.15
0.24,-1,0.15
0.22,-1,0.15
0.21,-1,0.14
0.22,-0.99,0.14
0.23,-0.99,0.14
0.22,-0.99,0.13
0.22,-0.99,0.13
0.24,-0.99,0.11
0.25,-0.98,0.11
0.25,-0.97,0.1
0.26,-0.97,0.09
0.26,-0.98,0.08
0.26,-0.97,0.06
0.27,-0.96,0.06
0.26,-0.96,0.06
0.27,-0.95,0.06
0.3,-0.95,0.05
0.3,-0.95,0.06
0.29,-0.95,0.07
0.29,-0.96,0.07
0.32,-0.96,0.07
0.26,-0.96,0.08
0.23,-0.95,0.09
0.3,-0.96,0.08
0.3,-0.96,0.08
0.28,-0.95,0.08
0.26,-0.94,0.08
0.26,-0.94,0.09
0.26,-0.95,0.1
0.27,-0.95,0.11
0.26,-0.94,0.11
0.25,-0.94,0.12
0.26,-0.94,0.12
0.26,-0.95,0.13
0.25,-0.94,0.15
0.25,-0.94,0.14
0.27,-0.94,0.14
0.27,-0.94,0.14
0.27,-0.94,0.14
0.27,-0.94,0.15
0.28,-0.93,0.15
0.28,-0.93,0.16
0.29,-0.93,0.15
0.3,-0.93,0.15
0.32,-0.94,0.15
0.31,-0.94,0.15
0.29,-0.94,0.15
0.27,-0.94,0.15
0.26,-0.92,0.13
0.26,-0.92,0.12
0.27,-0.9,0.12
0.28,-0.88,0.12
0.26,-0.86,0.13
0.25,-0.85,0.14
0.26,-0.83,0.15
0.26,-0.82,0.15
0.26,-0.81,0.14
0.26,-0.79,0.12
0.26,-0.77,0.11
0.25,-0.74,0.11
0.25,-0.69,0.1
0.25,-0.67,0.11
0.24,-0.66,0.11
0.25,-0.66,0.1
0.25,-0.67,0.09
0.25,-0.67,0.09
0.24,-0.68,0.09
0.24,-0.68,0.08
0.25,-0.68,0.08
0.25,-0.68,0.09
0.24,-0.67,0.1
0.23,-0.67,0.12
0.22,-0.66,0.12
0.2,-0.66,0.1
0.19,-0.67,0.08
0.2,-0.68,0.07
0.22,-0.69,0.08
0.26,-0.7,0.1
0.3,-0.72,0.11
0.31,-0.75,0.14
0.31,-0.77,0.17
0.33,-0.8,0.2
0.38,-0.85,0.18
0.47,-0.92,0.14
0.52,-0.98,0.12
0.54,-1.02,0.16
0.62,-1.07,0.14
0.67,-1.08,0.1
0.68,-1.12,0.1
0.69,-1.17,0.07
0.71,-1.2,0.06
0.69,-1.19,0.1
0.67,-1.16,0.12
0.66,-1.11,0.14
0.63,-1.06,0.15
0.57,-1.02,0.16
0.52,-0.97,0.18
0.51,-0.94,0.19
0.53,-0.9,0.17
0.57,-0.88,0.17
0.59,-0.89,0.19
0.59,-0.91,0.21
0.59,-0.92,0.25
0.6,-0.95,0.32
0.62,-0.99,0.38
0.64,-1.02,0.41
0.67,-1.05,0.42
0.67,-1.07,0.41
0.68,-1.09,0.41
0.65,-1.12,0.43
0.63,-1.13,0.43
0.66,-1.08,0.42
0.62,-1.06,0.46
0.62,-1.06,0.48
0.68,-1.08,0.47
0.86,-1.14,0.55
1.25,-1.21,0.79
1.46,-1.23,1
1.22,-1.14,0.99
0.87,-1.02,0.77
0.67,-0.98,0.61
0.56,-0.91,0.62
0.53,-0.77,0.64
0.57,-0.59,0.63
0.63,-0.43,0.57
0.58,-0.34,0.55
0.5,-0.23,0.53
0.52,-0.14,0.47
0.53,-0.1,0.47
0.5,-0.09,0.48
0.49,-0.1,0.5
0.46,-0.08,0.55
0.43,-0.09,0.6
0.42,-0.12,0.65
0.46,-0.14,0.7
0.54,-0.17,0.76
0.64,-0.2,0.82
0.73,-0.2,0.87
0.86,-0.28,0.89
0.86,-0.3,0.85
0.84,-0.32,0.81
0.81,-0.34,0.75
0.78,-0.36,0.71
0.75,-0.37,0.69
0.72,-0.37,0.67
0.7,-0.38,0.67
0.68,-0.39,0.66
0.66,-0.38,0.65
0.65,-0.38,0.64
0.65,-0.38,0.64
0.65,-0.39,0.64
0.66,-0.39,0.64
0.67,-0.39,0.64
0.67,-0.4,0.64
0.67,-0.4,0.65
0.67,-0.4,0.65
0.67,-0.41,0.65
0.67,-0.41,0.66
0.66,-0.41,0.66
0.66,-0.41,0.65
0.66,-0.42,0.63
0.67,-0.42,0.61
0.69,-0.43,0.58
0.7,-0.44,0.55
0.72,-0.46,0.52
0.75,-0.47,0.5
0.76,-0.46,0.49
0.78,-0.46,0.48
0.78,-0.46,0.48
0.79,-0.46,0.47
0.78,-0.46,0.48
0.77,-0.46,0.5
0.76,-0.46,0.51
0.74,-0.45,0.53
0.72,-0.45,0.54
0.71,-0.45,0.55
0.7,-0.45,0.55
0.69,-0.45,0.56
0.68,-0.45,0.56
0.68,-0.46,0.56
0.68,-0.46,0.56
0.69,-0.47,0.56
0.7,-0.47,0.55
0.71,-0.48,0.55
0.71,-0.48,0.54
0.72,-0.48,0.54
0.73,-0.48,0.54
0.73,-0.48,0.54
0.73,-0.48,0.54
0.73,-0.48,0.53
0.72,-0.47,0.53
0.72,-0.46,0.53
0.73,-0.46,0.53
0.73,-0.46,0.53
0.74,-0.46,0.53
0.74,-0.46,0.54
0.75,-0.45,0.53
0.75,-0.45,0.53
0.75,-0.45,0.53
0.74,-0.45,0.53
0.72,-0.45,0.52
0.7,-0.46,0.52
0.7,-0.47,0.51
0.69,-0.46,0.49
0.7,-0.46,0.48
0.7,-0.45,0.46
0.7,-0.44,0.46
0.72,-0.44,0.47
0.73,-0.43,0.5
0.73,-0.44,0.51
0.75,-0.45,0.52
0.76,-0.46,0.54
0.77,-0.47,0.54
0.79,-0.49,0.53
0.82,-0.49,0.51
0.79,-0.49,0.49
0.73,-0.44,0.46
0.73,-0.45,0.46
0.75,-0.43,0.45
0.74,-0.42,0.43
0.79,-0.43,0.42
0.89,-0.47,0.43
0.99,-0.53,0.44
1.08,-0.59,0.47
1.12,-0.62,0.5
1.09,-0.63,0.51
0.99,-0.59,0.45
0.84,-0.52,0.36
0.77,-0.51,0.29
0.81,-0.56,0.28
0.9,-0.62,0.28
1.03,-0.7,0.31
1.09,-0.69,0.34
1.04,-0.59,0.3
1,-0.5,0.25
1.01,-0.46,0.24
1.01,-0.48,0.29
1.02,-0.53,0.32
1,-0.58,0.3
0.98,-0.67,0.28
0.95,-0.77,0.26
0.92,-0.86,0.23
0.91,-0.95,0.15
0.83,-1.19,0.11
0.77,-1.3,0.07
0.7,-1.42,0.04
0.69,-1.56,0.01
0.71,-1.64,0.01
0.73,-1.68,0.01
0.73,-1.74,-0.05
0.68,-1.71,-0.09
0.61,-1.69,-0.09
0.58,-1.73,-0.18
0.51,-1.71,-0.22
0.44,-1.62,-0.14
0.47,-1.53,-0.03
0.47,-1.43,0.08
0.47,-1.33,0.13
0.5,-1.19,0.16
0.51,-1.08,0.25
0.43,-0.97,0.27
0.34,-0.93,0.09
0.23,-0.87,0.01
0.13,-0.72,0.01
0.14,-0.64,-0.04
0.15,-0.6,-0.06
0.15,-0.56,-0.05
0.14,-0.52,-0.04
0.14,-0.5,-0.02
0.16,-0.41,-0.01
0.17,-0.39,0.01
0.18,-0.38,0.02
0.19,-0.35,0.02
0.2,-0.35,0.02
0.18,-0.36,0.02
0.14,-0.39,0.04
0.09,-0.41,0.03
0.1,-0.42,-0.02
0.11,-0.43,-0.05
0.09,-0.44,-0.05
0.04,-0.44,-0.03
-0.01,-0.44,0.01
0.01,-0.47,0.03
0.05,-0.51,0.04
0.09,-0.56,0.03
0.13,-0.64,0.02
0.16,-0.71,0.02
0.19,-0.78,0
0.22,-0.85,0
0.25,-0.93,0.01
0.29,-1.01,0.01
0.33,-1.06,0.02
0.34,-1.1,0.03
0.33,-1.11,0.04
0.32,-1.1,0.06
0.32,-1.03,0.06
0.33,-1,0.06
0.33,-0.97,0.06
0.34,-0.93,0.06
0.35,-0.92,0.06
0.36,-0.93,0.07
0.36,-0.96,0.08
0.36,-0.97,0.08
0.36,-0.97,0.07
0.37,-0.98,0.07
0.36,-0.98,0.07
0.34,-0.99,0.08
0.32,-0.98,0.1
0.31,-0.98,0.11
0.3,-1,0.13
0.31,-1,0.14
0.32,-1,0.14
0.33,-0.98,0.15
0.32,-0.97,0.16
0.32,-0.96,0.16
0.31,-0.95,0.16
0.3,-0.95,0.17
0.3,-0.96,0.17
0.29,-0.97,0.17
0.29,-0.98,0.18
0.27,-0.98,0.19
0.26,-1.01,0.2
0.25,-1.01,0.19
0.24,-1,0.19
0.23,-1,0.19
0.23,-1.01,0.19
0.23,-1.01,0.19
0.22,-1,0.19
0.22,-0.99,0.19
0.22,-0.98,0.19
0.22,-0.97,0.18
0.22,-0.97,0.17
0.22,-0.96,0.17
0.22,-0.96,0.17
0.22,-0.97,0.17
0.22,-0.97,0.16
0.22,-0.98,0.16
0.22,-0.98,0.15
0.23,-0.98,0.14
0.23,-0.99,0.14
0.23,-0.99,0.14
0.22,-0.99,0.13
0.23,-1,0.12
0.23,-1,0.11
0.23,-0.99,0.11
0.23,-0.98,0.11
0.22,-0.98,0.12
0.22,-0.97,0.12
0.22,-0.97,0.12
0.23,-0.97,0.11
0.23,-0.97,0.1
0.24,-0.97,0.1
0.24,-0.98,0.1
0.24,-0.98,0.1
0.24,-0.98,0.1
0.24,-0.98,0.1
0.24,-0.98,0.1
0.24,-0.98,0.1
0.25,-0.98,0.11
0.25,-0.98,0.11
0.25,-0.98,0.11
0.26,-0.98,0.11
0.26,-0.98,0.11
0.27,-0.98,0.11
0.27,-0.99,0.11
0.26,-0.99,0.12
0.26,-1,0.13
0.26,-1,0.13
0.26,-1,0.14
0.25,-1,0.13
0.23,-1,0.13
0.22,-1,0.14
0.21,-1.01,0.14
0.2,-1.02,0.17
0.18,-1.05,0.17
0.17,-1.04,0.16
0.16,-1.02,0.16
0.17,-1.01,0.16
0.17,-0.99,0.16
0.17,-0.97,0.16
0.16,-0.95,0.16
0.14,-0.93,0.16
0.15,-0.92,0.15
0.15,-0.91,0.14
0.15,-0.91,0.14
0.16,-0.9,0.14
0.16,-0.89,0.14
0.17,-0.88,0.14
0.18,-0.87,0.14
0.2,-0.85,0.14
0.21,-0.83,0.13
0.21,-0.81,0.13
0.19,-0.81,0.13
0.18,-0.81,0.12
0.18,-0.8,0.11
0.17,-0.8,0.12
0.16,-0.79,0.13
0.18,-0.77,0.14
0.19,-0.74,0.14
0.19,-0.71,0.13
0.2,-0.66,0.11
0.19,-0.64,0.12
0.21,-0.62,0.11
0.21,-0.63,0.1
0.19,-0.63,0.1
0.18,-0.62,0.08
0.17,-0.63,0.09
0.19,-0.66,0.09
0.24,-0.7,0.1
0.29,-0.73,0.11
0.32,-0.76,0.12
0.32,-0.77,0.13
0.32,-0.77,0.13
0.3,-0.78,0.13
0.3,-0.79,0.13
0.34,-0.8,0.13
0.39,-0.81,0.14
0.41,-0.82,0.14
0.41,-0.83,0.16
0.42,-0.83,0.17
0.39,-0.83,0.17
0.36,-0.83,0.17
0.35,-0.85,0.17
0.4,-0.88,0.16
0.47,-0.92,0.16
0.53,-0.96,0.17
0.55,-1.02,0.17
0.55,-1.05,0.17
0.54,-1.07,0.16
0.56,-1.1,0.13
0.6,-1.14,0.11
0.66,-1.17,0.1
0.7,-1.21,0.11
0.71,-1.24,0.12
0.69,-1.24,0.13
0.67,-1.21,0.14
0.66,-1.18,0.15
0.64,-1.15,0.14
0.64,-1.14,0.13
0.68,-1.14,0.13
0.73,-1.16,0.12
0.76,-1.16,0.12
0.78,-1.14,0.13
0.77,-1.11,0.14
0.74,-1.06,0.16
0.71,-1.01,0.18
0.69,-0.97,0.21
0.7,-0.92,0.23
0.72,-0.9,0.25
0.75,-0.9,0.25
0.78,-0.9,0.22
0.81,-0.88,0.19
0.85,-0.93,0.15
0.89,-0.94,0.17
0.84,-0.9,0.21
0.81,-0.8,0.22
0.83,-0.65,0.26
0.85,-0.53,0.38
0.87,-0.45,0.61
0.86,-0.37,0.87
0.79,-0.35,0.99
0.75,-0.36,0.98
0.73,-0.37,0.94
0.71,-0.41,0.94
0.7,-0.44,0.9
0.72,-0.42,0.79
0.74,-0.37,0.68
0.72,-0.33,0.61
0.7,-0.3,0.57
0.72,-0.3,0.55
0.73,-0.32,0.54
0.73,-0.34,0.56
0.73,-0.37,0.59
0.75,-0.4,0.62
0.77,-0.41,0.64
0.78,-0.42,0.66
0.78,-0.43,0.68
0.78,-0.44,0.68
0.78,-0.45,0.63
0.73,-0.46,0.6
0.7,-0.47,0.56
0.68,-0.46,0.54
0.66,-0.46,0.53
0.65,-0.45,0.51
0.65,-0.45,0.5
0.65,-0.45,0.51
0.64,-0.45,0.51
0.64,-0.44,0.51
0.65,-0.44,0.52
0.65,-0.44,0.54
0.66,-0.44,0.57
0.66,-0.44,0.59
0.67,-0.43,0.62
0.67,-0.43,0.65
0.67,-0.44,0.66
0.67,-0.44,0.66
0.68,-0.45,0.65
0.68,-0.45,0.64
0.7,-0.45,0.61
0.71,-0.45,0.58
0.72,-0.45,0.55
0.73,-0.46,0.54
0.75,-0.47,0.53
0.78,-0.49,0.53
0.78,-0.5,0.52
0.76,-0.49,0.52
0.74,-0.49,0.52
0.72,-0.48,0.52
0.71,-0.47,0.53
0.69,-0.46,0.53
0.69,-0.45,0.53
0.69,-0.44,0.53
0.7,-0.44,0.53
0.71,-0.44,0.53
0.72,-0.44,0.53
0.73,-0.44,0.53
0.74,-0.45,0.53
0.75,-0.45,0.53
0.75,-0.45,0.54
0.75,-0.46,0.53
0.75,-0.46,0.53
0.75,-0.46,0.53
0.75,-0.47,0.53
0.74,-0.47,0.53
0.73,-0.48,0.53
0.72,-0.48,0.52
0.72,-0.49,0.53
0.72,-0.5,0.53
0.73,-0.5,0.53
0.73,-0.51,0.53
0.73,-0.52,0.53
0.71,-0.5,0.52
0.7,-0.49,0.52
0.7,-0.48,0.51
0.71,-0.48,0.51
0.73,-0.48,0.51
0.73,-0.49,0.51
0.74,-0.49,0.5
0.75,-0.49,0.49
0.75,-0.5,0.47
0.76,-0.51,0.45
0.77,-0.5,0.44
0.77,-0.5,0.43
0.77,-0.51,0.42
0.77,-0.51,0.43
0.75,-0.5,0.43
0.74,-0.49,0.43
0.74,-0.47,0.44
0.74,-0.47,0.43
0.73,-0.48,0.42
0.72,-0.47,0.42
0.72,-0.47,0.43
0.71,-0.48,0.43
0.7,-0.48,0.42
0.69,-0.48,0.42
0.69,-0.49,0.41
0.71,-0.51,0.41
0.85,-0.6,0.44
0.91,-0.68,0.48
0.96,-0.74,0.53
0.99,-0.8,0.55
0.99,-0.81,0.54
1,-0.77,0.48
1,-0.7,0.4
0.93,-0.6,0.28
0.86,-0.48,0.18
0.89,-0.43,0.17
1,-0.48,0.22
1.14,-0.55,0.28
1.19,-0.59,0.34
1.16,-0.58,0.34
1.07,-0.56,0.29
0.98,-0.56,0.22
0.96,-0.62,0.18
0.96,-0.72,0.16
0.96,-0.8,0.14
0.93,-0.85,0.09
0.9,-0.86,0.04
0.86,-0.89,-0.01
0.83,-0.93,-0.05
0.81,-0.98,-0.07
0.78,-1.03,-0.1
0.75,-1.09,-0.13
0.71,-1.15,-0.17
0.61,-1.2,-0.15
0.59,-1.26,-0.11
0.6,-1.37,-0.06
0.68,-1.47,-0.01
0.76,-1.59,0.05
0.79,-1.73,0.07
0.72,-1.85,0.05
0.5,-1.83,0.03
0.27,-1.73,0.02
0.07,-1.66,0.01
-0.07,-1.59,0
-0.06,-1.48,-0.01
-0.23,-1.4,-0.06
-0.42,-1.28,-0.06
-0.28,-1.12,-0.11
-0.04,-0.99,-0.19
0.17,-0.83,-0.13
0.23,-0.7,-0.11
0.22,-0.62,-0.12
0.21,-0.57,-0.1
0.2,-0.52,-0.1
0.2,-0.47,-0.09
0.2,-0.43,-0.08
0.2,-0.39,-0.04
0.16,-0.38,0.03
0.14,-0.38,0.07
0.23,-0.37,0.06
0.17,-0.35,0.09
0.1,-0.35,0.1
0.09,-0.35,0.09
0.11,-0.37,0.07
0.12,-0.39,0.05
0.14,-0.41,0.03
0.15,-0.45,0.03
0.18,-0.48,0.03
0.2,-0.52,0.03
0.2,-0.57,0.02
0.2,-0.62,0.02
0.21,-0.66,0.01
0.24,-0.72,0.01
0.25,-0.77,0.02
0.24,-0.83,0.03
0.22,-0.9,0.06
0.23,-0.97,0.07
0.25,-1.02,0.08
0.26,-1.07,0.09
0.26,-1.1,0.09
0.24,-1.1,0.09
0.24,-1.09,0.09
0.26,-1.09,0.08
0.27,-1.08,0.07
0.28,-1.05,0.1
0.26,-0.98,0.12
0.27,-0.95,0.13
0.28,-0.94,0.12
0.28,-0.92,0.14
0.28,-0.9,0.15
0.27,-0.89,0.14
0.28,-0.9,0.12
0.28,-0.9,0.12
0.27,-0.91,0.13
0.27,-0.92,0.13
0.27,-0.93,0.13
0.27,-0.96,0.14
0.27,-0.97,0.14
0.28,-0.97,0.15
0.28,-0.98,0.16
0.29,-0.98,0.17
0.29,-0.98,0.17
0.29,-0.99,0.17
0.3,-0.99,0.18
0.31,-0.99,0.17
0.31,-0.99,0.17
0.32,-0.98,0.16
0.3,-0.98,0.17
0.29,-0.99,0.19
0.29,-0.99,0.2
0.3,-0.99,0.2
0.27,-0.99,0.21
0.26,-1,0.18
0.26,-0.99,0.18
0.25,-1,0.21
0.24,-1,0.22
0.24,-1,0.22
0.23,-1,0.21
0.23,-1,0.21
0.23,-0.99,0.21
0.22,-0.99,0.2
0.21,-0.99,0.2
0.2,-1,0.19
0.2,-1,0.19
0.2,-1,0.19
0.2,-1,0.19
0.19,-0.99,0.19
0.18,-0.99,0.18
0.19,-0.98,0.17
0.19,-0.98,0.16
0.18,-0.97,0.16
0.18,-0.98,0.16
0.19,-0.98,0.17
0.19,-0.99,0.16
0.19,-0.99,0.15
0.18,-0.99,0.15
0.18,-0.99,0.15
0.18,-1,0.15
0.17,-1,0.14
0.18,-1.01,0.14
0.18,-1,0.14
0.18,-1,0.14
0.19,-1,0.14
0.19,-0.99,0.13
0.19,-0.99,0.13
0.2,-0.99,0.12
0.2,-0.99,0.13
0.2,-0.98,0.13
0.2,-0.98,0.13
0.2,-0.99,0.13
0.2,-1,0.13
0.2,-1,0.14
0.2,-1,0.13
0.2,-0.99,0.13
0.21,-0.99,0.12
0.22,-0.99,0.13
0.22,-0.99,0.13
0.22,-0.99,0.13
0.22,-1,0.14
0.22,-1,0.14
0.22,-0.99,0.14
0.23,-0.99,0.14
0.23,-0.98,0.13
0.25,-0.99,0.13
0.25,-0.99,0.13
0.25,-0.98,0.13
0.25,-0.97,0.13
0.25,-0.97,0.13
0.25,-0.95,0.13
0.26,-0.94,0.12
0.26,-0.94,0.13
0.27,-0.93,0.13
0.27,-0.93,0.13
0.28,-0.92,0.13
0.28,-0.92,0.12
0.28,-0.94,0.12
0.29,-0.94,0.12
0.29,-0.93,0.12
0.28,-0.93,0.12
0.27,-0.92,0.12
0.27,-0.91,0.13
0.27,-0.89,0.13
0.27,-0.88,0.13
0.27,-0.87,0.13
0.26,-0.86,0.12
0.26,-0.82,0.12
0.26,-0.79,0.11
0.25,-0.77,0.11
0.25,-0.75,0.1
0.25,-0.7,0.06
0.26,-0.69,0.05
0.25,-0.68,0.03
0.24,-0.67,0.02
0.24,-0.68,0.02
0.24,-0.69,0.03
0.24,-0.69,0.04
0.22,-0.68,0.04
0.16,-0.65,0.03
0.13,-0.62,0.01
0.16,-0.61,-0.01
0.23,-0.61,-0.01
0.28,-0.62,-0.01
0.29,-0.62,-0.01
0.26,-0.62,-0.03
0.23,-0.64,-0.04
0.25,-0.67,-0.02
0.28,-0.7,0.02
0.29,-0.75,0.09
0.24,-0.78,0.16
0.2,-0.8,0.2
0.18,-0.82,0.18
0.24,-0.84,0.15
0.32,-0.86,0.11
0.38,-0.89,0.09
0.39,-0.92,0.11
0.36,-1,0.25
0.34,-1.03,0.29
0.32,-1.05,0.3
0.3,-1.05,0.27
0.34,-1.07,0.25
0.43,-1.09,0.22
0.51,-1.09,0.2
0.54,-1.1,0.2
0.53,-1.11,0.24
0.52,-1.12,0.28
0.51,-1.13,0.31
0.48,-1.13,0.32
0.48,-1.13,0.31
0.51,-1.14,0.28
0.57,-1.15,0.28
0.62,-1.16,0.31
0.71,-1.23,0.36
0.87,-1.45,0.5
0.94,-1.59,0.71
0.88,-1.51,0.82
0.78,-1.31,0.8
0.7,-1.07,0.64
0.68,-0.93,0.45
0.71,-0.91,0.34
0.7,-0.87,0.28
0.68,-0.8,0.24
0.68,-0.76,0.24
0.74,-0.72,0.34
0.79,-0.73,0.49
0.85,-0.7,0.62
0.9,-0.67,0.72
0.89,-0.66,0.82
0.84,-0.65,0.88
0.79,-0.63,0.86
0.76,-0.59,0.7
0.76,-0.49,0.57
0.69,-0.45,0.58
0.62,-0.44,0.61
0.6,-0.33,0.64
0.58,-0.29,0.71
0.58,-0.31,0.76
0.55,-0.35,0.78
0.53,-0.36,0.77
0.54,-0.35,0.73
0.56,-0.34,0.69
0.57,-0.34,0.64
0.58,-0.35,0.62
0.57,-0.35,0.64
0.56,-0.36,0.67
0.56,-0.39,0.72
0.55,-0.41,0.78
0.55,-0.43,0.82
0.57,-0.43,0.79
0.64,-0.47,0.75
0.66,-0.48,0.7
0.67,-0.48,0.65
0.68,-0.5,0.61
0.68,-0.53,0.57
0.68,-0.55,0.55
0.69,-0.58,0.54
0.7,-0.59,0.53
0.69,-0.59,0.52
0.69,-0.59,0.51
0.66,-0.62,0.5
0.64,-0.62,0.49
0.62,-0.61,0.5
0.59,-0.6,0.51
0.57,-0.6,0.52
0.56,-0.6,0.52
0.55,-0.59,0.53
0.55,-0.59,0.54
0.56,-0.58,0.56
0.56,-0.59,0.57
0.56,-0.59,0.59
0.55,-0.59,0.6
0.55,-0.59,0.61
0.55,-0.59,0.62
0.55,-0.59,0.63
0.56,-0.58,0.64
0.6,-0.56,0.63
0.61,-0.55,0.63
0.62,-0.55,0.62
0.62,-0.54,0.61
0.62,-0.54,0.61
0.62,-0.54,0.6
0.61,-0.54,0.6
0.6,-0.55,0.59
0.59,-0.55,0.58
0.6,-0.55,0.58
0.61,-0.56,0.58
0.61,-0.56,0.58
0.62,-0.56,0.58
0.63,-0.56,0.59
0.63,-0.55,0.59
0.63,-0.55,0.59
0.63,-0.54,0.58
0.63,-0.54,0.58
0.63,-0.54,0.58
0.63,-0.53,0.59
0.63,-0.52,0.59
0.64,-0.51,0.59
0.63,-0.51,0.58
0.63,-0.5,0.59
0.63,-0.5,0.6
0.65,-0.51,0.59
0.67,-0.51,0.58
0.67,-0.51,0.57
0.68,-0.51,0.56
0.68,-0.51,0.55
0.68,-0.5,0.54
0.67,-0.49,0.55
0.67,-0.49,0.53
0.7,-0.5,0.51
0.71,-0.5,0.5
0.7,-0.51,0.49
0.71,-0.52,0.48
0.71,-0.52,0.48
0.7,-0.52,0.49
0.69,-0.51,0.49
0.67,-0.51,0.5
0.66,-0.5,0.49
0.64,-0.48,0.46
0.63,-0.45,0.44
0.66,-0.45,0.44
0.69,-0.47,0.44
0.72,-0.51,0.43
0.75,-0.55,0.44
0.73,-0.58,0.45
0.67,-0.57,0.44
0.67,-0.56,0.42
0.77,-0.58,0.41
0.91,-0.71,0.47
1.09,-0.81,0.54
0.95,-0.84,0.55
0.81,-0.8,0.51
0.74,-0.74,0.45
0.66,-0.66,0.38
0.61,-0.54,0.33
0.64,-0.48,0.32
0.71,-0.54,0.37
0.8,-0.64,0.43
0.86,-0.69,0.43
0.88,-0.64,0.35
0.88,-0.57,0.24
0.91,-0.55,0.15
0.94,-0.57,0.08
0.97,-0.62,0.04
1,-0.69,0.01
1.01,-0.77,-0.04
0.96,-0.82,-0.13
0.9,-0.83,-0.19
0.89,-0.85,-0.19
0.87,-0.88,-0.18
0.8,-0.87,-0.19
0.71,-0.84,-0.19
0.66,-0.85,-0.2
0.66,-0.89,-0.22
0.73,-1.04,-0.25
0.77,-1.09,-0.28
0.75,-1.16,-0.29
0.69,-1.26,-0.29
0.66,-1.4,-0.34
0.62,-1.59,-0.42
0.57,-1.75,-0.43
0.59,-1.88,-0.36
0.65,-2.04,-0.22
0.65,-2.21,-0.01
0.55,-2.34,0.04
0.35,-2.21,-0.07
0.11,-1.91,-0.03
-0.06,-1.68,-0.04
-0.21,-1.54,-0.11
-0.41,-1.36,-0.16
-0.64,-1.14,-0.14
-0.68,-0.97,-0.05
-0.46,-0.88,-0.04
-0.21,-0.74,0
-0.05,-0.58,0.09
-0.01,-0.49,0.06
0.1,-0.45,-0.03
0.21,-0.44,-0.02
0.2,-0.37,0.09
0.07,-0.36,0.16
-0.14,-0.38,0.23
0,-0.29,0.18
0.08,-0.3,0.17
0.05,-0.31,0.18
0.06,-0.34,0.17
0.14,-0.37,0.13
0.22,-0.41,0.06
0.27,-0.43,-0.03
0.24,-0.43,-0.08
0.18,-0.45,-0.08
0.16,-0.51,-0.09
0.17,-0.55,-0.1
0.18,-0.57,-0.09
0.17,-0.64,-0.07
0.18,-0.69,-0.06
0.18,-0.72,-0.05
0.19,-0.76,-0.05
0.2,-0.79,-0.05
0.21,-0.84,-0.04
0.22,-0.9,-0.03
0.24,-0.96,-0.02
0.24,-1.01,-0.02
0.22,-1.07,-0.03
0.24,-1.12,-0.05
0.27,-1.15,-0.06
0.27,-1.15,-0.05
0.28,-1.13,0.01
0.27,-1.08,0.03
0.26,-1.04,0.05
0.25,-1,0.07
0.22,-0.97,0.06
0.21,-0.96,0.06
0.23,-0.95,0.07
0.24,-0.94,0.06
0.23,-0.94,0.07
0.22,-0.95,0.07
0.21,-0.97,0.08
0.19,-0.99,0.08
0.17,-0.99,0.09
0.15,-1,0.1
0.15,-1.02,0.1
0.16,-1.04,0.12
0.14,-1.04,0.12
0.11,-1.02,0.12
0.11,-1.03,0.13
0.14,-1.04,0.14
0.16,-1.06,0.16
0.14,-1.06,0.18
0.11,-1.06,0.18
0.1,-1.05,0.18
0.1,-1.03,0.17
0.11,-1.02,0.17
0.09,-1,0.19
0.09,-1,0.2
0.11,-1.01,0.2
0.1,-1.02,0.21
0.08,-1.02,0.21
0.06,-1.03,0.21
0.07,-1.04,0.2
0.07,-1.03,0.19
0.06,-1.02,0.19
0.05,-1.01,0.19
0.05,-1.01,0.19
0.07,-1,0.19
0.08,-1,0.19
0.09,-1,0.19
0.09,-1,0.18
0.09,-1,0.17
0.09,-1,0.16
0.1,-1.01,0.15
0.1,-1.02,0.15
0.11,-1.02,0.14
0.1,-1.02,0.13
0.09,-1.01,0.13
0.09,-1.02,0.13
0.12,-1.02,0.12
0.12,-1.02,0.12
0.11,-1.01,0.12
0.11,-1.01,0.12
0.12,-1.01,0.11
0.13,-1.01,0.1
0.13,-1,0.1
0.13,-1,0.1
0.13,-1,0.1
0.13,-1,0.09
0.14,-1,0.09
0.14,-1,0.09
0.14,-1,0.1
0.15,-1,0.1
0.15,-0.99,0.1
0.16,-1,0.1
0.16,-1,0.09
0.16,-1,0.09
0.16,-0.99,0.09
0.16,-0.98,0.08
0.16,-0.99,0.08
0.17,-0.99,0.09
0.18,-0.99,0.09
0.18,-0.99,0.1
0.18,-1,0.1
0.19,-0.99,0.09
0.2,-0.99,0.09
0.2,-0.98,0.09
0.2,-0.97,0.09
0.21,-0.95,0.1
0.23,-0.95,0.1
0.24,-0.94,0.11
0.25,-0.94,0.11
0.26,-0.94,0.11
0.26,-0.94,0.12
0.26,-0.93,0.12
0.26,-0.92,0.11
0.26,-0.91,0.11
0.26,-0.9,0.11
0.25,-0.88,0.1
0.25,-0.87,0.1
0.25,-0.86,0.1
0.24,-0.83,0.1
0.24,-0.81,0.1
0.24,-0.79,0.1
0.23,-0.78,0.1
0.23,-0.77,0.09
0.24,-0.75,0.09
0.24,-0.73,0.08
0.24,-0.72,0.07
0.24,-0.71,0.07
0.23,-0.7,0.06
0.23,-0.7,0.06
0.22,-0.69,0.06
0.21,-0.69,0.06
0.21,-0.68,0.05
0.22,-0.64,0.03
0.22,-0.62,0.01
0.24,-0.61,-0.04
0.3,-0.61,-0.13
0.36,-0.62,-0.24
0.39,-0.66,-0.32
0.34,-0.73,-0.32
0.19,-0.78,-0.24
0.02,-0.79,-0.11
-0.11,-0.79,-0.01
-0.14,-0.8,0.05
-0.09,-0.82,0.08
-0.02,-0.85,0.1
0.05,-0.91,0.16
0.15,-0.98,0.17
0.25,-1.01,0.12
0.27,-1.01,0.09
0.25,-0.98,0.06
0.23,-1.01,0.07
0.27,-1.06,0.11
0.29,-1.08,0.16
0.26,-1.05,0.19
0.25,-1.02,0.18
0.27,-0.99,0.16
0.29,-0.97,0.15
0.29,-0.96,0.14
0.2,-1.1,0.43
0.23,-1.3,0.81
0.36,-1.48,0.95
0.45,-1.61,0.92
0.5,-1.63,0.94
0.55,-1.56,0.82
0.64,-1.45,0.5
0.74,-1.33,0.26
0.77,-1.21,0.12
0.79,-1.09,0.07
0.75,-1.07,0.08
0.73,-1.08,0.12
0.73,-1.09,0.16
0.74,-1.12,0.23
0.75,-1.12,0.31
0.74,-1.09,0.4
0.72,-1.06,0.49
0.72,-1.05,0.59
0.71,-1.02,0.7
0.71,-0.99,0.77
0.69,-0.96,0.77
0.67,-0.92,0.75
0.66,-0.87,0.7
0.65,-0.81,0.68
0.61,-0.75,0.66
0.54,-0.66,0.63
0.46,-0.58,0.62
0.34,-0.53,0.67
0.34,-0.53,0.73
0.37,-0.52,0.77
0.38,-0.5,0.78
0.4,-0.51,0.77
0.38,-0.5,0.75
0.32,-0.46,0.74
0.28,-0.44,0.71
0.27,-0.45,0.68
0.25,-0.46,0.66
0.24,-0.46,0.65
0.24,-0.46,0.66
0.24,-0.47,0.68
0.27,-0.5,0.69
0.34,-0.53,0.7
0.41,-0.57,0.69
0.47,-0.58,0.68
0.54,-0.57,0.66
0.6,-0.55,0.62
0.65,-0.56,0.59
0.67,-0.58,0.6
0.65,-0.61,0.61
0.62,-0.64,0.63
0.59,-0.67,0.66
0.58,-0.69,0.68
0.57,-0.7,0.68
0.52,-0.68,0.68
0.49,-0.67,0.68
0.45,-0.65,0.68
0.42,-0.64,0.7
0.38,-0.64,0.71
0.35,-0.64,0.73
0.33,-0.65,0.73
0.32,-0.65,0.73
0.32,-0.65,0.73
0.33,-0.64,0.72
0.35,-0.63,0.7
0.4,-0.62,0.68
0.44,-0.62,0.66
0.45,-0.62,0.66
0.47,-0.61,0.65
0.49,-0.61,0.64
0.5,-0.6,0.65
0.5,-0.59,0.65
0.5,-0.58,0.66
0.49,-0.58,0.67
0.48,-0.57,0.68
0.48,-0.57,0.68
0.47,-0.56,0.68
0.47,-0.56,0.69
0.45,-0.55,0.72
0.42,-0.55,0.75
0.41,-0.56,0.76
0.44,-0.56,0.75
0.44,-0.56,0.72
0.45,-0.56,0.7
0.48,-0.55,0.67
0.51,-0.55,0.64
0.53,-0.56,0.63
0.55,-0.56,0.61
0.57,-0.55,0.6
0.55,-0.56,0.6
0.5,-0.58,0.63
0.48,-0.6,0.63
0.5,-0.56,0.6
0.51,-0.53,0.6
0.52,-0.54,0.59
0.54,-0.55,0.58
0.54,-0.56,0.57
0.55,-0.58,0.57
0.55,-0.6,0.57
0.54,-0.62,0.57
0.56,-0.64,0.54
0.56,-0.65,0.52
0.53,-0.64,0.5
0.48,-0.61,0.45
0.42,-0.57,0.44
0.4,-0.58,0.46
0.45,-0.7,0.51
0.57,-0.74,0.52
0.58,-0.77,0.52
0.57,-0.77,0.51
0.54,-0.74,0.49
0.53,-0.7,0.45
0.53,-0.68,0.41
0.54,-0.67,0.4
0.6,-0.69,0.4
0.66,-0.73,0.42
0.71,-0.77,0.42
0.72,-0.79,0.4
0.68,-0.79,0.37
0.63,-0.75,0.36
0.62,-0.77,0.37
0.64,-0.87,0.4
0.65,-0.95,0.43
0.66,-0.99,0.42
0.7,-1.01,0.42
0.74,-1,0.4
0.75,-0.89,0.36
0.74,-0.72,0.32
0.74,-0.63,0.32
0.76,-0.63,0.36
0.79,-0.65,0.42
0.84,-0.69,0.45
0.82,-0.7,0.42
0.68,-0.72,0.35
0.62,-0.8,0.27
0.59,-0.89,0.21
0.64,-0.97,0.14
0.78,-1.07,0.06
0.96,-1.15,0.01
1.1,-1.17,-0.01
1.15,-1.14,-0.01
1.1,-1.12,-0.04
0.99,-1.09,-0.05
0.91,-1.08,-0.05
0.86,-1.11,-0.07
0.86,-1.14,-0.1
0.83,-1.2,-0.12
0.77,-1.25,-0.08
0.72,-1.33,-0.03
0.67,-1.38,-0.03
0.63,-1.39,-0.02
0.58,-1.48,0.01
0.59,-1.61,0.06
0.52,-1.7,0.14
0.35,-1.75,0.19
0.19,-1.75,0.22
0.03,-1.68,0.21
-0.1,-1.58,0.15
-0.2,-1.48,-0.02
-0.52,-1.14,0.04
-0.48,-0.93,0.07
-0.49,-0.76,0.17
-0.44,-0.69,0.13
-0.26,-0.61,0.02
-0.16,-0.46,0.01
-0.15,-0.44,-0.02
-0.04,-0.49,-0.02
0.03,-0.49,0.01
0.02,-0.5,0.05
-0.03,-0.49,0.06
-0.04,-0.48,0.02
-0.06,-0.47,0.01
-0.08,-0.47,0.02
-0.09,-0.48,0.03
-0.07,-0.5,0.02
-0.04,-0.53,-0.02
0.01,-0.56,-0.04
0.08,-0.57,-0.04
0.11,-0.57,-0.03
0.09,-0.59,-0.01
0.03,-0.62,0.01
-0.01,-0.64,0
-0.01,-0.65,-0.01
0,-0.66,-0.03
0.01,-0.7,-0.05
0.08,-0.79,-0.04
0.05,-0.82,-0.02
0.04,-0.86,-0.01
0.07,-0.91,-0.02
0.11,-0.95,-0.03
0.06,-0.99,-0.02
0.05,-1.02,-0.05
0.08,-1.05,-0.06
0.11,-1.08,-0.03
0.11,-1.1,-0.01
0.09,-1.1,0.01
0.09,-1.09,0.02
0.12,-1.08,0.03
0.14,-1.06,0.04
0.14,-1.06,0.04
0.15,-1.04,0.03
0.16,-1.02,0.03
0.16,-1.01,0.04
0.16,-1,0.04
0.16,-1,0.04
0.13,-0.99,0.05
0.11,-1,0.06
0.11,-1,0.08
0.11,-1.01,0.09
0.11,-1.02,0.09
0.12,-1.02,0.1
0.15,-1.02,0.1
0.16,-1.02,0.11
0.14,-1.02,0.13
0.11,-1.01,0.14
0.1,-1.01,0.15
0.12,-1.01,0.15
0.14,-1.01,0.16
0.12,-1.02,0.18
0.08,-1.02,0.18
0.07,-1.01,0.18
0.08,-1.01,0.18
0.1,-1.02,0.18
0.09,-1.02,0.19
0.06,-1.02,0.19
0.03,-1.01,0.19
0.04,-1,0.19
0.05,-1,0.18
0.03,-1,0.19
0.01,-1.01,0.2
0.02,-1.02,0.2
0.03,-1.03,0.2
0.02,-1.03,0.19
0.01,-1.03,0.18
0,-1.03,0.17
0,-1.03,0.16
0,-1.03,0.16
-0.01,-1.03,0.15
-0.02,-1.04,0.15
-0.02,-1.04,0.15
-0.01,-1.03,0.14
-0.01,-1.03,0.14
0,-1.03,0.14
0,-1.02,0.13
-0.01,-1,0.12
-0.02,-0.98,0.12
-0.01,-0.98,0.11
-0.01,-0.98,0.1
-0.03,-0.98,0.09
-0.05,-0.98,0.09
-0.04,-0.99,0.1
-0.01,-1.01,0.09
0,-1.02,0.09
-0.02,-1.02,0.08
-0.02,-1.03,0.07
-0.01,-1.03,0.06
0,-1.03,0.05
0.01,-1.02,0.06
0.01,-1.02,0.06
0.02,-1.03,0.06
0.03,-1.03,0.06
0.03,-1.02,0.07
0.04,-1.02,0.07
0.04,-1.01,0.07
0.05,-1.01,0.07
0.06,-1.01,0.07
0.07,-1,0.07
0.07,-1,0.08
0.07,-1,0.09
0.08,-1,0.09
0.08,-1,0.09
0.09,-1,0.09
0.1,-1.01,0.1
0.1,-1.01,0.1
0.11,-1.01,0.11
0.12,-1.01,0.11
0.13,-1.02,0.11
0.14,-1.02,0.12
0.14,-1.02,0.12
0.14,-1.03,0.13
0.15,-1.03,0.13
0.17,-1.02,0.13
0.17,-1.02,0.13
0.18,-1.02,0.13
0.19,-1.02,0.13
0.2,-1.02,0.13
0.21,-1.02,0.13
0.21,-1.02,0.13
0.21,-1.01,0.14
0.22,-1,0.13
0.22,-0.99,0.13
0.23,-0.99,0.13
0.23,-0.98,0.14
0.23,-0.97,0.15
0.24,-0.95,0.15
0.26,-0.93,0.14
0.29,-0.93,0.13
0.32,-0.92,0.11
0.32,-0.9,0.1
0.31,-0.87,0.11
0.3,-0.84,0.12
0.28,-0.84,0.13
0.26,-0.83,0.14
0.24,-0.82,0.13
0.22,-0.8,0.14
0.19,-0.78,0.13
0.18,-0.75,0.11
0.2,-0.74,0.11
0.21,-0.71,0.1
0.21,-0.68,0.09
0.24,-0.66,0.07
0.28,-0.66,0.05
0.31,-0.65,0.04
0.31,-0.65,0.04
0.29,-0.65,0.05
0.27,-0.66,0.05
0.22,-0.65,0.03
0.19,-0.65,0.02
0.19,-0.65,0.01
0.21,-0.66,-0.01
0.23,-0.67,-0.03
0.23,-0.67,-0.07
0.22,-0.66,-0.12
0.27,-0.68,-0.17
0.35,-0.72,-0.2
0.39,-0.78,-0.19
0.37,-0.82,-0.17
0.34,-0.86,-0.17
0.32,-0.91,-0.17
0.33,-0.96,-0.13
0.38,-0.99,-0.08
0.39,-1,-0.05
0.38,-0.99,-0.06
0.33,-0.97,-0.08
0.27,-0.95,-0.09
0.25,-0.93,-0.08
0.26,-0.92,-0.1
0.26,-0.9,-0.13
0.25,-0.91,-0.11
0.24,-0.94,-0.07
0.21,-0.95,-0.02
0.18,-0.95,0.07
0.17,-0.94,0.13
0.19,-0.91,0.06
0.5,-1.02,0.1
1.24,-1.45,0.86
1.36,-1.82,1.68
0.76,-1.89,1.67
0.6,-1.76,1.28
0.86,-1.55,0.84
0.87,-1.27,0.32
0.6,-0.99,-0.01
0.51,-0.82,-0.12
0.74,-0.82,-0.17
1.01,-0.99,-0.09
1.11,-1.13,0.16
1.07,-1.11,0.39
1,-1.04,0.53
1,-1.01,0.6
1.03,-0.95,0.61
0.96,-0.88,0.61
0.86,-0.86,0.6
0.78,-0.88,0.6
0.68,-0.89,0.59
0.58,-0.87,0.58
0.48,-0.83,0.58
0.36,-0.76,0.6
0.26,-0.67,0.6
0.29,-0.55,0.63
0.33,-0.48,0.65
0.34,-0.43,0.66
0.32,-0.41,0.7
0.33,-0.42,0.76
0.34,-0.42,0.81
0.39,-0.46,0.85
0.47,-0.51,0.84
0.57,-0.55,0.79
0.63,-0.55,0.71
0.62,-0.53,0.61
0.6,-0.51,0.5
0.62,-0.52,0.41
0.67,-0.55,0.37
0.71,-0.57,0.38
0.72,-0.59,0.42
0.69,-0.59,0.46
0.66,-0.57,0.51
0.66,-0.56,0.56
0.64,-0.55,0.59
0.59,-0.53,0.59
0.57,-0.53,0.61
0.59,-0.54,0.64
0.6,-0.55,0.68
0.6,-0.54,0.7
0.57,-0.53,0.71
0.53,-0.52,0.76
0.47,-0.52,0.78
0.44,-0.52,0.79
0.41,-0.54,0.81
0.41,-0.57,0.81
0.43,-0.58,0.79
0.45,-0.59,0.76
0.48,-0.59,0.71
0.5,-0.6,0.67
0.51,-0.59,0.65
0.51,-0.6,0.63
0.53,-0.6,0.61
0.54,-0.61,0.59
0.55,-0.61,0.57
0.55,-0.6,0.56
0.56,-0.61,0.55
0.58,-0.62,0.56
0.58,-0.62,0.57
0.57,-0.62,0.59
0.56,-0.62,0.61
0.56,-0.62,0.62
0.56,-0.61,0.63
0.55,-0.6,0.63
0.54,-0.6,0.63
0.54,-0.59,0.63
0.54,-0.59,0.62
0.54,-0.59,0.62
0.54,-0.59,0.61
0.55,-0.59,0.6
0.56,-0.59,0.61
0.58,-0.59,0.6
0.61,-0.6,0.59
0.62,-0.59,0.58
0.62,-0.59,0.57
0.62,-0.59,0.54
0.61,-0.59,0.52
0.6,-0.59,0.52
0.6,-0.59,0.5
0.61,-0.59,0.49
0.61,-0.6,0.49
0.59,-0.6,0.5
0.56,-0.59,0.5
0.55,-0.58,0.49
0.55,-0.58,0.49
0.55,-0.58,0.49
0.57,-0.58,0.48
0.61,-0.59,0.49
0.64,-0.6,0.5
0.65,-0.6,0.5
0.64,-0.61,0.5
0.65,-0.62,0.5
0.65,-0.62,0.49
0.64,-0.61,0.47
0.63,-0.6,0.47
0.64,-0.61,0.45
0.65,-0.62,0.44
0.66,-0.63,0.43
0.66,-0.64,0.42
0.66,-0.64,0.4
0.62,-0.62,0.37
0.6,-0.61,0.35
0.63,-0.64,0.34
0.68,-0.7,0.34
0.75,-0.78,0.35
0.81,-0.87,0.37
0.84,-0.97,0.41
0.86,-1.04,0.42
0.88,-1.07,0.37
0.79,-0.99,0.33
0.69,-0.87,0.31
0.69,-0.78,0.27
0.72,-0.73,0.27
0.81,-0.71,0.33
0.9,-0.7,0.39
0.93,-0.63,0.39
0.99,-0.56,0.4
1.1,-0.55,0.43
1.11,-0.54,0.41
1.11,-0.56,0.37
1.22,-0.83,0.37
1.17,-0.96,0.32
1.08,-1.04,0.22
0.99,-1.05,0.11
0.96,-1.04,-0.03
1,-1.05,-0.18
1,-1.11,-0.3
0.93,-1.2,-0.34
0.78,-1.29,-0.34
0.61,-1.38,-0.32
0.47,-1.48,-0.26
0.37,-1.54,-0.2
0.25,-1.67,-0.05
0.26,-1.73,0.02
0.31,-1.66,-0.02
0.22,-1.65,0.05
0.18,-1.6,0.12
0.18,-1.53,0.12
0.15,-1.46,0.11
0.11,-1.33,0.07
0.03,-1.22,0.03
-0.03,-1.15,-0.02
-0.13,-1.07,-0.07
-0.16,-0.96,-0.09
-0.06,-0.83,-0.11
-0.01,-0.75,-0.1
0.16,-0.65,-0.09
0.25,-0.58,-0.07
0.21,-0.52,-0.04
0.17,-0.49,-0.05
0.17,-0.45,-0.05
0.18,-0.43,-0.07
0.21,-0.44,-0.04
0.24,-0.42,0.01
0.22,-0.41,0
0.18,-0.43,0.01
0.12,-0.47,0.01
0.08,-0.51,0
0.05,-0.53,0
0.06,-0.54,-0.01
0.08,-0.54,0
0.1,-0.55,0
0.12,-0.58,0
0.13,-0.62,0
0.13,-0.65,-0.02
0.13,-0.7,-0.05
0.15,-0.73,-0.06
0.15,-0.78,-0.07
0.14,-0.82,-0.08
0.13,-0.85,-0.07
0.13,-0.9,-0.06
0.15,-0.95,-0.06
0.17,-1.03,-0.04
0.15,-1.04,-0.03
0.14,-1.06,-0.03
0.16,-1.07,-0.03
0.17,-1.07,-0.02
0.16,-1.06,-0.01
0.16,-1.05,-0.02
0.16,-1.05,0
0.15,-1.04,0.01
0.13,-1.02,0.03
0.13,-1.01,0.05
0.13,-1,0.05
0.13,-1,0.06
0.14,-1,0.06
0.16,-0.99,0.06
0.16,-1,0.06
0.15,-1,0.07
0.13,-0.99,0.09
0.13,-0.98,0.1
0.15,-0.98,0.11
0.16,-1,0.12
0.17,-1,0.12
0.17,-0.98,0.13
0.18,-0.99,0.14
0.17,-1,0.15
0.14,-1.01,0.16
0.12,-1.02,0.18
0.13,-1.02,0.18
0.13,-1.01,0.19
0.12,-1.01,0.2
0.11,-1.02,0.21
0.11,-1.02,0.21
0.1,-1.02,0.2
0.09,-1.02,0.2
0.07,-1.03,0.2
0.05,-1.02,0.2
0.01,-1.02,0.2
-0.01,-1.01,0.2
0,-1.01,0.2
0.02,-1,0.19
0.03,-1,0.19
0.01,-1,0.18
0,-1.01,0.16
-0.01,-1.02,0.14
-0.01,-1.03,0.13
-0.01,-1.03,0.13
-0.01,-1.02,0.12
-0.02,-1.02,0.12
-0.02,-1.02,0.12
-0.01,-1.03,0.12
-0.01,-1.04,0.11
-0.02,-1.04,0.11
-0.03,-1.03,0.09
-0.02,-1.02,0.08
-0.03,-1.01,0.07
-0.02,-1,0.07
-0.01,-0.99,0.07
0,-0.99,0.08
0.01,-0.99,0.08
0.01,-0.99,0.08
0.02,-0.99,0.08
0.02,-0.99,0.07
0.03,-0.98,0.07
0.03,-0.97,0.07
0.05,-0.98,0.06
0.06,-0.99,0.06
0.08,-1,0.06
0.09,-1.01,0.07
0.1,-1.01,0.07
0.11,-1.02,0.08
0.12,-1.02,0.08
0.14,-1.03,0.09
0.15,-1.03,0.1
0.16,-1.02,0.11
0.18,-1.01,0.11
0.2,-1.01,0.1
0.21,-1,0.1
0.21,-1,0.11
0.22,-1,0.13
0.22,-1.01,0.13
0.23,-1,0.13
0.24,-1,0.14
0.25,-1,0.13
0.25,-0.99,0.13
0.25,-0.99,0.14
0.25,-0.99,0.15
0.25,-0.99,0.15
0.25,-0.99,0.16
0.25,-0.99,0.16
0.25,-0.98,0.16
0.26,-0.96,0.15
0.27,-0.95,0.15
0.27,-0.94,0.15
0.27,-0.94,0.15
0.27,-0.93,0.15
0.26,-0.93,0.15
0.27,-0.92,0.14
0.26,-0.9,0.14
0.26,-0.89,0.13
0.26,-0.88,0.13
0.26,-0.86,0.13
0.27,-0.86,0.13
0.26,-0.85,0.13
0.24,-0.85,0.12
0.23,-0.83,0.1
0.23,-0.79,0.08
0.23,-0.77,0.07
0.22,-0.74,0.07
0.21,-0.7,0.07
0.22,-0.68,0.07
0.23,-0.67,0.07
0.23,-0.67,0.07
0.22,-0.67,0.07
0.22,-0.65,0.05
0.22,-0.63,0.04
0.21,-0.62,0.03
0.19,-0.61,0.02
0.19,-0.61,0.02
0.21,-0.62,0.03
0.24,-0.64,0.04
0.26,-0.65,0.06
0.27,-0.67,0.07
0.28,-0.7,0.09
0.28,-0.73,0.09
0.26,-0.74,0.08
0.26,-0.73,0.04
0.3,-0.72,-0.01
0.35,-0.74,-0.02
0.39,-0.77,0
0.41,-0.78,0.04
0.4,-0.81,0.1
0.33,-0.82,0.11
0.34,-0.81,0.11
0.39,-0.81,0.09
0.44,-0.83,0.07
0.49,-0.84,0.06
0.5,-0.84,0.05
0.51,-0.83,0.06
0.51,-0.86,0.08
0.52,-0.89,0.13
0.55,-0.9,0.17
0.57,-0.92,0.2
0.58,-0.94,0.22
0.59,-0.96,0.21
0.59,-0.98,0.18
0.59,-0.99,0.17
0.59,-1,0.16
0.51,-0.99,-0.38
1.08,-1.53,0.26
1.6,-2.05,2.19
1.08,-2.09,2.69
0.63,-1.99,2.06
0.68,-1.55,1.14
0.66,-1.15,0.32
0.51,-0.88,0.02
0.51,-0.75,0.06
0.61,-0.77,0.2
0.75,-1.01,0.36
0.93,-1.05,0.58
0.92,-1,0.74
0.87,-0.93,0.81
0.83,-0.84,0.8
0.77,-0.73,0.75
0.7,-0.63,0.69
0.66,-0.52,0.63
0.65,-0.41,0.58
0.64,-0.32,0.56
0.64,-0.28,0.53
0.64,-0.24,0.51
0.62,-0.24,0.54
0.6,-0.21,0.58
0.6,-0.18,0.65
0.6,-0.22,0.71
0.61,-0.26,0.73
0.64,-0.27,0.74
0.68,-0.28,0.74
0.71,-0.31,0.72
0.73,-0.34,0.7
0.73,-0.36,0.68
0.74,-0.38,0.67
0.74,-0.38,0.66
0.74,-0.4,0.65
0.75,-0.43,0.63
0.76,-0.44,0.62
0.77,-0.46,0.61
0.76,-0.47,0.58
0.74,-0.5,0.57
0.72,-0.53,0.55
0.71,-0.53,0.53
0.67,-0.56,0.52
0.63,-0.58,0.51
0.59,-0.6,0.52
0.55,-0.63,0.52
0.52,-0.63,0.53
0.49,-0.65,0.54
0.48,-0.66,0.54
0.48,-0.66,0.56
0.48,-0.67,0.58
0.49,-0.67,0.6
0.5,-0.67,0.61
0.52,-0.67,0.62
0.53,-0.67,0.62
0.54,-0.65,0.62
0.54,-0.63,0.61
0.54,-0.61,0.59
0.54,-0.59,0.58
0.55,-0.57,0.57
0.55,-0.55,0.57
0.56,-0.55,0.57
0.58,-0.55,0.57
0.63,-0.55,0.57
0.65,-0.55,0.58
0.66,-0.54,0.6
0.66,-0.53,0.6
0.66,-0.52,0.6
0.66,-0.51,0.6
0.65,-0.51,0.6
0.65,-0.52,0.59
0.64,-0.52,0.59
0.64,-0.53,0.59
0.63,-0.53,0.59
0.63,-0.54,0.59
0.63,-0.54,0.59
0.64,-0.55,0.59
0.65,-0.55,0.58
0.65,-0.55,0.58
0.65,-0.54,0.57
0.66,-0.54,0.56
0.68,-0.54,0.56
0.67,-0.53,0.55
0.67,-0.52,0.55
0.67,-0.52,0.55
0.67,-0.51,0.55
0.67,-0.49,0.55
0.68,-0.49,0.55
0.67,-0.49,0.54
0.68,-0.5,0.54
0.68,-0.5,0.54
0.67,-0.5,0.54
0.67,-0.5,0.54
0.68,-0.5,0.55
0.69,-0.5,0.56
0.7,-0.5,0.56
0.7,-0.5,0.56
0.71,-0.51,0.57
0.71,-0.52,0.57
0.71,-0.53,0.57
0.7,-0.52,0.57
0.7,-0.53,0.56
0.7,-0.53,0.55
0.7,-0.53,0.55
0.69,-0.54,0.54
0.69,-0.54,0.53
0.69,-0.54,0.52
0.7,-0.54,0.51
0.7,-0.55,0.5
0.71,-0.55,0.5
0.72,-0.55,0.49
0.72,-0.55,0.48
0.72,-0.55,0.47
0.73,-0.55,0.47
0.73,-0.55,0.46
0.75,-0.55,0.46
0.75,-0.55,0.46
0.75,-0.54,0.47
0.75,-0.53,0.47
0.75,-0.52,0.48
0.74,-0.52,0.49
0.74,-0.51,0.49
0.73,-0.51,0.49
0.73,-0.51,0.5
0.73,-0.51,0.5
0.73,-0.51,0.51
0.73,-0.51,0.52
0.73,-0.51,0.52
0.72,-0.51,0.52
0.72,-0.51,0.52
0.72,-0.5,0.53
0.72,-0.5,0.52
0.72,-0.49,0.52
0.72,-0.49,0.52
0.72,-0.49,0.52
0.72,-0.49,0.53
0.73,-0.49,0.53
0.73,-0.49,0.54
0.73,-0.49,0.54
0.72,-0.49,0.53
0.72,-0.49,0.53
0.72,-0.5,0.52
0.72,-0.5,0.53
0.72,-0.5,0.53
0.72,-0.5,0.52
0.73,-0.5,0.52
0.73,-0.5,0.54
0.74,-0.5,0.56
0.72,-0.5,0.59
0.71,-0.5,0.62
0.71,-0.51,0.63
0.69,-0.49,0.64
0.65,-0.49,0.67
0.63,-0.51,0.71
0.65,-0.51,0.75
0.7,-0.53,0.77
0.74,-0.52,0.78
0.77,-0.47,0.76
0.85,-0.39,0.73
0.93,-0.33,0.71
0.93,-0.27,0.72
0.85,-0.26,0.75
0.75,-0.26,0.79
0.71,-0.25,0.78
0.71,-0.24,0.75
0.73,-0.22,0.71
0.75,-0.22,0.64
0.78,-0.2,0.51
0.76,-0.18,0.46
0.73,-0.18,0.41
0.69,-0.18,0.38
0.65,-0.16,0.37
0.62,-0.17,0.36
0.59,-0.2,0.36
0.59,-0.21,0.37
0.58,-0.21,0.39
0.58,-0.21,0.41
0.57,-0.2,0.44
0.55,-0.18,0.46
0.53,-0.17,0.43
0.5,-0.16,0.4
0.46,-0.15,0.39
0.46,-0.15,0.37
0.46,-0.17,0.37
0.47,-0.19,0.38
0.5,-0.2,0.39
0.54,-0.21,0.41
0.57,-0.22,0.41
0.58,-0.26,0.41
0.6,-0.3,0.42
0.62,-0.35,0.42
0.64,-0.41,0.41
0.67,-0.49,0.39
0.69,-0.68,0.38
0.74,-0.79,0.35
0.79,-0.9,0.34
0.85,-1,0.33
0.88,-1.08,0.33
0.88,-1.15,0.32
0.87,-1.21,0.29
0.83,-1.27,0.25
0.78,-1.33,0.23
0.72,-1.4,0.22
0.65,-1.48,0.23
0.58,-1.55,0.24
0.52,-1.63,0.25
0.49,-1.69,0.24
0.45,-1.75,0.22
0.39,-1.81,0.21
0.33,-1.83,0.18
0.27,-1.82,0.15
0.23,-1.76,0.12
0.19,-1.68,0.09
0.13,-1.61,0.08
0.08,-1.55,0.09
0.05,-1.49,0.09
-0.04,-1.42,0.05
-0.15,-1.34,0.01
-0.2,-1.23,-0.05
-0.2,-1.1,-0.06
-0.17,-0.94,-0.05
-0.16,-0.87,-0.03
-0.17,-0.8,-0.03
-0.16,-0.75,-0.04
-0.13,-0.72,-0.05
-0.08,-0.73,-0.02
-0.03,-0.77,0.04
-0.03,-0.8,0.12
-0.06,-0.81,0.19
-0.08,-0.83,0.22
-0.08,-0.8,0.19
-0.08,-0.69,0.11
-0.06,-0.6,0
0.02,-0.57,-0.09
0.17,-0.57,-0.11
0.33,-0.57,-0.05
0.41,-0.57,0.02
0.41,-0.58,0.08
0.37,-0.59,0.12
0.32,-0.59,0.15
0.3,-0.61,0.18
0.31,-0.57,0.18
0.32,-0.57,0.13
0.33,-0.64,0.1
0.36,-0.65,0.07
0.4,-0.65,0.03
0.45,-0.64,0.03
0.49,-0.64,0.05
0.53,-0.64,0.06
0.56,-0.67,0.08
0.6,-0.69,0.17
0.62,-0.72,0.21
0.62,-0.74,0.2
0.6,-0.76,0.22
0.59,-0.76,0.23
0.61,-0.76,0.22
0.64,-0.77,0.2
0.69,-0.79,0.19
0.73,-0.82,0.2
0.75,-0.85,0.19
0.74,-0.87,0.16
0.74,-0.91,0.15
0.79,-1,0.18
0.9,-1.13,0.38
0.97,-1.26,0.7
0.93,-1.32,0.92
0.93,-1.28,0.98
0.99,-1.17,0.91
1,-1.05,0.73
0.97,-0.89,0.55
0.94,-0.72,0.44
0.89,-0.57,0.33
0.78,-0.37,0.31
0.75,-0.33,0.34
0.75,-0.32,0.38
0.76,-0.32,0.44
0.77,-0.32,0.5
0.78,-0.35,0.56
0.76,-0.35,0.59
0.73,-0.34,0.58
0.73,-0.31,0.55
0.74,-0.27,0.53
0.75,-0.25,0.52
0.77,-0.23,0.51
0.79,-0.21,0.5
0.83,-0.2,0.5
0.84,-0.18,0.5
0.83,-0.15,0.49
0.82,-0.12,0.49
0.8,-0.08,0.5
0.77,-0.06,0.5
0.76,-0.04,0.5
0.76,-0.04,0.5
0.75,-0.04,0.49
0.75,-0.05,0.48
0.82,-0.09,0.45
0.88,-0.14,0.46
0.91,-0.18,0.48
0.91,-0.22,0.51
0.91,-0.24,0.51
0.92,-0.26,0.5
0.91,-0.28,0.48
0.89,-0.27,0.45
0.85,-0.27,0.4
0.78,-0.27,0.33
0.69,-0.25,0.27
0.59,-0.23,0.24
0.53,-0.25,0.26
0.45,-0.31,0.33
0.39,-0.39,0.49
0.39,-0.46,0.64
0.44,-0.51,0.69
0.6,-0.64,0.77
0.89,-0.81,0.72
0.92,-0.78,0.59
0.66,-0.68,0.58
0.5,-0.73,0.57
0.49,-0.77,0.54
0.57,-0.81,0.49
0.64,-0.82,0.44
0.67,-0.87,0.41
0.68,-0.94,0.38
0.7,-0.97,0.39
0.73,-0.99,0.43
0.71,-0.84,0.41
0.59,-0.77,0.35
0.57,-0.75,0.28
0.58,-0.71,0.23
0.58,-0.71,0.18
0.61,-0.76,0.15
0.65,-0.78,0.17
0.7,-0.78,0.19
0.75,-0.79,0.22
0.78,-0.78,0.26
0.76,-0.75,0.31
0.72,-0.72,0.35
0.69,-0.7,0.37
0.67,-0.69,0.37
0.66,-0.68,0.38
0.66,-0.67,0.37
0.66,-0.67,0.36
0.67,-0.68,0.36
0.68,-0.69,0.35
0.68,-0.69,0.34
0.68,-0.69,0.34
0.67,-0.69,0.34
0.68,-0.69,0.33
0.7,-0.7,0.33
0.7,-0.7,0.33
0.71,-0.71,0.33
0.71,-0.7,0.31
0.68,-0.68,0.3
0.67,-0.66,0.3
0.68,-0.65,0.31
0.71,-0.65,0.32
0.73,-0.66,0.32
0.74,-0.67,0.32
0.74,-0.67,0.32
0.74,-0.67,0.32
0.73,-0.68,0.31
0.71,-0.68,0.31
0.7,-0.68,0.3
0.69,-0.68,0.3
0.68,-0.68,0.3
0.67,-0.68,0.3
0.66,-0.67,0.3
0.66,-0.67,0.3
0.68,-0.67,0.31
0.7,-0.68,0.32
0.7,-0.69,0.33
0.71,-0.68,0.33
0.71,-0.68,0.34
0.7,-0.68,0.35
0.69,-0.67,0.35
0.68,-0.67,0.36
0.68,-0.67,0.37
0.68,-0.66,0.37
0.69,-0.66,0.38
0.7,-0.66,0.38
0.7,-0.65,0.38
0.7,-0.65,0.37
0.7,-0.65,0.37
0.7,-0.65,0.37
0.7,-0.64,0.36
0.69,-0.64,0.36
0.69,-0.63,0.36
0.69,-0.63,0.35
0.7,-0.64,0.35
0.71,-0.63,0.36
0.71,-0.63,0.36
0.72,-0.64,0.36
0.72,-0.64,0.36
0.72,-0.63,0.35
0.72,-0.63,0.35
0.72,-0.62,0.34
0.73,-0.62,0.34
0.73,-0.63,0.34
0.74,-0.62,0.34
0.74,-0.62,0.33
0.74,-0.63,0.33
0.74,-0.62,0.33
0.73,-0.62,0.33
0.74,-0.62,0.33
0.75,-0.62,0.33
