Acc_x,Acc_y,Acc_z
0.24,-0.71,0.06
0.23,-0.74,0.06
0.2,-0.74,0.08
0.19,-0.73,0.08
0.2,-0.74,0.08
0.2,-0.77,0.06
0.21,-0.8,0.03
0.23,-0.86,0.02
0.25,-0.9,0.03
0.24,-0.9,0.08
0.21,-0.92,0.12
0.19,-0.96,0.15
0.19,-1,0.16
0.19,-1.02,0.18
0.2,-1.03,0.19
0.23,-1.03,0.18
0.26,-1.07,0.19
0.29,-1.14,0.22
0.3,-1.23,0.27
0.31,-1.31,0.32
0.38,-1.37,0.2
0.5,-1.35,0.03
0.58,-1.23,0.02
0.63,-1.12,0.04
0.59,-1.08,0.22
0.61,-0.91,0.24
0.64,-0.82,0.28
0.58,-0.79,0.32
0.71,-0.85,0.41
1.01,-1.02,0.64
1.13,-1.17,0.85
1.07,-1.18,0.85
0.89,-1.08,0.65
0.73,-0.95,0.39
0.65,-0.84,0.21
0.64,-0.81,0.17
0.72,-0.83,0.18
0.79,-0.91,0.22
0.83,-0.98,0.28
0.91,-0.99,0.36
1.01,-0.96,0.51
1.06,-0.86,0.68
1.08,-0.71,0.72
1.05,-0.61,0.67
1.01,-0.56,0.62
0.99,-0.5,0.59
0.92,-0.47,0.56
0.83,-0.43,0.54
0.8,-0.4,0.54
0.78,-0.38,0.51
0.76,-0.33,0.51
0.68,-0.22,0.57
0.72,-0.19,0.58
0.79,-0.16,0.58
0.79,-0.16,0.6
0.72,-0.17,0.63
0.67,-0.18,0.66
0.64,-0.21,0.68
0.61,-0.26,0.68
0.6,-0.31,0.66
0.62,-0.38,0.67
0.63,-0.44,0.68
0.64,-0.5,0.7
0.65,-0.56,0.71
0.66,-0.59,0.71
0.67,-0.61,0.7
0.69,-0.62,0.68
0.7,-0.6,0.65
0.72,-0.59,0.62
0.73,-0.59,0.58
0.74,-0.57,0.55
0.74,-0.56,0.53
0.72,-0.56,0.51
0.71,-0.55,0.51
0.69,-0.53,0.51
0.67,-0.52,0.53
0.66,-0.52,0.56
0.64,-0.51,0.57
0.62,-0.5,0.58
0.62,-0.5,0.59
0.62,-0.49,0.59
0.62,-0.49,0.59
0.64,-0.49,0.58
0.65,-0.49,0.57
0.67,-0.49,0.56
0.69,-0.49,0.55
0.7,-0.5,0.55
0.71,-0.5,0.55
0.71,-0.5,0.54
0.71,-0.51,0.54
0.71,-0.5,0.54
0.71,-0.5,0.54
0.71,-0.5,0.53
0.71,-0.5,0.54
0.71,-0.49,0.54
0.72,-0.49,0.54
0.72,-0.48,0.55
0.73,-0.47,0.54
0.73,-0.47,0.54
0.72,-0.47,0.55
0.72,-0.46,0.55
0.73,-0.45,0.55
0.73,-0.45,0.55
0.72,-0.45,0.55
0.72,-0.45,0.55
0.72,-0.46,0.55
0.72,-0.46,0.55
0.72,-0.46,0.55
0.71,-0.47,0.54
0.71,-0.48,0.54
0.71,-0.48,0.54
0.71,-0.49,0.54
0.71,-0.49,0.54
0.71,-0.5,0.54
0.71,-0.5,0.55
0.71,-0.5,0.56
0.71,-0.49,0.56
0.7,-0.49,0.56
0.7,-0.48,0.57
0.7,-0.48,0.57
0.69,-0.48,0.57
0.69,-0.48,0.56
0.69,-0.48,0.56
0.69,-0.48,0.56
0.69,-0.49,0.56
0.69,-0.49,0.55
0.7,-0.49,0.55
0.7,-0.49,0.55
0.7,-0.49,0.54
0.7,-0.49,0.54
0.71,-0.49,0.54
0.71,-0.49,0.54
0.71,-0.49,0.54
0.72,-0.49,0.53
0.72,-0.49,0.53
0.72,-0.49,0.53
0.72,-0.49,0.53
0.72,-0.49,0.53
0.72,-0.48,0.53
0.72,-0.48,0.53
0.72,-0.48,0.53
0.72,-0.47,0.53
0.72,-0.47,0.53
0.72,-0.47,0.53
0.72,-0.46,0.53
0.73,-0.47,0.53
0.74,-0.46,0.52
0.74,-0.46,0.52
0.74,-0.45,0.52
0.74,-0.45,0.52
0.74,-0.45,0.52
0.74,-0.45,0.52
0.74,-0.45,0.52
0.75,-0.45,0.52
0.75,-0.45,0.52
0.75,-0.45,0.52
0.75,-0.45,0.53
0.75,-0.45,0.52
0.76,-0.45,0.51
0.77,-0.45,0.5
0.77,-0.45,0.49
0.77,-0.46,0.5
0.76,-0.46,0.51
0.74,-0.46,0.51
0.73,-0.46,0.51
0.72,-0.46,0.51
0.72,-0.46,0.51
0.71,-0.46,0.5
0.71,-0.46,0.5
0.7,-0.46,0.51
0.69,-0.47,0.52
0.7,-0.48,0.53
0.72,-0.49,0.53
0.73,-0.5,0.54
0.74,-0.51,0.54
0.76,-0.52,0.54
0.79,-0.53,0.52
0.82,-0.56,0.51
0.86,-0.59,0.51
0.96,-0.64,0.55
1.05,-0.68,0.6
1.08,-0.65,0.65
0.95,-0.59,0.64
0.82,-0.51,0.58
0.7,-0.43,0.5
0.62,-0.38,0.45
0.63,-0.37,0.43
0.7,-0.39,0.44
0.77,-0.43,0.47
0.9,-0.48,0.48
1.01,-0.54,0.51
1.03,-0.58,0.5
0.99,-0.63,0.48
0.96,-0.7,0.44
0.92,-0.8,0.4
0.88,-0.92,0.34
0.86,-1.02,0.29
0.84,-1.11,0.24
0.81,-1.19,0.19
0.82,-1.26,0.1
0.86,-1.32,0
0.9,-1.36,-0.03
0.93,-1.46,-0.02
0.9,-1.57,-0.01
0.82,-1.65,-0.01
0.74,-1.7,0.04
0.67,-1.69,0.13
0.59,-1.66,0.23
0.43,-1.56,0.26
0.33,-1.5,0.29
0.29,-1.34,0.29
0.28,-1.21,0.26
0.23,-1.13,0.18
0.2,-1.04,0.14
0.29,-0.96,0.11
0.33,-0.96,0.08
0.24,-0.94,0.1
0.17,-0.85,0.12
0.17,-0.81,0.09
0.2,-0.75,0.06
0.25,-0.68,0.05
0.27,-0.61,0.05
0.27,-0.58,0.07
0.26,-0.54,0.07
0.25,-0.51,0.07
0.25,-0.48,0.09
0.25,-0.44,0.08
0.27,-0.41,0.07
0.3,-0.38,0.06
0.3,-0.36,0.06
0.29,-0.35,0.05
0.28,-0.35,0.05
0.27,-0.35,0.04
0.25,-0.36,0.04
0.24,-0.41,0.03
0.23,-0.43,0.01
0.22,-0.45,0.01
0.23,-0.48,0.01
0.24,-0.5,0.01
0.25,-0.53,0.01
0.27,-0.55,0
0.3,-0.58,-0.01
0.31,-0.61,-0.01
0.33,-0.64,0
0.36,-0.67,0
0.39,-0.69,0
0.42,-0.71,0.01
0.44,-0.73,0.02
0.44,-0.74,0.03
0.42,-0.76,0.04
0.4,-0.78,0.03
0.39,-0.79,0.02
0.39,-0.82,0.03
0.4,-0.84,0.01
0.41,-0.86,0
0.41,-0.9,0
0.42,-0.95,0.01
0.42,-1,0.02
0.43,-1.04,0.03
0.44,-1.06,0.05
0.43,-1.11,0.07
0.44,-1.11,0.08
0.45,-1.14,0.09
0.44,-1.16,0.11
0.45,-1.15,0.13
0.44,-1.14,0.17
0.42,-1.13,0.2
0.41,-1.13,0.21
0.39,-1.11,0.21
0.38,-1.08,0.23
0.37,-1.05,0.24
0.35,-1.04,0.25
0.33,-1.03,0.24
0.33,-1.02,0.24
0.32,-1.01,0.23
0.3,-1,0.21
0.29,-1,0.19
0.27,-0.99,0.18
0.27,-0.98,0.17
0.26,-0.96,0.16
0.26,-0.94,0.15
0.25,-0.93,0.15
0.26,-0.92,0.14
0.26,-0.91,0.13
0.27,-0.92,0.13
0.28,-0.92,0.12
0.29,-0.92,0.11
0.31,-0.92,0.1
0.31,-0.93,0.1
0.31,-0.93,0.09
0.31,-0.94,0.09
0.31,-0.95,0.09
0.31,-0.96,0.09
0.31,-0.96,0.08
0.31,-0.97,0.08
0.31,-0.97,0.08
0.32,-0.97,0.09
0.32,-0.97,0.09
0.32,-0.97,0.1
0.32,-0.97,0.11
0.32,-0.97,0.11
0.33,-0.97,0.12
0.33,-0.97,0.12
0.33,-0.96,0.12
0.33,-0.96,0.12
0.34,-0.97,0.13
0.34,-0.96,0.13
0.34,-0.96,0.13
0.34,-0.96,0.14
0.35,-0.95,0.14
0.35,-0.95,0.14
0.35,-0.96,0.14
0.35,-0.96,0.13
0.35,-0.96,0.13
0.35,-0.95,0.12
0.35,-0.95,0.12
0.34,-0.96,0.12
0.34,-0.96,0.12
0.34,-0.96,0.11
0.34,-0.96,0.11
0.34,-0.96,0.11
0.33,-0.96,0.11
0.33,-0.95,0.11
0.33,-0.95,0.11
0.32,-0.96,0.1
0.32,-0.96,0.1
0.32,-0.97,0.1
0.32,-0.97,0.11
0.32,-0.97,0.11
0.32,-0.97,0.11
0.31,-0.97,0.11
0.31,-0.97,0.12
0.31,-0.96,0.12
0.3,-0.96,0.12
0.3,-0.96,0.12
0.3,-0.96,0.13
0.3,-0.96,0.13
0.3,-0.97,0.13
0.3,-0.97,0.13
0.3,-0.97,0.13
0.3,-0.97,0.12
0.31,-0.97,0.12
0.31,-0.97,0.13
0.31,-0.97,0.13
0.31,-0.97,0.13
0.31,-0.97,0.13
0.31,-0.96,0.13
0.31,-0.95,0.13
0.31,-0.94,0.13
0.31,-0.94,0.13
0.31,-0.93,0.13
0.31,-0.93,0.13
0.3,-0.93,0.13
0.3,-0.92,0.12
0.3,-0.92,0.12
0.29,-0.92,0.12
0.29,-0.92,0.12
0.29,-0.91,0.12
0.28,-0.9,0.12
0.27,-0.9,0.12
0.28,-0.89,0.12
0.28,-0.88,0.11
0.27,-0.87,0.12
0.25,-0.86,0.12
0.25,-0.83,0.09
0.26,-0.79,0.06
0.27,-0.77,0
0.31,-0.76,-0.09
0.34,-0.77,-0.15
0.36,-0.78,-0.18
0.37,-0.78,-0.19
0.36,-0.77,-0.19
0.31,-0.75,-0.19
0.23,-0.72,-0.16
0.2,-0.66,-0.13
0.21,-0.63,-0.13
0.21,-0.63,-0.15
0.19,-0.61,-0.15
0.17,-0.61,-0.15
0.17,-0.6,-0.15
0.16,-0.58,-0.11
0.13,-0.57,-0.08
0.13,-0.54,-0.05
0.13,-0.53,-0.02
0.14,-0.54,-0.02
0.15,-0.57,-0.02
0.15,-0.6,0.01
0.14,-0.64,0.04
0.12,-0.69,0.05
0.09,-0.76,0.04
0.07,-0.83,-0.12
0.19,-1,0.02
0.1,-1.19,0.33
0.29,-1.33,0.46
0.53,-1.41,0.54
0.69,-1.48,0.57
0.79,-1.55,0.53
0.77,-1.48,0.36
0.65,-1.32,0.15
0.53,-1.2,0
0.34,-1.08,-0.08
0.16,-0.96,-0.08
0.18,-0.96,-0.04
0.36,-1.07,0.03
0.56,-1.15,0.09
0.71,-1.14,0.08
0.67,-1.08,0.03
0.56,-1.01,-0.01
0.57,-0.97,-0.02
0.67,-1.01,-0.01
0.75,-1.09,-0.02
0.8,-1.14,-0.06
0.81,-1.15,-0.13
0.81,-1.15,-0.19
0.83,-1.15,-0.22
0.82,-1.11,-0.23
0.76,-1.04,-0.11
0.78,-0.88,0.01
0.91,-0.85,0.12
1.06,-0.85,0.26
1.18,-0.83,0.45
1.24,-0.74,0.6
1.21,-0.66,0.64
1.15,-0.62,0.65
1.09,-0.58,0.64
1,-0.54,0.61
0.92,-0.51,0.56
0.86,-0.48,0.52
0.81,-0.46,0.46
0.78,-0.43,0.42
0.78,-0.4,0.4
0.77,-0.35,0.38
0.77,-0.33,0.38
0.8,-0.3,0.38
0.79,-0.27,0.39
0.76,-0.25,0.43
0.74,-0.22,0.48
0.7,-0.22,0.52
0.66,-0.23,0.56
0.62,-0.25,0.6
0.59,-0.29,0.65
0.6,-0.34,0.71
0.63,-0.39,0.75
0.71,-0.47,0.74
0.74,-0.5,0.75
0.77,-0.51,0.75
0.79,-0.52,0.73
0.81,-0.52,0.69
0.81,-0.51,0.64
0.81,-0.49,0.59
0.8,-0.48,0.53
0.79,-0.47,0.49
0.78,-0.46,0.46
0.78,-0.45,0.44
0.78,-0.44,0.41
0.78,-0.44,0.39
0.78,-0.45,0.38
0.78,-0.45,0.38
0.78,-0.46,0.39
0.78,-0.48,0.39
0.77,-0.48,0.4
0.77,-0.5,0.4
0.76,-0.51,0.41
0.77,-0.52,0.42
0.77,-0.52,0.43
0.76,-0.53,0.43
0.77,-0.53,0.44
0.76,-0.52,0.44
0.75,-0.52,0.44
0.76,-0.51,0.43
0.77,-0.5,0.43
0.78,-0.49,0.44
0.79,-0.49,0.44
0.79,-0.48,0.44
0.79,-0.47,0.45
0.8,-0.47,0.45
0.81,-0.45,0.46
0.81,-0.44,0.47
0.8,-0.44,0.47
0.8,-0.43,0.48
0.81,-0.43,0.49
0.81,-0.42,0.49
0.81,-0.42,0.49
0.8,-0.41,0.5
0.8,-0.41,0.5
0.8,-0.4,0.5
0.79,-0.4,0.5
0.79,-0.39,0.5
0.79,-0.39,0.5
0.79,-0.38,0.5
0.8,-0.38,0.49
0.8,-0.38,0.48
0.82,-0.38,0.47
0.82,-0.38,0.46
0.83,-0.38,0.44
0.83,-0.4,0.44
0.83,-0.41,0.44
0.83,-0.42,0.44
0.83,-0.42,0.44
0.83,-0.42,0.44
0.82,-0.42,0.44
0.82,-0.42,0.45
0.81,-0.42,0.45
0.81,-0.42,0.45
0.81,-0.42,0.46
0.81,-0.42,0.46
0.81,-0.41,0.46
0.81,-0.41,0.46
0.81,-0.42,0.46
0.81,-0.42,0.46
0.81,-0.42,0.46
0.8,-0.42,0.46
0.8,-0.42,0.46
0.8,-0.42,0.46
0.8,-0.43,0.46
0.8,-0.43,0.46
0.8,-0.43,0.46
0.8,-0.43,0.46
0.8,-0.43,0.46
0.8,-0.43,0.46
0.8,-0.43,0.46
0.8,-0.43,0.46
0.81,-0.43,0.46
0.81,-0.42,0.46
0.81,-0.42,0.46
0.81,-0.42,0.46
0.81,-0.42,0.45
0.81,-0.42,0.46
0.81,-0.42,0.45
0.81,-0.42,0.46
0.81,-0.42,0.46
0.81,-0.42,0.45
0.81,-0.42,0.45
0.81,-0.42,0.45
0.81,-0.42,0.45
0.81,-0.42,0.45
0.81,-0.42,0.45
0.81,-0.42,0.45
0.81,-0.42,0.45
0.81,-0.42,0.46
0.81,-0.42,0.46
0.81,-0.42,0.45
0.81,-0.42,0.45
0.81,-0.43,0.45
0.81,-0.43,0.45
0.8,-0.43,0.46
0.8,-0.42,0.45
0.8,-0.43,0.45
0.8,-0.43,0.45
0.81,-0.43,0.45
0.81,-0.43,0.45
0.81,-0.43,0.45
0.82,-0.43,0.46
0.82,-0.43,0.45
0.83,-0.44,0.45
0.83,-0.44,0.44
0.82,-0.43,0.44
0.81,-0.43,0.44
0.81,-0.42,0.44
0.81,-0.41,0.44
0.81,-0.41,0.44
0.81,-0.41,0.45
0.81,-0.41,0.45
0.81,-0.41,0.45
0.82,-0.4,0.45
0.82,-0.4,0.45
0.82,-0.39,0.45
0.82,-0.39,0.45
0.82,-0.39,0.45
0.82,-0.39,0.45
0.83,-0.39,0.45
0.82,-0.4,0.46
0.81,-0.41,0.47
0.8,-0.41,0.48
0.8,-0.42,0.47
0.8,-0.42,0.46
0.8,-0.41,0.46
0.78,-0.42,0.46
0.77,-0.43,0.47
0.79,-0.44,0.48
0.81,-0.44,0.48
0.8,-0.44,0.48
0.78,-0.44,0.47
0.78,-0.44,0.46
0.78,-0.45,0.47
0.77,-0.45,0.47
0.77,-0.46,0.48
0.76,-0.46,0.48
0.73,-0.46,0.48
0.71,-0.47,0.49
0.7,-0.46,0.5
0.69,-0.47,0.5
0.68,-0.47,0.51
0.67,-0.47,0.49
0.67,-0.47,0.48
0.68,-0.47,0.46
0.69,-0.49,0.45
0.7,-0.51,0.43
0.72,-0.53,0.41
0.73,-0.54,0.37
0.79,-0.57,0.33
0.83,-0.6,0.31
0.86,-0.64,0.3
0.92,-0.7,0.33
1,-0.79,0.37
1.07,-0.89,0.43
1.14,-0.94,0.51
1.14,-0.92,0.53
1.04,-0.84,0.48
0.82,-0.73,0.4
0.66,-0.63,0.32
0.64,-0.59,0.26
0.71,-0.56,0.26
0.82,-0.52,0.24
0.91,-0.49,0.21
0.95,-0.5,0.21
0.98,-0.5,0.21
0.99,-0.53,0.2
1,-0.63,0.19
1.01,-0.73,0.16
1.02,-0.83,0.05
1.03,-0.9,-0.08
1.04,-0.96,-0.2
1.04,-1.02,-0.26
1.07,-1.06,-0.28
1.09,-1.07,-0.31
1.12,-1.07,-0.34
1.05,-1.11,-0.29
1.01,-1.18,-0.23
0.95,-1.21,-0.26
0.88,-1.21,-0.3
0.85,-1.25,-0.3
0.84,-1.27,-0.3
0.8,-1.3,-0.29
0.71,-1.34,-0.21
0.6,-1.38,-0.1
0.48,-1.45,0
0.42,-1.52,0.11
0.41,-1.52,0.19
0.38,-1.42,0.26
0.26,-1.33,0.31
0.19,-1.28,0.3
0.2,-1.16,0.4
0.23,-1.02,0.33
0.3,-0.89,0.15
0.35,-0.77,0.12
0.37,-0.68,0.13
0.29,-0.63,0.15
0.15,-0.57,0.16
0.08,-0.51,0.14
0.06,-0.47,0.1
0.01,-0.42,0.09
-0.05,-0.33,0.16
-0.11,-0.3,0.19
-0.12,-0.27,0.18
-0.07,-0.25,0.16
0,-0.26,0.18
0.01,-0.3,0.19
0,-0.34,0.18
0.02,-0.39,0.15
0.03,-0.44,0.11
0.06,-0.47,0.07
0.08,-0.54,0.05
0.07,-0.61,0.02
0.07,-0.7,-0.02
0.09,-0.79,-0.06
0.13,-0.86,-0.08
0.18,-0.92,-0.09
0.26,-0.97,-0.11
0.34,-1,-0.1
0.38,-1,-0.06
0.42,-0.99,-0.05
0.46,-0.97,-0.04
0.48,-0.95,-0.02
0.49,-0.93,-0.01
0.52,-0.9,0.01
0.53,-0.87,0.01
0.51,-0.86,0.06
0.49,-0.86,0.11
0.52,-0.85,0.12
0.53,-0.84,0.1
0.53,-0.84,0.07
0.55,-0.84,0.08
0.59,-0.84,0.07
0.58,-0.85,0.06
0.58,-0.85,0.06
0.62,-0.85,0.06
0.61,-0.85,0.07
0.62,-0.86,0.07
0.62,-0.85,0.08
0.61,-0.85,0.09
0.63,-0.84,0.09
0.62,-0.84,0.08
0.57,-0.84,0.08
0.55,-0.84,0.09
0.58,-0.84,0.07
0.62,-0.83,0.05
0.58,-0.84,0.06
0.52,-0.86,0.07
0.52,-0.87,0.07
0.5,-0.88,0.08
0.45,-0.9,0.11
0.44,-0.9,0.12
0.45,-0.9,0.12
0.45,-0.91,0.14
0.42,-0.92,0.15
0.43,-0.92,0.17
0.42,-0.92,0.18
0.4,-0.93,0.19
0.41,-0.94,0.18
0.41,-0.94,0.17
0.41,-0.93,0.17
0.4,-0.93,0.16
0.4,-0.94,0.15
0.4,-0.94,0.15
0.41,-0.95,0.14
0.4,-0.95,0.13
0.39,-0.95,0.13
0.39,-0.95,0.13
0.39,-0.95,0.13
0.39,-0.94,0.13
0.4,-0.93,0.13
0.41,-0.93,0.14
0.41,-0.93,0.15
0.41,-0.93,0.15
0.41,-0.93,0.15
0.42,-0.93,0.15
0.43,-0.92,0.15
0.43,-0.92,0.15
0.43,-0.91,0.15
0.44,-0.91,0.14
0.43,-0.91,0.13
0.42,-0.91,0.13
0.4,-0.91,0.13
0.41,-0.92,0.12
0.41,-0.92,0.12
0.41,-0.93,0.12
0.41,-0.93,0.12
0.42,-0.94,0.13
0.42,-0.94,0.13
0.41,-0.95,0.14
0.4,-0.95,0.14
0.39,-0.94,0.14
0.39,-0.94,0.14
0.39,-0.94,0.14
0.39,-0.93,0.14
0.39,-0.92,0.14
0.39,-0.92,0.15
0.38,-0.92,0.14
0.39,-0.92,0.13
0.39,-0.92,0.13
0.39,-0.92,0.13
0.39,-0.92,0.13
0.4,-0.92,0.12
0.4,-0.92,0.12
0.4,-0.92,0.12
0.4,-0.92,0.13
0.4,-0.93,0.13
0.41,-0.93,0.13
0.41,-0.94,0.13
0.42,-0.94,0.13
0.43,-0.94,0.14
0.43,-0.94,0.14
0.45,-0.93,0.14
0.45,-0.93,0.15
0.43,-0.93,0.15
0.43,-0.93,0.14
0.44,-0.92,0.14
0.43,-0.92,0.14
0.43,-0.91,0.13
0.43,-0.91,0.13
0.42,-0.92,0.12
0.42,-0.92,0.12
0.41,-0.92,0.11
0.4,-0.92,0.11
0.4,-0.92,0.11
0.4,-0.93,0.11
0.4,-0.93,0.11
0.4,-0.93,0.12
0.4,-0.93,0.12
0.4,-0.93,0.12
0.39,-0.93,0.12
0.39,-0.93,0.12
0.39,-0.93,0.12
0.39,-0.93,0.11
0.39,-0.93,0.11
0.39,-0.94,0.1
0.39,-0.93,0.1
0.39,-0.93,0.1
0.38,-0.93,0.1
0.38,-0.93,0.1
0.38,-0.93,0.1
0.38,-0.93,0.1
0.37,-0.93,0.1
0.37,-0.93,0.09
0.37,-0.92,0.09
0.37,-0.92,0.08
0.36,-0.91,0.08
0.36,-0.9,0.08
0.36,-0.89,0.07
0.35,-0.89,0.07
0.35,-0.89,0.07
0.35,-0.9,0.07
0.35,-0.89,0.06
0.36,-0.88,0.05
0.35,-0.87,0.05
0.34,-0.85,0.05
0.33,-0.83,0.04
0.32,-0.81,0.04
0.31,-0.78,0.05
0.29,-0.76,0.05
0.29,-0.75,0.04
0.27,-0.73,0.03
0.27,-0.69,0.01
0.28,-0.68,-0.01
0.28,-0.69,-0.03
0.28,-0.67,-0.03
0.24,-0.65,-0.03
0.18,-0.62,-0.04
0.15,-0.6,-0.06
0.12,-0.58,-0.08
0.15,-0.58,-0.09
0.15,-0.57,-0.1
0.11,-0.57,-0.13
0.08,-0.61,-0.17
0.06,-0.64,-0.18
0.06,-0.68,-0.15
0.09,-0.69,-0.13
0.11,-0.72,-0.17
0.11,-0.76,-0.21
0.11,-0.78,-0.23
0.07,-0.8,-0.16
0.05,-0.8,-0.13
0.07,-0.84,-0.17
0.09,-0.88,-0.11
0.12,-0.9,0.12
0.24,-1.19,0.33
0.52,-1.45,0.65
0.86,-1.5,0.83
0.98,-1.55,0.91
0.76,-1.63,0.92
0.54,-1.58,0.67
0.36,-1.44,0.31
0.17,-1.19,0.08
0.13,-0.99,-0.07
0.12,-0.92,-0.15
0.12,-0.9,-0.14
0.14,-0.92,-0.08
0.25,-0.99,0.01
0.38,-1.06,0.04
0.44,-1.1,-0.01
0.51,-1.09,-0.1
0.55,-1.06,-0.23
0.64,-1.07,-0.33
0.71,-1.11,-0.38
0.74,-1.12,-0.39
0.79,-1.09,-0.36
0.83,-1.03,-0.32
0.85,-0.94,-0.29
0.85,-0.84,-0.25
0.89,-0.76,-0.22
0.91,-0.73,-0.09
0.96,-0.81,-0.02
1.02,-0.9,0.05
1.08,-1.01,0.15
1.11,-1.09,0.33
1.16,-1.08,0.5
1.19,-0.98,0.53
1.14,-0.86,0.45
1.05,-0.77,0.37
0.97,-0.68,0.31
0.92,-0.63,0.26
0.94,-0.61,0.26
1,-0.6,0.28
1.03,-0.57,0.32
0.98,-0.56,0.37
0.93,-0.51,0.4
0.87,-0.44,0.39
0.8,-0.42,0.4
0.72,-0.38,0.42
0.64,-0.32,0.43
0.58,-0.31,0.42
0.55,-0.31,0.44
0.51,-0.3,0.47
0.47,-0.32,0.5
0.49,-0.35,0.55
0.53,-0.39,0.6
0.59,-0.42,0.69
0.73,-0.5,0.73
0.77,-0.54,0.75
0.78,-0.56,0.75
0.79,-0.59,0.72
0.79,-0.61,0.68
0.79,-0.61,0.63
0.79,-0.61,0.58
0.79,-0.6,0.53
0.79,-0.59,0.47
0.81,-0.57,0.43
0.83,-0.55,0.41
0.83,-0.52,0.41
0.82,-0.49,0.41
0.81,-0.46,0.4
0.79,-0.43,0.4
0.76,-0.41,0.42
0.73,-0.4,0.44
0.7,-0.41,0.46
0.69,-0.42,0.48
0.69,-0.44,0.49
0.69,-0.47,0.48
0.7,-0.49,0.48
0.72,-0.52,0.46
0.74,-0.54,0.43
0.76,-0.55,0.41
0.78,-0.56,0.36
0.81,-0.56,0.36
0.82,-0.55,0.36
0.83,-0.54,0.37
0.84,-0.52,0.37
0.84,-0.5,0.38
0.84,-0.49,0.4
0.83,-0.48,0.41
0.82,-0.46,0.44
0.81,-0.45,0.45
0.8,-0.45,0.47
0.78,-0.45,0.48
0.77,-0.45,0.5
0.76,-0.45,0.51
0.75,-0.46,0.51
0.74,-0.47,0.51
0.74,-0.48,0.51
0.74,-0.49,0.51
0.74,-0.5,0.51
0.73,-0.51,0.5
0.73,-0.51,0.5
0.73,-0.51,0.49
0.73,-0.51,0.48
0.74,-0.51,0.47
0.75,-0.51,0.46
0.76,-0.51,0.45
0.76,-0.5,0.45
0.76,-0.49,0.45
0.76,-0.49,0.45
0.76,-0.49,0.45
0.77,-0.49,0.46
0.77,-0.49,0.46
0.76,-0.49,0.46
0.76,-0.49,0.46
0.76,-0.49,0.46
0.76,-0.49,0.46
0.75,-0.49,0.46
0.76,-0.49,0.45
0.76,-0.49,0.46
0.76,-0.49,0.46
0.77,-0.49,0.46
0.77,-0.49,0.47
0.77,-0.49,0.47
0.77,-0.49,0.47
0.77,-0.49,0.47
0.76,-0.49,0.47
0.76,-0.5,0.47
0.76,-0.5,0.46
0.75,-0.51,0.46
0.75,-0.51,0.46
0.75,-0.51,0.46
0.75,-0.51,0.46
0.75,-0.51,0.46
0.75,-0.52,0.46
0.75,-0.52,0.46
0.76,-0.52,0.46
0.77,-0.52,0.46
0.78,-0.53,0.46
0.77,-0.52,0.45
0.77,-0.52,0.45
0.76,-0.51,0.45
0.76,-0.5,0.45
0.75,-0.5,0.45
0.74,-0.49,0.45
0.75,-0.49,0.45
0.76,-0.49,0.45
0.76,-0.48,0.45
0.77,-0.48,0.45
0.77,-0.47,0.44
0.78,-0.47,0.44
0.78,-0.47,0.43
0.77,-0.48,0.43
0.76,-0.48,0.44
0.76,-0.49,0.45
0.75,-0.5,0.47
0.74,-0.51,0.48
0.74,-0.51,0.5
0.74,-0.51,0.51
0.73,-0.5,0.53
0.73,-0.49,0.52
0.71,-0.49,0.5
0.72,-0.49,0.48
0.73,-0.5,0.47
0.74,-0.5,0.46
0.75,-0.51,0.46
0.76,-0.52,0.46
0.77,-0.51,0.46
0.77,-0.51,0.45
0.77,-0.51,0.45
0.76,-0.5,0.44
0.76,-0.5,0.43
0.75,-0.51,0.41
0.75,-0.52,0.4
0.75,-0.54,0.4
0.74,-0.56,0.39
0.73,-0.57,0.38
0.73,-0.58,0.39
0.74,-0.6,0.39
0.75,-0.63,0.4
0.75,-0.65,0.41
0.73,-0.65,0.41
0.71,-0.65,0.4
0.67,-0.64,0.4
0.65,-0.64,0.42
0.65,-0.67,0.45
0.67,-0.72,0.52
0.84,-0.81,0.55
0.94,-0.8,0.55
0.96,-0.76,0.49
0.9,-0.7,0.4
0.85,-0.63,0.31
0.89,-0.61,0.25
1.07,-0.6,0.21
1.23,-0.58,0.17
1.27,-0.59,0.15
1.25,-0.61,0.15
1.16,-0.66,0.16
1.08,-0.72,0.14
1.05,-0.78,0.08
1.01,-0.85,0
0.96,-0.92,-0.08
0.91,-0.96,-0.13
0.89,-0.99,-0.16
0.92,-1,-0.18
0.92,-1.01,-0.17
0.88,-1.03,-0.13
0.8,-1.07,-0.07
0.74,-1.11,-0.01
0.69,-1.15,0.04
0.66,-1.21,0.11
0.72,-1.3,0.09
0.81,-1.43,0.02
0.73,-1.63,-0.02
0.69,-1.69,-0.01
0.56,-1.75,0.02
0.4,-1.82,0.03
0.33,-1.81,0.03
0.24,-1.69,0.05
0.22,-1.51,0.06
0.23,-1.33,0.08
0.13,-1.2,0.09
0.06,-1.06,0.08
0,-0.93,0.1
-0.02,-0.8,0.21
0.04,-0.67,0.32
0.11,-0.54,0.32
0.12,-0.44,0.27
0.1,-0.38,0.23
0.12,-0.34,0.19
0.15,-0.3,0.14
0.19,-0.27,0.09
0.3,-0.29,0.05
0.37,-0.34,0.06
0.34,-0.36,0.1
0.26,-0.4,0.12
0.19,-0.43,0.08
0.13,-0.43,0.03
0.11,-0.42,-0.02
0.06,-0.43,-0.03
0.03,-0.43,-0.03
0.02,-0.43,-0.03
0.03,-0.44,-0.04
0.05,-0.46,-0.05
0.1,-0.48,-0.07
0.15,-0.5,-0.07
0.18,-0.53,-0.09
0.23,-0.57,-0.09
0.29,-0.63,-0.09
0.33,-0.69,-0.07
0.35,-0.74,-0.06
0.36,-0.78,-0.05
0.39,-0.83,-0.03
0.4,-0.87,0
0.38,-0.91,0.05
0.39,-0.95,0.08
0.38,-0.99,0.11
0.37,-1.01,0.12
0.38,-1,0.13
0.39,-0.99,0.15
0.41,-1.01,0.13
0.42,-1.01,0.15
0.44,-1,0.18
0.45,-1.01,0.18
0.46,-1.02,0.23
0.53,-1.04,0.26
0.57,-1.04,0.33
0.59,-1.03,0.4
0.61,-1.03,0.47
0.62,-1,0.46
0.58,-0.98,0.42
0.54,-0.96,0.39
0.49,-0.95,0.33
0.45,-0.93,0.26
0.48,-0.89,0.22
0.47,-0.87,0.19
0.44,-0.87,0.16
0.42,-0.87,0.13
0.47,-0.87,0.11
0.48,-0.87,0.1
0.47,-0.86,0.11
0.46,-0.86,0.1
0.44,-0.87,0.08
0.43,-0.88,0.08
0.42,-0.88,0.08
0.42,-0.88,0.07
0.42,-0.88,0.07
0.43,-0.89,0.08
0.43,-0.89,0.09
0.42,-0.9,0.1
0.42,-0.91,0.12
0.41,-0.93,0.14
0.43,-0.93,0.16
0.44,-0.94,0.17
0.43,-0.94,0.17
0.43,-0.94,0.18
0.43,-0.95,0.19
0.43,-0.95,0.2
0.44,-0.95,0.21
0.43,-0.95,0.22
0.43,-0.95,0.22
0.42,-0.95,0.23
0.41,-0.95,0.22
0.4,-0.94,0.2
0.38,-0.94,0.19
0.37,-0.93,0.18
0.37,-0.93,0.16
0.38,-0.93,0.16
0.38,-0.92,0.15
0.37,-0.92,0.14
0.38,-0.92,0.14
0.37,-0.92,0.13
0.38,-0.93,0.13
0.38,-0.93,0.12
0.38,-0.93,0.13
0.38,-0.93,0.13
0.38,-0.93,0.13
0.38,-0.93,0.13
0.37,-0.93,0.13
0.37,-0.93,0.13
0.37,-0.94,0.13
0.37,-0.94,0.14
0.38,-0.94,0.14
0.37,-0.94,0.14
0.37,-0.95,0.14
0.37,-0.95,0.15
0.36,-0.95,0.15
0.36,-0.95,0.16
0.35,-0.95,0.15
0.35,-0.95,0.15
0.36,-0.95,0.15
0.36,-0.94,0.15
0.36,-0.93,0.15
0.36,-0.93,0.14
0.37,-0.93,0.14
0.36,-0.93,0.14
0.36,-0.92,0.14
0.37,-0.92,0.13
0.37,-0.92,0.13
0.37,-0.93,0.13
0.37,-0.93,0.13
0.38,-0.93,0.13
0.38,-0.93,0.13
0.38,-0.93,0.12
0.39,-0.93,0.12
0.39,-0.93,0.12
0.39,-0.94,0.12
0.39,-0.93,0.12
0.39,-0.92,0.13
0.39,-0.92,0.13
0.39,-0.92,0.13
0.38,-0.93,0.13
0.39,-0.93,0.13
0.39,-0.94,0.13
0.39,-0.94,0.14
0.39,-0.94,0.14
0.39,-0.94,0.14
0.39,-0.94,0.14
0.4,-0.94,0.14
0.4,-0.94,0.14
0.4,-0.94,0.14
0.4,-0.94,0.13
0.4,-0.94,0.13
0.4,-0.95,0.12
0.4,-0.95,0.11
0.41,-0.95,0.12
0.4,-0.95,0.12
0.4,-0.94,0.12
0.4,-0.94,0.13
0.4,-0.93,0.12
0.4,-0.94,0.12
0.4,-0.94,0.12
0.39,-0.93,0.12
0.38,-0.93,0.12
0.38,-0.93,0.11
0.37,-0.94,0.11
0.37,-0.94,0.11
0.37,-0.94,0.11
0.37,-0.94,0.11
0.37,-0.94,0.11
0.38,-0.94,0.11
0.38,-0.94,0.12
0.39,-0.94,0.12
0.39,-0.94,0.13
0.4,-0.94,0.13
0.41,-0.94,0.12
0.41,-0.93,0.12
0.41,-0.93,0.12
0.41,-0.93,0.11
0.41,-0.93,0.11
0.41,-0.93,0.11
0.41,-0.93,0.12
0.43,-0.93,0.11
0.43,-0.93,0.11
0.4,-0.94,0.12
0.4,-0.94,0.12
0.41,-0.93,0.12
0.4,-0.93,0.11
0.39,-0.93,0.11
0.39,-0.93,0.11
0.39,-0.93,0.11
0.39,-0.93,0.11
0.39,-0.93,0.11
0.39,-0.93,0.11
0.39,-0.94,0.11
0.39,-0.94,0.11
0.39,-0.93,0.1
0.42,-0.94,0.1
0.45,-0.95,0.1
0.49,-0.94,0.09
0.5,-0.94,0.08
0.45,-0.95,0.11
0.44,-0.94,0.13
0.48,-0.93,0.1
0.46,-0.93,0.09
0.4,-0.93,0.11
0.38,-0.94,0.15
0.36,-0.93,0.17
0.35,-0.92,0.2
0.33,-0.91,0.24
0.31,-0.91,0.23
0.33,-0.91,0.2
0.38,-0.91,0.13
0.39,-0.91,0.13
0.4,-0.91,0.13
0.39,-0.92,0.13
0.38,-0.93,0.13
0.36,-0.94,0.13
0.34,-0.94,0.13
0.34,-0.94,0.14
0.33,-0.94,0.14
0.33,-0.94,0.15
0.33,-0.94,0.15
0.33,-0.95,0.15
0.34,-0.95,0.15
0.34,-0.95,0.15
0.34,-0.95,0.15
0.34,-0.95,0.15
0.34,-0.95,0.16
0.34,-0.96,0.16
0.33,-0.96,0.17
0.33,-0.95,0.18
0.33,-0.95,0.18
0.34,-0.95,0.17
0.34,-0.95,0.17
0.34,-0.94,0.17
0.35,-0.94,0.17
0.36,-0.94,0.16
0.37,-0.93,0.15
0.37,-0.93,0.14
0.38,-0.94,0.14
0.38,-0.94,0.13
0.38,-0.95,0.14
0.38,-0.95,0.14
0.38,-0.96,0.15
0.38,-0.95,0.15
0.38,-0.95,0.15
0.38,-0.95,0.15
0.39,-0.95,0.15
0.39,-0.95,0.15
0.38,-0.95,0.15
0.38,-0.95,0.15
0.37,-0.95,0.14
0.37,-0.94,0.14
0.37,-0.94,0.13
0.37,-0.94,0.13
0.37,-0.94,0.14
0.37,-0.95,0.14
0.37,-0.94,0.15
0.36,-0.94,0.14
0.36,-0.94,0.14
0.36,-0.94,0.13
0.36,-0.94,0.13
0.35,-0.94,0.13
0.36,-0.93,0.12
0.36,-0.92,0.11
0.35,-0.92,0.12
0.35,-0.91,0.13
0.35,-0.91,0.13
0.35,-0.91,0.14
0.34,-0.9,0.14
0.34,-0.89,0.14
0.33,-0.88,0.15
0.32,-0.86,0.15
0.31,-0.85,0.14
0.32,-0.83,0.13
0.33,-0.84,0.1
0.34,-0.84,0.07
0.35,-0.81,0.07
0.37,-0.8,0.05
0.38,-0.78,0.04
0.35,-0.79,0.02
0.34,-0.8,0.01
0.33,-0.81,-0.03
0.33,-0.8,-0.07
0.32,-0.77,-0.12
0.27,-0.73,-0.12
0.23,-0.67,-0.13
0.21,-0.62,-0.18
0.14,-0.59,-0.19
0.09,-0.57,-0.16
0.06,-0.52,-0.14
0.05,-0.5,-0.15
0.03,-0.51,-0.16
0.02,-0.51,-0.16
0.05,-0.5,-0.16
0.07,-0.5,-0.18
0.09,-0.53,-0.18
0.07,-0.6,-0.19
0.07,-0.64,-0.17
0.09,-0.66,-0.1
0.11,-0.72,-0.04
0.13,-0.78,0.01
0.12,-0.85,0.05
0.06,-0.99,0.09
0.1,-1.15,0.21
0.26,-1.21,0.33
0.48,-1.26,0.42
0.7,-1.42,0.52
0.81,-1.58,0.55
0.9,-1.61,0.41
0.92,-1.58,0.19
0.75,-1.52,-0.01
0.46,-1.35,-0.17
0.22,-1.14,-0.29
0.17,-0.98,-0.36
0.27,-0.93,-0.32
0.57,-1.04,-0.16
0.68,-1.02,-0.05
0.69,-0.96,-0.04
0.63,-0.85,-0.08
0.61,-0.75,-0.11
0.68,-0.71,-0.13
0.78,-0.74,-0.13
0.9,-0.77,-0.14
1.03,-0.83,-0.11
1.16,-0.9,-0.04
1.59,-0.93,0.15
2.56,-1.16,0.18
2.4,-1.39,0.34
1.35,-1.2,0.75
0.83,-0.99,0.76
0.37,-1.02,0.51
0.31,-1.08,0.39
0.69,-1.02,0.41
0.97,-0.91,0.45
1.02,-0.93,0.52
0.89,-0.93,0.58
0.76,-0.85,0.62
0.58,-0.75,0.63
0.4,-0.64,0.65
0.24,-0.51,0.68
0.11,-0.44,0.68
0.02,-0.43,0.67
0.05,-0.48,0.65
0.14,-0.51,0.6
0.22,-0.54,0.56
0.28,-0.58,0.53
0.35,-0.63,0.51
0.44,-0.68,0.49
0.53,-0.72,0.48
0.6,-0.75,0.48
0.66,-0.77,0.49
0.71,-0.79,0.5
0.76,-0.81,0.49
0.81,-0.82,0.48
0.83,-0.84,0.46
0.82,-0.86,0.45
0.81,-0.85,0.42
0.78,-0.83,0.4
0.73,-0.79,0.39
0.67,-0.75,0.39
0.64,-0.71,0.4
0.62,-0.67,0.39
0.6,-0.63,0.39
0.58,-0.61,0.4
0.57,-0.6,0.41
0.57,-0.59,0.42
0.57,-0.59,0.43
0.56,-0.6,0.47
0.57,-0.61,0.49
0.57,-0.62,0.5
0.58,-0.63,0.52
0.6,-0.64,0.52
0.61,-0.64,0.53
0.63,-0.64,0.53
0.64,-0.65,0.52
0.65,-0.65,0.51
0.66,-0.65,0.51
0.67,-0.65,0.51
0.67,-0.64,0.51
0.66,-0.63,0.51
0.66,-0.62,0.5
0.65,-0.62,0.5
0.64,-0.61,0.51
0.63,-0.61,0.51
0.63,-0.62,0.52
0.62,-0.61,0.52
0.6,-0.61,0.53
0.59,-0.62,0.54
0.58,-0.61,0.55
0.58,-0.61,0.55
0.58,-0.61,0.55
0.59,-0.61,0.55
0.59,-0.61,0.54
0.6,-0.62,0.52
0.61,-0.63,0.51
0.62,-0.64,0.5
0.62,-0.65,0.5
0.63,-0.65,0.49
0.63,-0.65,0.49
0.63,-0.65,0.48
0.63,-0.65,0.48
0.62,-0.64,0.49
0.62,-0.64,0.5
0.63,-0.64,0.5
0.63,-0.63,0.49
0.64,-0.62,0.48
0.65,-0.62,0.48
0.65,-0.62,0.47
0.65,-0.62,0.47
0.64,-0.63,0.48
0.64,-0.63,0.48
0.63,-0.63,0.49
0.63,-0.63,0.49
0.63,-0.63,0.49
0.63,-0.63,0.49
0.63,-0.63,0.49
0.64,-0.63,0.49
0.64,-0.63,0.49
0.64,-0.64,0.48
0.65,-0.63,0.48
0.65,-0.63,0.48
0.65,-0.63,0.48
0.64,-0.64,0.48
0.64,-0.63,0.48
0.64,-0.63,0.48
0.64,-0.64,0.47
0.64,-0.63,0.47
0.64,-0.63,0.47
0.65,-0.63,0.47
0.65,-0.63,0.47
0.65,-0.62,0.47
0.65,-0.62,0.47
0.65,-0.62,0.47
0.65,-0.62,0.47
0.65,-0.62,0.48
0.65,-0.62,0.48
0.65,-0.63,0.48
0.65,-0.63,0.48
0.65,-0.63,0.48
0.65,-0.63,0.47
0.65,-0.63,0.47
0.65,-0.63,0.47
0.66,-0.63,0.47
0.65,-0.63,0.47
0.65,-0.62,0.47
0.65,-0.62,0.47
0.65,-0.62,0.48
0.65,-0.62,0.48
0.65,-0.62,0.48
0.65,-0.62,0.48
0.65,-0.62,0.48
0.65,-0.62,0.48
0.65,-0.62,0.48
0.65,-0.62,0.48
0.65,-0.62,0.48
0.65,-0.62,0.48
0.65,-0.62,0.47
0.65,-0.62,0.47
0.65,-0.63,0.47
0.66,-0.62,0.47
0.66,-0.62,0.47
0.66,-0.62,0.47
0.67,-0.62,0.47
0.67,-0.62,0.48
0.66,-0.61,0.48
0.66,-0.61,0.48
0.66,-0.61,0.49
0.66,-0.61,0.49
0.66,-0.61,0.49
0.66,-0.61,0.49
0.66,-0.61,0.49
0.66,-0.61,0.49
0.65,-0.61,0.49
0.65,-0.61,0.49
0.65,-0.61,0.49
0.65,-0.61,0.49
0.65,-0.61,0.49
0.65,-0.61,0.49
0.66,-0.6,0.49
0.66,-0.59,0.48
0.66,-0.6,0.47
0.65,-0.6,0.46
0.64,-0.6,0.46
0.64,-0.61,0.45
0.64,-0.61,0.45
0.66,-0.61,0.46
0.67,-0.61,0.48
0.66,-0.6,0.5
0.66,-0.6,0.5
0.68,-0.61,0.49
0.68,-0.61,0.48
0.68,-0.6,0.48
0.67,-0.61,0.46
0.67,-0.61,0.45
0.67,-0.61,0.45
0.66,-0.62,0.47
0.64,-0.62,0.47
0.63,-0.63,0.46
0.66,-0.62,0.44
0.67,-0.62,0.43
0.67,-0.62,0.43
0.66,-0.62,0.43
0.64,-0.62,0.42
0.62,-0.62,0.41
0.62,-0.62,0.4
0.63,-0.62,0.39
0.64,-0.63,0.39
0.63,-0.63,0.39
0.62,-0.63,0.38
0.59,-0.62,0.35
0.54,-0.6,0.32
0.51,-0.59,0.29
0.56,-0.61,0.27
0.67,-0.64,0.27
0.78,-0.67,0.29
0.84,-0.72,0.33
0.85,-0.73,0.33
0.87,-0.7,0.32
0.85,-0.71,0.33
0.81,-0.74,0.34
0.78,-0.8,0.35
0.83,-0.91,0.37
0.94,-1.05,0.42
1,-1.16,0.48
0.77,-1.04,0.44
0.63,-0.9,0.36
0.59,-0.79,0.3
0.64,-0.74,0.3
0.75,-0.74,0.32
0.88,-0.77,0.35
0.98,-0.81,0.39
0.98,-0.81,0.43
0.92,-0.8,0.45
0.86,-0.82,0.45
0.8,-0.86,0.45
0.8,-0.92,0.43
0.85,-0.97,0.39
0.86,-1,0.32
0.86,-0.97,0.22
0.87,-0.93,0.11
0.89,-0.92,0
0.93,-0.93,-0.06
0.94,-0.95,-0.08
0.92,-1,-0.07
0.92,-1.06,-0.03
0.9,-1.13,0.05
0.92,-1.18,0.11
0.97,-1.23,0.08
0.97,-1.31,0.02
0.96,-1.38,-0.02
0.91,-1.46,-0.09
0.73,-1.49,-0.08
0.59,-1.54,-0.05
0.47,-1.54,-0.01
0.38,-1.48,-0.01
0.26,-1.39,0
0.19,-1.25,0.02
0.04,-1.13,0.06
-0.08,-1.03,0.07
-0.07,-0.95,0.1
-0.08,-0.85,0.15
-0.09,-0.72,0.14
-0.15,-0.6,0.13
-0.2,-0.46,0.13
-0.21,-0.29,0.12
-0.19,-0.17,0.09
-0.14,-0.09,0.05
-0.03,-0.02,0.04
0.12,0.01,0.04
0.17,-0.01,0.05
0.19,-0.05,0.04
0.22,-0.11,0
0.27,-0.13,-0.01
0.3,-0.19,-0.02
0.29,-0.29,-0.02
0.3,-0.34,-0.01
0.35,-0.46,-0.07
0.4,-0.56,-0.09
0.41,-0.68,-0.11
0.42,-0.78,-0.13
0.39,-0.89,-0.13
0.35,-1.02,-0.1
0.32,-1.14,-0.07
0.33,-1.22,-0.04
0.35,-1.27,-0.03
0.38,-1.28,-0.03
0.39,-1.25,-0.02
0.39,-1.2,0
0.37,-1.14,0.01
0.36,-1.08,0.02
0.37,-1,0.04
0.39,-0.93,0.06
0.39,-0.87,0.07
0.38,-0.83,0.09
0.38,-0.8,0.11
0.37,-0.79,0.13
0.35,-0.78,0.16
0.34,-0.79,0.17
0.34,-0.79,0.19
0.35,-0.81,0.21
0.34,-0.83,0.23
0.35,-0.86,0.25
0.38,-0.88,0.24
0.45,-0.94,0.22
0.49,-0.96,0.23
0.51,-0.97,0.24
0.5,-0.98,0.21
0.5,-0.98,0.17
0.51,-0.97,0.14
0.52,-0.97,0.1
0.53,-0.97,0.09
0.52,-0.96,0.09
0.5,-0.96,0.1
0.49,-0.95,0.1
0.45,-0.95,0.11
0.43,-0.94,0.11
0.42,-0.93,0.1
0.4,-0.92,0.1
0.38,-0.92,0.11
0.35,-0.92,0.11
0.34,-0.92,0.12
0.34,-0.92,0.12
0.34,-0.92,0.12
0.35,-0.93,0.12
0.36,-0.93,0.12
0.37,-0.93,0.12
0.38,-0.93,0.11
0.38,-0.93,0.12
0.38,-0.93,0.14
0.37,-0.93,0.14
0.37,-0.94,0.14
0.38,-0.94,0.14
0.38,-0.94,0.14
0.38,-0.95,0.14
0.38,-0.94,0.14
0.39,-0.93,0.14
0.39,-0.93,0.14
0.38,-0.93,0.14
0.38,-0.93,0.13
0.38,-0.93,0.13
0.38,-0.93,0.13
0.38,-0.93,0.13
0.38,-0.94,0.13
0.38,-0.94,0.13
0.38,-0.94,0.12
0.38,-0.95,0.12
0.38,-0.95,0.12
0.37,-0.95,0.12
0.37,-0.95,0.12
0.37,-0.95,0.12
0.36,-0.95,0.12
0.36,-0.95,0.12
0.36,-0.95,0.12
0.36,-0.95,0.12
0.35,-0.95,0.12
0.34,-0.95,0.12
0.34,-0.95,0.12
0.34,-0.95,0.12
0.34,-0.96,0.12
0.33,-0.96,0.13
0.33,-0.96,0.13
0.33,-0.96,0.13
0.33,-0.96,0.13
0.33,-0.96,0.14
0.33,-0.95,0.13
0.33,-0.95,0.13
0.34,-0.95,0.13
0.34,-0.95,0.13
0.35,-0.95,0.13
0.35,-0.95,0.13
0.35,-0.95,0.13
0.35,-0.95,0.12
0.35,-0.94,0.12
0.35,-0.95,0.12
0.35,-0.95,0.12
0.35,-0.95,0.12
0.35,-0.95,0.12
0.35,-0.95,0.12
0.35,-0.96,0.12
0.35,-0.96,0.13
0.34,-0.95,0.12
0.34,-0.96,0.12
0.34,-0.97,0.12
0.34,-0.97,0.12
0.34,-0.97,0.12
0.34,-0.96,0.12
0.34,-0.95,0.13
0.33,-0.95,0.13
0.33,-0.96,0.13
0.33,-0.96,0.13
0.34,-0.96,0.13
0.34,-0.96,0.13
0.34,-0.95,0.13
0.34,-0.95,0.13
0.34,-0.95,0.12
0.34,-0.95,0.12
0.34,-0.95,0.12
0.34,-0.95,0.11
0.35,-0.95,0.1
0.36,-0.96,0.1
0.37,-0.96,0.1
0.37,-0.96,0.1
0.38,-0.97,0.1
0.38,-0.97,0.1
0.38,-0.97,0.1
0.38,-0.98,0.1
0.38,-0.97,0.1
0.37,-0.96,0.1
0.34,-0.95,0.11
0.33,-0.94,0.11
0.32,-0.93,0.11
0.31,-0.92,0.1
0.29,-0.91,0.1
0.29,-0.9,0.1
0.27,-0.89,0.11
0.25,-0.89,0.11
0.25,-0.87,0.12
0.25,-0.86,0.12
0.26,-0.86,0.09
0.26,-0.86,0.06
0.27,-0.85,0.04
0.28,-0.84,0.02
0.27,-0.83,0.02
0.29,-0.82,0.03
0.31,-0.79,0.03
0.29,-0.77,0
0.28,-0.76,-0.05
0.29,-0.75,-0.07
0.28,-0.72,-0.06
0.24,-0.69,-0.05
0.22,-0.7,-0.07
0.22,-0.7,-0.07
0.21,-0.68,-0.06
0.21,-0.67,-0.11
0.21,-0.63,-0.15
0.18,-0.63,-0.16
0.14,-0.66,-0.14
0.12,-0.68,-0.09
0.11,-0.71,-0.02
0.08,-0.73,0.04
0.07,-0.74,0.06
0.07,-0.75,0.05
0.08,-0.75,0.04
0.11,-0.76,-0.01
0.16,-0.79,-0.06
0.21,-0.82,-0.08
0.25,-0.85,-0.08
0.22,-0.91,-0.08
0.22,-1.03,-0.09
0.3,-1.11,0.07
0.35,-1.14,0.33
0.44,-1.17,0.51
0.54,-1.17,0.57
0.56,-1.17,0.52
0.6,-1.14,0.36
0.63,-1.07,0.17
0.56,-1.01,0.03
0.48,-0.94,-0.09
0.34,-0.89,-0.17
0.23,-0.85,-0.24
0.41,-0.85,-0.26
0.48,-0.92,-0.22
0.55,-0.96,-0.15
0.64,-0.97,-0.15
0.73,-0.97,-0.18
0.82,-0.96,-0.22
0.89,-0.93,-0.26
0.93,-0.91,-0.28
0.94,-0.9,-0.28
0.95,-0.88,-0.27
0.93,-0.87,-0.24
0.9,-0.85,-0.17
0.87,-0.85,-0.09
0.81,-0.87,-0.01
0.8,-0.92,0.04
0.84,-1,0.08
0.9,-1.11,0.12
1.05,-1.29,0.2
1.27,-1.44,0.37
1.46,-1.45,0.59
1.42,-1.33,0.7
1.22,-1.16,0.67
1.07,-0.99,0.58
0.92,-0.85,0.49
0.78,-0.77,0.42
0.69,-0.73,0.44
0.54,-0.66,0.46
0.47,-0.62,0.46
0.42,-0.58,0.45
0.43,-0.53,0.44
0.45,-0.49,0.42
0.43,-0.46,0.4
0.41,-0.43,0.35
0.41,-0.41,0.31
0.42,-0.4,0.32
0.43,-0.41,0.34
0.45,-0.45,0.34
0.48,-0.52,0.37
0.52,-0.6,0.41
0.56,-0.69,0.47
0.61,-0.77,0.53
0.66,-0.83,0.57
0.71,-0.88,0.6
0.75,-0.9,0.6
0.78,-0.91,0.59
0.82,-0.87,0.57
0.84,-0.81,0.53
0.83,-0.75,0.49
0.83,-0.68,0.46
0.83,-0.63,0.43
0.82,-0.59,0.42
0.8,-0.56,0.42
0.75,-0.52,0.43
0.71,-0.51,0.43
0.67,-0.5,0.42
0.64,-0.51,0.42
0.61,-0.52,0.42
0.58,-0.54,0.42
0.57,-0.56,0.42
0.58,-0.59,0.42
0.6,-0.61,0.42
0.63,-0.64,0.42
0.65,-0.66,0.42
0.68,-0.68,0.43
0.72,-0.69,0.42
0.74,-0.69,0.41
0.75,-0.7,0.41
0.75,-0.69,0.42
0.74,-0.68,0.42
0.73,-0.66,0.42
0.71,-0.65,0.43
0.69,-0.63,0.43
0.68,-0.62,0.43
0.66,-0.6,0.44
0.64,-0.59,0.44
0.64,-0.58,0.44
0.65,-0.58,0.45
0.65,-0.59,0.46
0.67,-0.6,0.47
0.67,-0.6,0.47
0.67,-0.61,0.47
0.67,-0.62,0.46
0.66,-0.63,0.46
0.66,-0.63,0.46
0.66,-0.63,0.45
0.66,-0.63,0.45
0.66,-0.63,0.45
0.66,-0.63,0.45
0.67,-0.63,0.45
0.67,-0.62,0.45
0.67,-0.62,0.45
0.67,-0.62,0.45
0.67,-0.61,0.45
0.67,-0.61,0.45
0.67,-0.61,0.46
0.66,-0.61,0.46
0.66,-0.61,0.46
0.66,-0.61,0.46
0.66,-0.62,0.46
0.66,-0.62,0.46
0.66,-0.62,0.46
0.65,-0.62,0.46
0.65,-0.62,0.46
0.66,-0.62,0.46
0.66,-0.62,0.47
0.66,-0.62,0.46
0.66,-0.62,0.46
0.66,-0.62,0.44
0.65,-0.62,0.43
0.63,-0.62,0.43
0.62,-0.62,0.43
0.63,-0.62,0.43
0.64,-0.62,0.44
0.65,-0.62,0.44
0.65,-0.62,0.45
0.66,-0.63,0.46
0.66,-0.63,0.46
0.67,-0.63,0.46
0.67,-0.64,0.46
0.67,-0.65,0.46
0.67,-0.65,0.46
0.66,-0.65,0.46
0.65,-0.65,0.45
0.65,-0.65,0.45
0.64,-0.65,0.44
0.63,-0.65,0.44
0.63,-0.65,0.44
0.63,-0.66,0.43
0.64,-0.66,0.42
0.64,-0.67,0.42
0.61,-0.67,0.4
0.59,-0.66,0.39
0.58,-0.66,0.37
0.57,-0.66,0.36
0.6,-0.67,0.34
0.62,-0.7,0.33
0.63,-0.72,0.33
0.63,-0.74,0.32
0.63,-0.76,0.3
0.62,-0.77,0.29
0.62,-0.77,0.28
0.63,-0.78,0.27
0.65,-0.79,0.26
0.66,-0.81,0.26
0.68,-0.84,0.26
0.75,-0.9,0.28
0.85,-0.99,0.32
0.92,-1.1,0.36
0.94,-1.16,0.4
0.85,-1.13,0.39
0.74,-1.02,0.34
0.71,-0.92,0.28
0.75,-0.87,0.25
0.83,-0.85,0.25
0.86,-0.81,0.26
0.87,-0.75,0.26
0.92,-0.73,0.24
1.03,-0.79,0.25
1.01,-0.85,0.25
0.95,-0.92,0.25
0.89,-0.97,0.24
0.84,-1,0.21
0.79,-1,0.18
0.73,-1,0.14
0.7,-1,0.11
0.71,-1,0.09
0.73,-0.99,0.06
0.74,-0.95,0.02
0.75,-0.92,-0.04
0.77,-0.91,-0.12
0.78,-0.93,-0.18
0.79,-0.97,-0.2
0.81,-1.02,-0.21
0.77,-1.09,-0.19
0.75,-1.17,-0.18
0.76,-1.2,-0.17
0.76,-1.2,-0.16
0.74,-1.2,-0.15
0.71,-1.2,-0.16
0.7,-1.19,-0.18
0.65,-1.19,-0.2
0.58,-1.2,-0.2
0.53,-1.21,-0.1
0.23,-1.21,-0.05
0.22,-1.16,-0.01
0.18,-1.11,0.02
0.16,-1.04,0.03
0.17,-0.99,0.04
0.13,-0.95,0.08
0.05,-0.85,0.12
0,-0.75,0.15
0,-0.69,0.19
-0.02,-0.65,0.22
-0.03,-0.63,0.27
-0.02,-0.63,0.31
0,-0.61,0.32
0,-0.59,0.31
0.01,-0.6,0.29
0.03,-0.62,0.25
0.03,-0.63,0.19
0.03,-0.61,0.1
0,-0.6,0.06
-0.04,-0.59,0.04
-0.04,-0.58,0.03
-0.01,-0.55,0.04
0.03,-0.52,0.07
0.06,-0.5,0.1
0.08,-0.48,0.1
0.09,-0.47,0.07
0.11,-0.5,0.04
0.14,-0.55,0.03
0.15,-0.6,0.03
0.2,-0.66,0.05
0.28,-0.71,0.07
0.34,-0.76,0.08
0.39,-0.82,0.1
0.43,-0.87,0.1
0.45,-0.91,0.09
0.44,-0.95,0.11
0.45,-0.97,0.13
0.45,-0.99,0.15
0.46,-1,0.16
0.42,-1,0.18
0.39,-1,0.17
0.46,-0.99,0.17
0.58,-1,0.2
0.72,-1,0.21
0.78,-0.99,0.22
0.77,-0.97,0.2
0.71,-0.97,0.2
0.66,-0.98,0.23
0.69,-0.97,0.19
0.7,-0.94,0.16
0.65,-0.91,0.16
0.6,-0.88,0.13
0.56,-0.84,0.13
0.54,-0.82,0.13
0.52,-0.81,0.14
0.5,-0.81,0.14
0.49,-0.82,0.15
0.48,-0.82,0.16
0.47,-0.83,0.17
0.47,-0.84,0.17
0.47,-0.85,0.16
0.49,-0.86,0.16
0.49,-0.87,0.17
0.5,-0.88,0.17
0.5,-0.88,0.18
0.5,-0.89,0.18
0.5,-0.9,0.19
0.5,-0.9,0.2
0.49,-0.91,0.2
0.48,-0.91,0.2
0.46,-0.91,0.2
0.45,-0.91,0.2
0.45,-0.9,0.2
0.44,-0.9,0.2
0.44,-0.9,0.2
0.43,-0.9,0.2
0.42,-0.89,0.2
0.42,-0.89,0.2
0.42,-0.89,0.19
0.43,-0.88,0.18
0.43,-0.88,0.18
0.43,-0.88,0.18
0.43,-0.88,0.18
0.43,-0.88,0.17
0.43,-0.88,0.17
0.43,-0.89,0.17
0.44,-0.89,0.17
0.44,-0.89,0.17
0.44,-0.89,0.17
0.44,-0.9,0.17
0.44,-0.9,0.17
0.44,-0.9,0.17
0.44,-0.91,0.17
0.45,-0.91,0.17
0.45,-0.91,0.17
0.45,-0.92,0.17
0.45,-0.91,0.17
0.45,-0.91,0.17
0.45,-0.91,0.17
0.45,-0.9,0.17
0.45,-0.9,0.16
0.45,-0.9,0.16
0.45,-0.89,0.15
0.44,-0.89,0.15
0.44,-0.89,0.14
0.44,-0.9,0.13
0.44,-0.9,0.13
0.44,-0.9,0.12
0.44,-0.9,0.12
0.43,-0.91,0.12
0.42,-0.91,0.12
0.42,-0.91,0.12
0.42,-0.91,0.11
0.42,-0.91,0.11
0.42,-0.91,0.1
0.41,-0.91,0.1
0.4,-0.9,0.1
0.39,-0.9,0.09
0.38,-0.9,0.09
0.38,-0.9,0.09
0.37,-0.89,0.09
0.35,-0.87,0.08
0.34,-0.87,0.07
0.33,-0.88,0.06
0.33,-0.89,0.04
0.34,-0.88,0.04
0.34,-0.87,0.04
0.32,-0.86,0.04
0.3,-0.87,0.01
0.28,-0.87,-0.01
0.28,-0.86,-0.02
0.25,-0.85,-0.01
0.23,-0.84,0
0.22,-0.84,0
0.21,-0.82,-0.01
0.2,-0.8,-0.01
0.19,-0.78,-0.01
0.18,-0.77,-0.03
0.18,-0.77,-0.03
0.2,-0.77,-0.01
0.22,-0.79,0
0.22,-0.8,0
0.2,-0.78,0.02
0.24,-0.76,-0.09
0.25,-0.75,-0.11
0.22,-0.76,0
0.23,-0.77,0.01
0.22,-0.79,0.03
0.21,-0.83,0.08
0.22,-0.83,0.09
0.26,-0.81,0.08
0.26,-0.82,0.1
0.24,-0.82,0.1
0.23,-0.79,0.08
0.24,-0.76,0.05
0.29,-0.76,0
0.34,-0.77,0.01
0.4,-0.85,0.04
0.38,-0.9,0.08
0.39,-0.98,0.11
0.41,-1.02,0.11
0.42,-1.02,0.08
0.41,-1.01,0.04
0.34,-0.97,0
0.25,-0.93,-0.03
0.17,-0.9,-0.07
0.16,-0.89,-0.12
0.25,-0.94,-0.19
0.35,-1.01,-0.24
0.38,-1.08,-0.22
0.34,-1.12,-0.17
0.26,-1.14,-0.14
0.26,-1.11,-0.17
0.37,-1.13,-0.24
0.44,-1.06,-0.33
0.55,-0.9,-0.42
0.72,-0.85,-0.46
0.82,-0.82,-0.44
0.82,-0.8,-0.38
0.8,-0.79,-0.33
0.89,-0.84,-0.31
0.96,-0.89,-0.3
0.94,-0.91,-0.28
0.84,-0.96,-0.27
0.83,-1,-0.26
0.85,-1.03,-0.22
0.93,-1.06,-0.14
1,-1.14,-0.1
1.05,-1.36,0.03
1.26,-1.46,0.3
1.34,-1.46,0.48
1.17,-1.46,0.54
1.01,-1.29,0.54
0.91,-1.04,0.46
0.8,-0.84,0.42
0.69,-0.7,0.42
0.61,-0.64,0.44
0.56,-0.62,0.47
0.54,-0.61,0.5
0.54,-0.6,0.52
0.53,-0.6,0.53
0.52,-0.59,0.54
0.51,-0.56,0.53
0.5,-0.54,0.51
0.5,-0.51,0.47
0.48,-0.49,0.4
0.47,-0.49,0.35
0.49,-0.51,0.35
0.49,-0.54,0.41
0.54,-0.64,0.45
0.58,-0.7,0.5
0.6,-0.74,0.55
0.61,-0.78,0.57
0.61,-0.81,0.57
0.64,-0.82,0.57
0.66,-0.83,0.56
0.68,-0.83,0.54
0.7,-0.81,0.52
0.71,-0.77,0.49
0.72,-0.74,0.47
0.71,-0.7,0.46
0.7,-0.67,0.45
0.69,-0.64,0.43
0.68,-0.6,0.43
0.66,-0.58,0.43
0.64,-0.55,0.43
0.62,-0.53,0.42
0.61,-0.53,0.42
0.61,-0.54,0.43
0.62,-0.54,0.44
0.63,-0.55,0.44
0.64,-0.57,0.45
0.65,-0.6,0.45
0.66,-0.63,0.44
0.67,-0.65,0.43
0.67,-0.69,0.41
0.69,-0.71,0.42
0.69,-0.71,0.42
0.69,-0.71,0.41
0.69,-0.7,0.4
0.68,-0.69,0.4
0.67,-0.68,0.4
0.67,-0.67,0.41
0.68,-0.66,0.41
0.68,-0.65,0.41
0.68,-0.65,0.42
0.7,-0.64,0.42
0.72,-0.65,0.43
0.74,-0.65,0.44
0.74,-0.65,0.45
0.74,-0.65,0.46
0.73,-0.65,0.46
0.7,-0.64,0.46
0.67,-0.64,0.45
0.65,-0.63,0.44
0.63,-0.62,0.44
0.63,-0.61,0.45
0.64,-0.59,0.48
0.65,-0.56,0.49
0.64,-0.54,0.47
0.61,-0.56,0.47
0.61,-0.58,0.45
0.62,-0.59,0.46
0.62,-0.61,0.46
0.61,-0.61,0.46
0.6,-0.61,0.46
0.6,-0.62,0.46
0.6,-0.64,0.47
0.59,-0.65,0.48
0.58,-0.66,0.49
0.57,-0.66,0.49
0.58,-0.67,0.49
0.59,-0.67,0.48
0.58,-0.67,0.45
0.58,-0.67,0.43
0.58,-0.67,0.4
0.57,-0.67,0.38
0.58,-0.66,0.38
0.58,-0.66,0.37
0.57,-0.67,0.36
0.57,-0.68,0.35
0.59,-0.7,0.35
0.61,-0.73,0.35
0.62,-0.76,0.34
0.63,-0.78,0.34
0.65,-0.81,0.33
0.65,-0.82,0.31
0.63,-0.81,0.27
0.59,-0.8,0.26
0.6,-0.82,0.26
0.65,-0.88,0.27
0.76,-0.98,0.29
0.89,-1.11,0.33
0.96,-1.21,0.36
0.9,-1.22,0.39
0.79,-1.11,0.35
0.73,-0.98,0.3
0.74,-0.92,0.26
0.8,-0.88,0.24
0.86,-0.87,0.21
0.89,-0.86,0.18
0.93,-0.87,0.15
0.96,-0.95,0.12
0.91,-1.05,0.1
0.83,-1.09,0.08
0.79,-1.09,0.03
0.77,-1.06,-0.02
0.73,-1.03,-0.04
0.71,-1.01,-0.05
0.71,-1.01,-0.04
0.7,-1.02,-0.01
0.73,-1.02,0.04
0.76,-0.99,0.07
0.76,-0.94,0.08
0.76,-0.88,0.04
0.72,-0.85,0
0.69,-0.85,-0.04
0.68,-0.88,-0.08
0.7,-0.93,-0.13
0.72,-0.98,-0.17
0.7,-1,-0.19
0.68,-1.04,-0.19
0.67,-1.08,-0.2
0.65,-1.08,-0.2
0.6,-1.09,-0.18
0.55,-1.08,-0.14
0.52,-1.05,-0.13
0.52,-1,-0.16
0.5,-0.98,-0.18
0.45,-0.95,-0.18
0.39,-0.95,-0.18
0.33,-0.94,-0.19
0.25,-0.91,-0.15
0.18,-0.89,-0.11
0.16,-0.88,-0.09
0.18,-0.88,-0.03
0.21,-0.9,0.03
0.18,-0.9,0.07
0.06,-0.86,0.08
-0.12,-0.8,0.09
-0.35,-0.66,0.13
-0.31,-0.61,0.2
-0.23,-0.56,0.27
-0.15,-0.53,0.29
-0.11,-0.51,0.27
-0.09,-0.51,0.21
-0.08,-0.51,0.11
-0.04,-0.5,0.02
0.01,-0.51,-0.04
0.07,-0.54,-0.06
0.13,-0.59,-0.07
0.18,-0.64,-0.09
0.23,-0.71,-0.11
0.26,-0.78,-0.14
0.28,-0.85,-0.17
0.28,-0.92,-0.2
0.27,-0.96,-0.22
0.28,-1,-0.22
0.29,-1.02,-0.21
0.31,-1.03,-0.18
0.33,-1.03,-0.16
0.32,-1.03,-0.13
0.33,-1.01,-0.08
0.35,-0.98,-0.05
0.37,-0.96,-0.02
0.38,-0.94,0.07
0.37,-0.93,0.13
0.36,-0.93,0.19
0.35,-0.93,0.24
0.33,-0.93,0.26
0.34,-0.93,0.26
0.36,-0.94,0.25
0.38,-0.94,0.23
0.4,-0.94,0.2
0.4,-0.94,0.16
0.4,-0.95,0.13
0.41,-0.96,0.11
0.4,-0.96,0.09
0.39,-0.96,0.08
0.39,-0.97,0.07
0.39,-0.96,0.07
0.38,-0.96,0.06
0.38,-0.95,0.06
0.39,-0.95,0.05
0.38,-0.94,0.06
0.38,-0.93,0.07
0.37,-0.92,0.08
0.36,-0.92,0.09
0.36,-0.92,0.1
0.36,-0.92,0.11
0.35,-0.92,0.12
0.35,-0.92,0.13
0.37,-0.93,0.13
0.37,-0.94,0.13
0.36,-0.94,0.13
0.36,-0.94,0.13
0.37,-0.95,0.13
0.36,-0.95,0.13
0.35,-0.94,0.13
0.35,-0.94,0.13
0.35,-0.94,0.13
0.34,-0.95,0.13
0.34,-0.95,0.13
0.34,-0.95,0.13
0.34,-0.94,0.13
0.35,-0.93,0.14
0.35,-0.93,0.14
0.35,-0.92,0.14
0.35,-0.92,0.13
0.36,-0.92,0.13
0.38,-0.91,0.12
0.39,-0.91,0.12
0.39,-0.92,0.12
0.39,-0.92,0.12
0.39,-0.93,0.12
0.41,-0.94,0.13
0.4,-0.93,0.13
0.38,-0.93,0.14
0.37,-0.95,0.13
0.38,-0.95,0.13
0.38,-0.96,0.13
0.37,-0.96,0.13
0.37,-0.96,0.14
0.37,-0.96,0.14
0.36,-0.96,0.14
0.36,-0.95,0.13
0.36,-0.95,0.13
0.36,-0.94,0.12
0.35,-0.94,0.11
0.35,-0.94,0.11
0.35,-0.94,0.11
0.35,-0.93,0.1
0.35,-0.93,0.1
0.34,-0.93,0.1
0.34,-0.93,0.1
0.34,-0.93,0.1
0.34,-0.94,0.11
0.35,-0.93,0.11
0.35,-0.93,0.1
0.35,-0.94,0.1
0.35,-0.94,0.09
0.36,-0.94,0.09
0.36,-0.93,0.08
0.36,-0.93,0.07
0.36,-0.92,0.06
0.35,-0.91,0.05
0.35,-0.9,0.04
0.34,-0.9,0.03
0.33,-0.89,0.03
0.32,-0.88,0.02
0.31,-0.88,0.02
0.3,-0.88,0
0.28,-0.87,-0.02
0.26,-0.88,-0.04
0.23,-0.88,-0.05
0.22,-0.87,-0.08
0.22,-0.86,-0.11
0.21,-0.86,-0.13
0.2,-0.86,-0.14
0.18,-0.85,-0.14
0.16,-0.86,-0.13
0.13,-0.86,-0.13
0.11,-0.85,-0.12
0.1,-0.83,-0.13
0.1,-0.82,-0.16
0.11,-0.8,-0.17
0.13,-0.79,-0.15
0.15,-0.79,-0.13
0.16,-0.81,-0.1
0.16,-0.82,-0.07
0.16,-0.84,0.03
0.2,-0.87,0.07
0.23,-0.87,0.1
0.25,-0.86,0.1
0.26,-0.87,0.08
0.28,-0.87,0.07
0.29,-0.87,0.08
0.3,-0.89,0.09
0.31,-0.9,0.09
0.31,-0.94,0.11
0.3,-0.97,0.13
0.3,-0.97,0.14
0.29,-0.96,0.11
0.27,-0.94,0.07
0.25,-0.95,0.04
0.25,-0.97,0.03
0.26,-0.98,0.04
0.27,-0.98,0.04
0.27,-1,0.01
0.27,-1.01,-0.04
0.28,-1.01,-0.1
0.29,-1.01,-0.16
0.32,-1.01,-0.23
0.38,-1,-0.28
0.41,-1.02,-0.32
0.44,-1.04,-0.35
0.46,-1.03,-0.4
0.35,-0.9,-0.36
0.35,-0.83,-0.29
0.38,-0.82,-0.22
0.42,-0.81,-0.19
0.46,-0.83,-0.17
0.5,-0.86,-0.17
0.54,-0.86,-0.18
0.57,-0.85,-0.2
0.53,-0.82,-0.22
0.48,-0.76,-0.25
0.53,-0.72,-0.29
0.62,-0.75,-0.32
0.72,-0.8,-0.31
0.78,-0.87,-0.28
0.82,-0.89,-0.27
0.86,-0.88,-0.27
0.84,-0.85,-0.25
0.86,-0.85,-0.21
0.89,-0.86,-0.18
0.89,-0.9,-0.14
0.94,-0.97,-0.09
1.04,-1.08,-0.02
1.09,-1.23,0.1
1.16,-1.32,0.26
1.26,-1.34,0.38
1.28,-1.33,0.45
1.14,-1.14,0.43
0.98,-0.98,0.39
0.85,-0.84,0.35
0.75,-0.75,0.35
0.65,-0.68,0.39
0.55,-0.62,0.43
0.47,-0.58,0.47
0.42,-0.54,0.51
0.4,-0.5,0.52
0.41,-0.47,0.51
0.4,-0.45,0.48
0.37,-0.45,0.43
0.35,-0.44,0.4
0.35,-0.45,0.38
0.37,-0.5,0.37
0.4,-0.54,0.37
0.46,-0.59,0.4
0.53,-0.65,0.44
0.6,-0.71,0.49
0.66,-0.76,0.53
0.71,-0.78,0.57
0.75,-0.8,0.59
0.76,-0.81,0.6
0.77,-0.8,0.6
0.78,-0.78,0.61
0.77,-0.75,0.61
0.69,-0.69,0.57
0.65,-0.65,0.56
0.59,-0.62,0.56
0.52,-0.58,0.57
0.49,-0.57,0.56
0.49,-0.56,0.54
0.49,-0.57,0.52
0.52,-0.58,0.5
0.56,-0.59,0.48
0.59,-0.61,0.47
0.62,-0.62,0.47
0.64,-0.62,0.46
0.64,-0.63,0.45
0.66,-0.63,0.46
0.69,-0.63,0.46
0.7,-0.64,0.47
0.69,-0.64,0.47
0.68,-0.65,0.46
0.68,-0.66,0.43
0.69,-0.67,0.41
0.7,-0.67,0.4
0.7,-0.67,0.39
0.69,-0.67,0.37
0.69,-0.67,0.37
0.68,-0.68,0.37
0.66,-0.68,0.38
0.63,-0.69,0.4
0.62,-0.69,0.41
0.61,-0.69,0.42
0.61,-0.68,0.43
0.61,-0.68,0.44
0.62,-0.67,0.45
0.62,-0.67,0.46
0.63,-0.66,0.47
0.63,-0.65,0.46
0.63,-0.65,0.46
0.63,-0.64,0.46
0.64,-0.65,0.45
0.65,-0.64,0.45
0.66,-0.64,0.46
0.66,-0.64,0.46
0.66,-0.64,0.47
0.66,-0.64,0.47
0.66,-0.63,0.48
0.66,-0.63,0.47
0.66,-0.63,0.47
0.65,-0.63,0.46
0.65,-0.63,0.45
0.65,-0.63,0.45
0.65,-0.63,0.45
0.64,-0.63,0.45
0.64,-0.63,0.45
0.65,-0.64,0.46
0.66,-0.63,0.45
0.67,-0.63,0.44
0.67,-0.64,0.44
0.67,-0.64,0.44
0.67,-0.64,0.45
0.66,-0.65,0.45
0.65,-0.65,0.45
0.65,-0.64,0.45
0.66,-0.64,0.45
0.67,-0.64,0.45
0.67,-0.64,0.45
0.67,-0.63,0.44
0.67,-0.62,0.43
0.67,-0.62,0.44
0.67,-0.62,0.45
0.65,-0.62,0.47
0.64,-0.62,0.48
0.63,-0.62,0.49
0.62,-0.63,0.49
0.61,-0.62,0.48
0.6,-0.62,0.47
0.6,-0.63,0.45
0.6,-0.63,0.45
0.59,-0.64,0.44
0.58,-0.65,0.44
0.59,-0.67,0.43
0.58,-0.68,0.42
0.59,-0.68,0.41
0.59,-0.69,0.4
0.59,-0.69,0.38
0.6,-0.7,0.37
0.65,-0.71,0.37
0.71,-0.73,0.38
0.78,-0.75,0.38
0.82,-0.76,0.36
0.81,-0.75,0.31
0.76,-0.71,0.27
0.72,-0.69,0.24
0.69,-0.69,0.23
0.68,-0.71,0.24
0.66,-0.73,0.26
0.66,-0.76,0.28
0.71,-0.81,0.32
0.77,-0.89,0.37
0.82,-0.97,0.41
0.85,-1.04,0.44
0.81,-1.04,0.45
0.74,-1,0.43
0.71,-0.95,0.4
0.72,-0.88,0.39
0.74,-0.81,0.37
0.78,-0.77,0.3
0.97,-0.85,0.26
0.99,-0.9,0.24
0.92,-0.94,0.19
0.84,-0.97,0.16
0.81,-1.01,0.14
0.8,-1.04,0.14
0.75,-1.05,0.14
0.72,-1.04,0.14
0.73,-1.04,0.13
0.73,-1.02,0.1
0.72,-1,0.07
0.71,-1,0.05
0.71,-1,0.02
0.72,-1.01,-0.03
0.74,-1.02,-0.1
0.77,-1.01,-0.16
0.79,-0.99,-0.21
0.81,-1.01,-0.21
0.8,-1.02,-0.18
0.72,-1.04,-0.15
0.68,-1.07,-0.15
0.71,-1.06,-0.15
0.69,-1.04,-0.14
0.64,-1.04,-0.14
0.6,-1.03,-0.14
0.56,-1.05,-0.19
0.51,-1.09,-0.21
0.56,-1.13,-0.2
0.5,-1.16,-0.16
0.35,-1.15,-0.09
0.26,-1.12,-0.02
0.21,-1.1,0.02
0.2,-1.05,0.07
0.16,-0.95,0.15
0.12,-0.85,0.18
0.11,-0.72,0.18
0.08,-0.62,0.2
0.04,-0.55,0.21
0.04,-0.51,0.23
0.08,-0.47,0.24
0.12,-0.45,0.22
0.11,-0.45,0.18
0.09,-0.45,0.15
0.08,-0.46,0.1
0.04,-0.48,0.04
0.02,-0.49,0
0.06,-0.52,-0.03
0.14,-0.56,-0.05
0.19,-0.59,-0.05
0.18,-0.61,-0.07
0.18,-0.65,-0.1
0.18,-0.7,-0.14
0.17,-0.75,-0.19
0.18,-0.77,-0.19
0.2,-0.8,-0.18
0.23,-0.82,-0.16
0.25,-0.84,-0.13
0.27,-0.85,-0.11
0.3,-0.86,-0.08
0.33,-0.87,-0.04
0.36,-0.87,0
0.37,-0.87,0.05
0.4,-0.88,0.1
0.43,-0.9,0.17
0.44,-0.93,0.25
0.43,-0.94,0.28
0.42,-0.95,0.29
0.42,-0.97,0.31
0.43,-0.99,0.32
0.45,-1.01,0.3
0.49,-1.03,0.29
0.51,-1.03,0.28
0.51,-1.01,0.26
0.51,-0.98,0.22
0.51,-0.95,0.18
0.52,-0.93,0.15
0.53,-0.91,0.12
0.56,-0.89,0.1
0.52,-0.88,0.12
0.51,-0.86,0.1
0.47,-0.85,0.11
0.45,-0.85,0.12
0.45,-0.85,0.12
0.42,-0.85,0.13
0.43,-0.85,0.15
0.45,-0.86,0.19
0.47,-0.87,0.21
0.47,-0.87,0.22
0.47,-0.87,0.21
0.48,-0.88,0.2
0.51,-0.89,0.19
0.51,-0.9,0.18
0.5,-0.91,0.19
0.48,-0.9,0.19
0.47,-0.9,0.19
0.45,-0.9,0.18
0.44,-0.9,0.18
0.43,-0.9,0.17
0.43,-0.9,0.17
0.43,-0.9,0.18
0.43,-0.91,0.19
0.43,-0.91,0.19
0.43,-0.9,0.19
0.43,-0.91,0.19
0.43,-0.9,0.18
0.43,-0.9,0.17
0.43,-0.9,0.16
0.43,-0.9,0.15
0.44,-0.9,0.15
0.45,-0.91,0.15
0.45,-0.9,0.15
0.44,-0.9,0.15
0.43,-0.91,0.14
0.43,-0.91,0.14
0.43,-0.92,0.13
0.43,-0.92,0.13
0.44,-0.92,0.12
0.44,-0.92,0.12
0.44,-0.92,0.11
0.44,-0.92,0.11
0.43,-0.92,0.1
0.43,-0.92,0.1
0.43,-0.91,0.1
0.42,-0.91,0.09
0.41,-0.91,0.09
0.39,-0.9,0.08
0.38,-0.89,0.07
0.37,-0.9,0.07
0.36,-0.9,0.06
0.35,-0.91,0.04
0.34,-0.91,0.04
0.29,-0.86,0.02
0.26,-0.84,-0.01
0.24,-0.83,-0.03
0.24,-0.81,-0.04
0.24,-0.78,-0.03
0.23,-0.76,0
0.21,-0.74,0.04
0.17,-0.72,0.06
0.15,-0.7,0.06
0.13,-0.69,0.05
0.11,-0.68,0.02
0.11,-0.67,0
0.1,-0.65,0
0.1,-0.63,-0.02
0.11,-0.63,-0.03
0.11,-0.65,-0.02
0.11,-0.65,-0.01
0.12,-0.66,-0.02
0.13,-0.66,-0.04
0.14,-0.65,-0.03
0.16,-0.66,0
0.16,-0.66,0
0.19,-0.67,-0.01
0.24,-0.71,-0.02
0.29,-0.72,-0.02
0.33,-0.74,0.04
0.41,-0.83,0.06
0.52,-0.83,0.1
0.64,-0.87,0.18
0.73,-0.93,0.25
0.8,-1.04,0.32
0.78,-1.13,0.4
0.76,-1.14,0.41
0.71,-1.07,0.33
0.53,-0.97,0.23
0.39,-0.88,0.13
0.39,-0.85,0.05
0.54,-0.9,0
0.71,-0.98,-0.01
0.76,-1.03,-0.02
0.67,-1.04,-0.04
0.57,-1.01,-0.08
0.47,-0.95,-0.12
0.43,-0.88,-0.16
0.52,-0.86,-0.22
0.67,-0.9,-0.27
0.81,-0.97,-0.29
0.87,-1.01,-0.3
0.85,-1.02,-0.3
0.83,-1.02,-0.3
0.79,-1.01,-0.3
0.74,-0.99,-0.25
0.78,-1,-0.21
0.85,-1.04,-0.17
0.98,-1.12,-0.12
1.12,-1.21,-0.02
1.2,-1.27,0.09
1.24,-1.29,0.16
1.3,-1.31,0.18
1.3,-1.29,0.18
1.22,-1.23,0.2
1.07,-1.14,0.22
0.91,-1.05,0.23
0.75,-0.97,0.26
0.6,-0.89,0.29
0.49,-0.81,0.32
0.43,-0.71,0.35
0.38,-0.64,0.38
0.35,-0.57,0.4
0.36,-0.5,0.42
0.37,-0.46,0.45
0.39,-0.43,0.46
0.42,-0.42,0.48
0.46,-0.42,0.48
0.5,-0.44,0.47
0.55,-0.47,0.45
0.6,-0.5,0.42
0.63,-0.53,0.4
0.7,-0.65,0.41
0.73,-0.71,0.41
0.77,-0.78,0.41
0.8,-0.83,0.41
0.82,-0.87,0.4
0.84,-0.89,0.39
0.83,-0.91,0.37
0.8,-0.91,0.34
0.76,-0.89,0.32
0.7,-0.86,0.3
0.64,-0.84,0.29
0.58,-0.81,0.28
0.54,-0.79,0.26
0.52,-0.78,0.27
0.52,-0.76,0.28
0.53,-0.75,0.29
0.54,-0.73,0.32
0.55,-0.7,0.34
0.56,-0.68,0.34
0.56,-0.67,0.35
0.57,-0.68,0.37
0.58,-0.68,0.4
0.59,-0.68,0.42
0.6,-0.69,0.43
0.64,-0.7,0.44
0.68,-0.7,0.45
0.71,-0.69,0.46
0.71,-0.67,0.45
0.7,-0.66,0.42
0.69,-0.65,0.4
0.68,-0.64,0.39
0.68,-0.63,0.39
0.68,-0.63,0.39
0.69,-0.63,0.39
0.7,-0.63,0.4
0.69,-0.62,0.4
0.69,-0.62,0.41
0.69,-0.61,0.41
0.7,-0.61,0.41
0.71,-0.61,0.41
0.72,-0.61,0.42
0.73,-0.61,0.43
0.72,-0.61,0.43
0.71,-0.6,0.43
0.72,-0.6,0.44
0.75,-0.6,0.45
0.76,-0.61,0.46
0.76,-0.61,0.47
0.78,-0.63,0.48
0.81,-0.64,0.47
0.85,-0.65,0.47
0.87,-0.67,0.47
0.85,-0.68,0.47
0.75,-0.67,0.46
0.69,-0.65,0.45
0.62,-0.64,0.46
0.56,-0.63,0.48
0.53,-0.62,0.51
0.5,-0.6,0.55
0.46,-0.57,0.57
0.43,-0.53,0.59
0.42,-0.5,0.61
0.44,-0.47,0.61
0.49,-0.44,0.61
0.53,-0.42,0.59
0.56,-0.41,0.57
0.59,-0.4,0.55
0.61,-0.4,0.54
0.62,-0.42,0.53
0.64,-0.43,0.53
0.65,-0.45,0.53
0.65,-0.47,0.52
0.64,-0.48,0.51
0.63,-0.49,0.5
0.62,-0.49,0.49
0.62,-0.5,0.48
0.64,-0.52,0.49
0.71,-0.55,0.5
0.77,-0.58,0.41
0.93,-0.81,0.4
1,-0.88,0.39
1.01,-0.91,0.35
0.94,-0.9,0.29
0.76,-0.86,0.23
0.57,-0.8,0.2
0.43,-0.76,0.17
0.37,-0.74,0.17
0.41,-0.74,0.2
0.51,-0.75,0.23
0.62,-0.74,0.27
0.69,-0.74,0.29
0.73,-0.73,0.31
0.74,-0.73,0.33
0.73,-0.74,0.34
0.7,-0.74,0.35
0.68,-0.74,0.34
0.66,-0.74,0.33
0.62,-0.73,0.32
0.59,-0.72,0.31
0.59,-0.73,0.3
0.61,-0.74,0.31
0.63,-0.74,0.32
0.66,-0.74,0.34
0.67,-0.74,0.35
0.68,-0.73,0.38
0.66,-0.71,0.38
0.65,-0.71,0.38
0.64,-0.7,0.38
0.63,-0.7,0.38
0.63,-0.71,0.37
0.63,-0.71,0.35
0.64,-0.71,0.34
0.64,-0.71,0.33
0.65,-0.7,0.32
0.66,-0.7,0.32
0.67,-0.7,0.31
0.67,-0.7,0.31
0.67,-0.7,0.31
0.67,-0.7,0.31
0.68,-0.7,0.31
0.68,-0.71,0.31
0.67,-0.71,0.31
0.66,-0.71,0.31
0.65,-0.7,0.3
0.65,-0.7,0.3
0.65,-0.7,0.3
0.67,-0.71,0.29
0.67,-0.71,0.29
0.68,-0.71,0.3
0.68,-0.72,0.3
0.68,-0.72,0.29
0.66,-0.72,0.29
0.66,-0.72,0.29
0.67,-0.72,0.29
0.67,-0.73,0.29
0.67,-0.73,0.29
0.67,-0.74,0.28
0.67,-0.74,0.28
0.66,-0.75,0.27
0.64,-0.74,0.27
0.63,-0.74,0.27
0.64,-0.75,0.27
0.63,-0.76,0.27
0.63,-0.76,0.27
0.64,-0.76,0.27
0.64,-0.76,0.27
0.64,-0.76,0.27
0.63,-0.76,0.27
0.63,-0.75,0.27
0.63,-0.75,0.27
