Acc_x,Acc_y,Acc_z
0.68,0.21,0.71
0.69,0.21,0.71
0.69,0.21,0.71
0.69,0.21,0.71
0.69,0.21,0.72
0.69,0.21,0.72
0.69,0.21,0.72
0.69,0.21,0.72
0.69,0.21,0.72
0.68,0.21,0.72
0.68,0.21,0.71
0.68,0.21,0.71
0.69,0.21,0.71
0.69,0.21,0.71
0.69,0.21,0.71
0.69,0.2,0.71
0.69,0.2,0.71
0.69,0.2,0.71
0.68,0.2,0.71
0.68,0.2,0.71
0.68,0.2,0.71
0.67,0.2,0.7
0.67,0.2,0.7
0.67,0.2,0.7
0.67,0.2,0.69
0.67,0.21,0.69
0.67,0.21,0.69
0.67,0.21,0.69
0.67,0.21,0.69
0.67,0.2,0.69
0.67,0.2,0.7
0.66,0.2,0.7
0.66,0.2,0.7
0.67,0.19,0.71
0.68,0.18,0.71
0.69,0.18,0.72
0.69,0.17,0.72
0.7,0.17,0.73
0.7,0.17,0.74
0.7,0.16,0.74
0.7,0.16,0.75
0.7,0.16,0.75
0.69,0.16,0.75
0.69,0.15,0.76
0.69,0.15,0.76
0.68,0.15,0.76
0.67,0.15,0.76
0.67,0.15,0.76
0.67,0.15,0.75
0.68,0.15,0.76
0.68,0.15,0.76
0.67,0.15,0.76
0.67,0.15,0.76
0.66,0.15,0.76
0.66,0.15,0.77
0.66,0.15,0.77
0.66,0.13,0.77
0.66,0.13,0.77
0.66,0.13,0.77
0.66,0.13,0.77
0.67,0.13,0.77
0.67,0.13,0.77
0.67,0.13,0.77
0.65,0.12,0.77
0.64,0.12,0.77
0.64,0.11,0.77
0.64,0.11,0.77
0.63,0.11,0.77
0.63,0.11,0.77
0.63,0.11,0.77
0.62,0.11,0.76
0.62,0.11,0.75
0.62,0.11,0.75
0.62,0.11,0.75
0.62,0.11,0.76
0.63,0.11,0.76
0.63,0.11,0.76
0.63,0.11,0.77
0.63,0.1,0.77
0.63,0.1,0.77
0.63,0.1,0.77
0.63,0.09,0.78
0.64,0.09,0.78
0.63,0.08,0.77
0.63,0.09,0.77
0.62,0.09,0.77
0.62,0.09,0.77
0.62,0.09,0.76
0.62,0.09,0.76
0.62,0.09,0.76
0.62,0.1,0.76
0.63,0.1,0.76
0.62,0.1,0.77
0.62,0.1,0.77
0.62,0.1,0.77
0.62,0.1,0.77
0.62,0.1,0.76
0.63,0.1,0.76
0.64,0.1,0.76
0.65,0.1,0.76
0.66,0.1,0.76
0.66,0.1,0.76
0.67,0.1,0.76
0.68,0.1,0.76
0.69,0.09,0.77
0.68,0.09,0.77
0.67,0.09,0.76
0.66,0.1,0.75
0.67,0.1,0.74
0.67,0.12,0.74
0.67,0.12,0.74
0.67,0.11,0.75
0.67,0.1,0.75
0.68,0.1,0.75
0.67,0.1,0.76
0.66,0.11,0.76
0.66,0.12,0.75
0.66,0.13,0.75
0.66,0.13,0.74
0.66,0.13,0.72
0.67,0.13,0.72
0.67,0.13,0.7
0.68,0.13,0.69
0.69,0.13,0.7
0.7,0.13,0.71
0.72,0.12,0.72
0.71,0.12,0.73
0.7,0.12,0.74
0.68,0.12,0.75
0.68,0.14,0.74
0.68,0.15,0.74
0.68,0.15,0.73
0.69,0.15,0.73
0.7,0.15,0.73
0.71,0.14,0.73
0.71,0.13,0.74
0.71,0.14,0.74
0.71,0.14,0.75
0.71,0.15,0.75
0.7,0.15,0.75
0.7,0.14,0.75
0.69,0.13,0.74
0.69,0.13,0.74
0.69,0.12,0.73
0.69,0.12,0.73
0.7,0.12,0.72
0.71,0.12,0.71
0.7,0.11,0.71
0.69,0.11,0.74
0.69,0.11,0.74
0.71,0.12,0.7
0.71,0.12,0.69
0.68,0.13,0.72
0.68,0.13,0.73
0.69,0.13,0.72
0.69,0.13,0.72
0.68,0.14,0.71
0.67,0.14,0.71
0.67,0.14,0.7
0.68,0.15,0.7
0.68,0.15,0.7
0.69,0.16,0.7
0.71,0.16,0.72
0.72,0.15,0.73
0.72,0.15,0.73
0.71,0.16,0.73
0.7,0.16,0.73
0.69,0.15,0.73
0.69,0.14,0.73
0.67,0.12,0.72
0.66,0.11,0.72
0.66,0.11,0.73
0.66,0.11,0.73
0.67,0.09,0.73
0.68,0.09,0.73
0.69,0.1,0.74
0.7,0.1,0.74
0.69,0.1,0.75
0.68,0.1,0.75
0.68,0.08,0.76
0.68,0.06,0.76
0.7,0.06,0.77
0.7,0.06,0.76
0.68,0.07,0.76
0.68,0.08,0.76
0.68,0.08,0.75
0.67,0.04,0.7
0.69,-0.03,0.69
0.73,-0.06,0.68
0.81,-0.09,0.63
0.84,-0.09,0.59
0.81,-0.07,0.55
0.79,-0.08,0.5
0.8,-0.09,0.5
0.79,-0.09,0.54
0.78,-0.11,0.57
0.82,-0.14,0.6
0.86,-0.19,0.67
0.9,-0.23,0.77
0.97,-0.25,0.86
1.02,-0.26,0.95
1.04,-0.25,1.03
1.04,-0.25,1.07
1.02,-0.24,1.1
0.96,-0.22,1.14
0.89,-0.21,1.1
0.84,-0.21,1.03
0.81,-0.23,0.98
0.74,-0.29,0.93
0.66,-0.32,0.86
0.62,-0.34,0.78
0.62,-0.4,0.73
0.59,-0.48,0.72
0.65,-0.54,0.9
0.87,-0.73,1.02
0.9,-0.74,1.09
0.87,-0.71,1.11
0.78,-0.66,0.99
0.45,-0.59,0.61
0.08,-0.61,0.21
0.13,-0.73,-0.02
0.41,-0.99,0.04
0.61,-1.14,0.16
1.11,-1.14,0.12
1.46,-1.05,0.1
1.39,-0.93,0.22
1.27,-0.9,0.33
1.05,-0.81,0.34
0.85,-0.74,0.29
0.72,-0.74,0.2
0.55,-0.76,0.09
0.43,-0.74,-0.03
0.42,-0.67,-0.07
0.37,-0.61,-0.09
0.32,-0.57,-0.13
0.3,-0.57,-0.13
0.28,-0.57,-0.11
0.25,-0.54,-0.08
0.26,-0.52,-0.07
0.33,-0.49,-0.05
0.4,-0.46,-0.02
0.41,-0.43,0.01
0.43,-0.42,0.02
0.45,-0.42,0
0.45,-0.45,-0.02
0.44,-0.47,-0.05
0.41,-0.49,-0.06
0.37,-0.5,-0.07
0.32,-0.54,-0.07
0.26,-0.61,-0.08
0.21,-0.69,-0.08
0.19,-0.78,-0.08
0.2,-0.9,-0.07
0.22,-1.02,-0.05
0.25,-1.12,0
0.27,-1.21,0.04
0.26,-1.31,0.08
0.25,-1.35,0.13
0.29,-1.3,0.18
0.28,-1.3,0.2
0.27,-1.29,0.2
0.29,-1.18,0.22
0.29,-1.09,0.22
0.28,-1,0.21
0.27,-0.94,0.18
0.28,-0.89,0.16
0.29,-0.85,0.17
0.32,-0.84,0.17
0.36,-0.83,0.19
0.38,-0.83,0.2
0.3,-0.86,0.22
0.17,-0.88,0.26
0.18,-0.89,0.25
0.22,-0.91,0.24
0.24,-0.93,0.24
0.26,-0.94,0.23
0.28,-0.94,0.22
0.27,-0.93,0.22
0.26,-0.93,0.22
0.26,-0.93,0.22
0.26,-0.93,0.22
0.28,-0.92,0.21
0.29,-0.92,0.2
0.3,-0.94,0.19
0.32,-0.95,0.17
0.33,-0.96,0.15
0.35,-0.97,0.14
0.36,-0.97,0.14
0.37,-0.97,0.13
0.37,-0.98,0.12
0.37,-1,0.12
0.37,-1.01,0.11
0.35,-1,0.1
0.35,-0.99,0.1
0.35,-0.99,0.1
0.36,-0.98,0.1
0.36,-0.97,0.1
0.36,-0.97,0.1
0.35,-0.97,0.1
0.34,-0.96,0.1
0.35,-0.96,0.1
0.36,-0.95,0.1
0.37,-0.94,0.09
0.37,-0.94,0.1
0.36,-0.95,0.1
0.35,-0.95,0.1
0.35,-0.96,0.1
0.35,-0.96,0.1
0.34,-0.96,0.1
0.34,-0.96,0.1
0.34,-0.96,0.1
0.33,-0.95,0.1
0.33,-0.95,0.11
0.33,-0.95,0.11
0.32,-0.96,0.12
0.32,-0.97,0.12
0.32,-0.97,0.13
0.31,-0.96,0.13
0.31,-0.96,0.14
0.3,-0.96,0.14
0.3,-0.95,0.14
0.3,-0.95,0.14
0.3,-0.96,0.14
0.31,-0.97,0.13
0.31,-0.97,0.13
0.31,-0.96,0.13
0.32,-0.96,0.12
0.32,-0.96,0.12
0.32,-0.95,0.12
0.33,-0.95,0.12
0.33,-0.95,0.12
0.33,-0.95,0.12
0.34,-0.95,0.11
0.34,-0.95,0.12
0.34,-0.95,0.11
0.34,-0.95,0.11
0.34,-0.95,0.11
0.34,-0.95,0.11
0.34,-0.95,0.11
0.34,-0.96,0.11
0.35,-0.96,0.11
0.35,-0.96,0.11
0.34,-0.96,0.11
0.34,-0.96,0.11
0.34,-0.96,0.11
0.34,-0.96,0.12
0.34,-0.96,0.12
0.33,-0.96,0.12
0.33,-0.96,0.12
0.33,-0.96,0.12
0.33,-0.97,0.12
0.33,-0.97,0.12
0.33,-0.97,0.12
0.34,-0.97,0.13
0.34,-0.97,0.13
0.34,-0.97,0.14
0.34,-0.97,0.14
0.34,-0.97,0.14
0.34,-0.96,0.14
0.34,-0.95,0.13
0.34,-0.95,0.13
0.34,-0.94,0.14
0.34,-0.94,0.14
0.31,-0.94,0.13
0.35,-0.94,0.14
0.37,-0.94,0.14
0.33,-0.95,0.14
0.34,-0.94,0.12
0.34,-0.93,0.1
0.38,-0.92,0.09
0.43,-0.93,0.07
0.36,-0.91,0.09
0.37,-0.89,0.09
0.34,-0.89,0.12
0.36,-0.89,0.1
0.38,-0.88,0.09
0.45,-0.88,0.11
0.42,-0.89,0.14
0.43,-0.83,0.13
0.49,-0.86,0.09
0.36,-0.89,0.08
0.27,-0.78,0.05
0.26,-0.71,0.04
0.32,-0.69,0
0.4,-0.66,-0.05
0.41,-0.63,-0.05
0.37,-0.6,-0.03
0.35,-0.59,-0.02
0.38,-0.58,-0.02
0.4,-0.6,0
0.39,-0.62,0.02
0.38,-0.61,0.03
0.36,-0.6,0.04
0.35,-0.61,0.05
0.37,-0.62,0.05
0.39,-0.64,0.06
0.41,-0.65,0.07
0.51,-0.67,0.09
0.54,-0.69,0.1
0.55,-0.68,0.12
0.52,-0.66,0.14
0.47,-0.65,0.16
0.47,-0.64,0.18
0.52,-0.65,0.18
0.57,-0.66,0.18
0.6,-0.64,0.18
0.63,-0.6,0.16
0.68,-0.57,0.15
0.73,-0.55,0.14
0.77,-0.55,0.14
0.76,-0.56,0.16
0.71,-0.55,0.17
0.69,-0.54,0.19
0.69,-0.53,0.18
0.71,-0.54,0.15
0.78,-0.56,0.14
0.87,-0.56,0.14
0.88,-0.53,0.19
0.88,-0.5,0.24
0.91,-0.49,0.31
0.95,-0.49,0.36
0.93,-0.5,0.4
0.87,-0.49,0.5
0.89,-0.51,0.56
0.97,-0.54,0.6
1.01,-0.55,0.62
1,-0.54,0.63
1.01,-0.52,0.65
1.01,-0.5,0.68
0.96,-0.51,0.72
0.88,-0.56,0.74
0.81,-0.6,0.73
0.78,-0.64,0.72
0.8,-0.67,0.7
0.82,-0.65,0.69
0.81,-0.57,0.73
0.74,-0.54,0.81
0.65,-0.58,0.89
0.65,-0.54,1.03
0.79,-0.52,1.42
0.99,-0.59,1.78
1.27,-0.48,1.8
1.25,-0.31,1.61
0.83,-0.32,1.35
0.6,-0.31,1.12
0.58,-0.29,0.86
0.58,-0.29,0.69
0.56,-0.29,0.62
0.56,-0.29,0.61
0.56,-0.32,0.62
0.54,-0.33,0.63
0.57,-0.35,0.64
0.61,-0.37,0.64
0.63,-0.37,0.64
0.64,-0.39,0.64
0.64,-0.41,0.64
0.64,-0.41,0.64
0.64,-0.42,0.64
0.63,-0.44,0.66
0.61,-0.45,0.69
0.59,-0.46,0.71
0.58,-0.47,0.73
0.57,-0.49,0.73
0.57,-0.52,0.73
0.58,-0.55,0.71
0.58,-0.57,0.7
0.58,-0.58,0.68
0.58,-0.58,0.66
0.57,-0.57,0.63
0.55,-0.56,0.63
0.54,-0.54,0.62
0.55,-0.52,0.63
0.55,-0.51,0.63
0.56,-0.5,0.64
0.57,-0.49,0.64
0.6,-0.48,0.65
0.62,-0.48,0.65
0.62,-0.48,0.66
0.63,-0.48,0.66
0.64,-0.47,0.66
0.64,-0.46,0.66
0.64,-0.46,0.67
0.64,-0.45,0.67
0.64,-0.45,0.67
0.64,-0.45,0.66
0.64,-0.45,0.66
0.64,-0.45,0.66
0.64,-0.45,0.66
0.64,-0.45,0.65
0.65,-0.44,0.65
0.65,-0.44,0.65
0.65,-0.44,0.64
0.65,-0.44,0.64
0.66,-0.44,0.63
0.66,-0.44,0.63
0.67,-0.43,0.63
0.67,-0.43,0.63
0.67,-0.43,0.63
0.67,-0.43,0.62
0.67,-0.42,0.62
0.67,-0.42,0.62
0.67,-0.42,0.63
0.68,-0.42,0.63
0.68,-0.43,0.63
0.68,-0.44,0.62
0.68,-0.44,0.61
0.68,-0.44,0.61
0.68,-0.44,0.6
0.68,-0.44,0.61
0.68,-0.45,0.61
0.68,-0.46,0.61
0.68,-0.46,0.62
0.68,-0.47,0.62
0.68,-0.46,0.62
0.68,-0.46,0.62
0.68,-0.45,0.62
0.68,-0.44,0.62
0.69,-0.44,0.62
0.69,-0.43,0.63
0.68,-0.43,0.63
0.68,-0.43,0.63
0.68,-0.43,0.63
0.68,-0.44,0.63
0.69,-0.43,0.62
0.69,-0.43,0.61
0.69,-0.43,0.61
0.7,-0.43,0.62
0.71,-0.42,0.61
0.71,-0.42,0.61
0.71,-0.42,0.61
0.71,-0.41,0.6
0.71,-0.41,0.6
0.71,-0.4,0.61
0.71,-0.4,0.6
0.71,-0.4,0.6
0.72,-0.39,0.6
0.73,-0.38,0.6
0.74,-0.38,0.59
0.75,-0.38,0.59
0.74,-0.38,0.59
0.74,-0.38,0.59
0.73,-0.38,0.59
0.73,-0.38,0.6
0.73,-0.38,0.6
0.73,-0.39,0.6
0.73,-0.4,0.6
0.73,-0.41,0.59
0.73,-0.41,0.59
0.73,-0.4,0.59
0.73,-0.4,0.59
0.73,-0.4,0.59
0.74,-0.4,0.59
0.74,-0.39,0.58
0.74,-0.39,0.58
0.73,-0.38,0.58
0.73,-0.38,0.58
0.73,-0.38,0.58
0.73,-0.38,0.58
0.73,-0.38,0.58
0.74,-0.38,0.59
0.75,-0.37,0.59
0.75,-0.37,0.59
0.76,-0.37,0.59
0.77,-0.37,0.59
0.76,-0.37,0.58
0.75,-0.37,0.58
0.74,-0.36,0.58
0.73,-0.36,0.58
0.72,-0.36,0.58
0.72,-0.36,0.58
0.73,-0.36,0.57
0.73,-0.37,0.56
0.74,-0.38,0.55
0.73,-0.39,0.54
0.73,-0.4,0.55
0.73,-0.41,0.56
0.72,-0.41,0.57
0.72,-0.42,0.58
0.71,-0.42,0.58
0.71,-0.43,0.57
0.72,-0.44,0.56
0.74,-0.43,0.56
0.74,-0.43,0.56
0.74,-0.44,0.57
0.74,-0.44,0.58
0.74,-0.43,0.58
0.74,-0.42,0.57
0.73,-0.41,0.56
0.73,-0.4,0.54
0.72,-0.4,0.52
0.72,-0.4,0.5
0.74,-0.4,0.49
0.76,-0.4,0.47
0.78,-0.4,0.48
0.82,-0.41,0.5
0.85,-0.43,0.53
0.86,-0.45,0.56
0.85,-0.46,0.58
0.84,-0.48,0.59
0.83,-0.5,0.6
0.85,-0.52,0.6
0.9,-0.55,0.58
0.92,-0.57,0.55
0.92,-0.56,0.53
0.88,-0.52,0.49
0.85,-0.47,0.38
0.85,-0.45,0.33
0.84,-0.44,0.32
0.86,-0.45,0.34
0.84,-0.48,0.36
0.81,-0.5,0.39
0.78,-0.54,0.41
0.75,-0.57,0.4
0.72,-0.62,0.39
0.73,-0.67,0.37
0.73,-0.7,0.35
0.73,-0.72,0.3
0.76,-0.74,0.26
0.8,-0.75,0.23
0.84,-0.77,0.21
0.86,-0.79,0.19
0.87,-0.8,0.16
0.88,-0.82,0.14
0.88,-0.84,0.14
0.87,-0.86,0.14
0.85,-0.92,0.14
0.83,-0.99,0.14
0.81,-1.07,0.14
0.8,-1.15,0.16
0.79,-1.21,0.18
0.76,-1.28,0.21
0.76,-1.33,0.16
0.77,-1.4,0.12
0.87,-1.34,0.1
0.86,-1.44,0.12
0.7,-1.53,0.13
0.62,-1.5,0.18
0.58,-1.43,0.22
0.5,-1.39,0.19
0.38,-1.34,0.18
0.3,-1.3,0.17
0.26,-1.28,0.18
0.24,-1.26,0.2
0.24,-1.28,0.23
0.21,-1.28,0.24
0.14,-1.24,0.21
0,-1.16,0.16
-0.12,-1.01,0.09
-0.18,-0.84,0.03
-0.19,-0.7,0
-0.17,-0.6,0.02
-0.14,-0.52,0.09
-0.1,-0.44,0.15
-0.07,-0.38,0.2
-0.03,-0.36,0.25
0,-0.34,0.26
0.05,-0.34,0.24
0.09,-0.33,0.2
0.06,-0.4,0.12
0.09,-0.44,0.12
0.19,-0.49,0.11
0.25,-0.51,0.14
0.21,-0.5,0.16
0.16,-0.54,0.13
0.16,-0.58,0.05
0.15,-0.59,0.01
0.23,-0.61,-0.05
0.31,-0.65,-0.1
0.3,-0.72,-0.12
0.28,-0.81,-0.15
0.25,-0.9,-0.16
0.22,-0.98,-0.18
0.19,-1.04,-0.2
0.16,-1.06,-0.17
0.16,-1.06,-0.14
0.21,-1.06,-0.12
0.23,-1.04,-0.1
0.24,-1.01,-0.07
0.29,-0.97,-0.04
0.33,-0.92,-0.01
0.35,-0.89,0
0.37,-0.85,0
0.37,-0.83,-0.01
0.4,-0.81,-0.03
0.41,-0.81,-0.05
0.42,-0.84,-0.04
0.43,-0.85,-0.02
0.44,-0.87,0
0.43,-0.89,0.02
0.42,-0.91,0.05
0.41,-0.93,0.07
0.4,-0.95,0.08
0.39,-0.96,0.09
0.39,-0.97,0.09
0.38,-0.98,0.09
0.38,-0.98,0.1
0.38,-0.98,0.11
0.38,-0.98,0.12
0.38,-0.99,0.13
0.37,-0.98,0.14
0.35,-0.98,0.15
0.34,-0.98,0.17
0.34,-0.97,0.17
0.34,-0.97,0.16
0.35,-0.97,0.15
0.34,-0.98,0.13
0.34,-0.98,0.13
0.33,-0.99,0.12
0.32,-1,0.11
0.32,-1.01,0.11
0.31,-1,0.1
0.29,-0.99,0.1
0.28,-0.98,0.1
0.27,-0.96,0.1
0.28,-0.95,0.1
0.29,-0.95,0.09
0.29,-0.95,0.08
0.29,-0.95,0.07
0.3,-0.95,0.07
0.31,-0.94,0.07
0.31,-0.94,0.08
0.32,-0.94,0.08
0.32,-0.94,0.08
0.33,-0.94,0.08
0.33,-0.94,0.09
0.33,-0.94,0.09
0.34,-0.94,0.1
0.35,-0.94,0.1
0.35,-0.95,0.1
0.36,-0.95,0.1
0.37,-0.95,0.1
0.37,-0.96,0.1
0.37,-0.96,0.11
0.37,-0.96,0.11
0.37,-0.96,0.11
0.38,-0.96,0.11
0.38,-0.96,0.11
0.37,-0.97,0.1
0.37,-0.96,0.1
0.37,-0.96,0.1
0.37,-0.95,0.1
0.37,-0.95,0.09
0.37,-0.94,0.09
0.37,-0.94,0.09
0.37,-0.94,0.1
0.36,-0.94,0.09
0.36,-0.94,0.09
0.36,-0.94,0.09
0.36,-0.94,0.09
0.35,-0.94,0.1
0.35,-0.94,0.1
0.34,-0.94,0.1
0.34,-0.95,0.11
0.34,-0.95,0.1
0.34,-0.96,0.1
0.33,-0.96,0.1
0.33,-0.96,0.1
0.33,-0.97,0.1
0.33,-0.97,0.1
0.33,-0.97,0.1
0.32,-0.97,0.11
0.32,-0.97,0.11
0.31,-0.96,0.12
0.32,-0.96,0.11
0.32,-0.95,0.11
0.32,-0.95,0.11
0.32,-0.95,0.11
0.33,-0.95,0.11
0.33,-0.95,0.11
0.33,-0.95,0.11
0.34,-0.95,0.11
0.34,-0.95,0.11
0.34,-0.95,0.11
0.34,-0.95,0.1
0.35,-0.95,0.1
0.35,-0.95,0.1
0.35,-0.95,0.1
0.35,-0.95,0.11
0.36,-0.95,0.11
0.35,-0.95,0.11
0.35,-0.95,0.11
0.35,-0.95,0.11
0.35,-0.95,0.11
0.35,-0.95,0.11
0.35,-0.96,0.11
0.35,-0.96,0.11
0.35,-0.95,0.11
0.35,-0.95,0.11
0.35,-0.96,0.11
0.35,-0.96,0.11
0.35,-0.96,0.11
0.35,-0.96,0.1
0.35,-0.95,0.1
0.35,-0.95,0.11
0.34,-0.95,0.1
0.35,-0.95,0.1
0.34,-0.96,0.1
0.34,-0.96,0.09
0.34,-0.96,0.09
0.35,-0.95,0.09
0.34,-0.95,0.09
0.34,-0.94,0.1
0.34,-0.94,0.1
0.34,-0.94,0.1
0.34,-0.94,0.1
0.34,-0.94,0.1
0.35,-0.94,0.1
0.35,-0.93,0.1
0.35,-0.93,0.11
0.35,-0.93,0.11
0.35,-0.93,0.11
0.35,-0.93,0.11
0.35,-0.93,0.11
0.34,-0.93,0.11
0.33,-0.92,0.1
0.31,-0.91,0.09
0.3,-0.89,0.1
0.31,-0.88,0.09
0.3,-0.87,0.08
0.3,-0.85,0.08
0.3,-0.84,0.08
0.3,-0.82,0.08
0.29,-0.8,0.07
0.29,-0.77,0.07
0.28,-0.75,0.09
0.25,-0.75,0.08
0.26,-0.71,0.05
0.31,-0.64,0.05
0.33,-0.61,0.03
0.32,-0.59,0.03
0.29,-0.56,0.05
0.25,-0.56,0.05
0.23,-0.57,0.03
0.25,-0.6,0
0.24,-0.57,0.02
0.24,-0.55,0.04
0.26,-0.55,0.05
0.26,-0.55,0.07
0.23,-0.55,0.09
0.2,-0.55,0.11
0.17,-0.54,0.14
0.14,-0.58,0.23
0.2,-0.65,0.22
0.29,-0.73,0.22
0.39,-0.8,0.22
0.47,-0.85,0.23
0.46,-0.93,0.32
0.46,-0.96,0.35
0.46,-0.93,0.3
0.45,-0.95,0.32
0.49,-0.97,0.33
0.51,-1,0.35
0.53,-1.02,0.38
0.57,-1.02,0.39
0.62,-1.02,0.38
0.65,-1.01,0.37
0.67,-0.99,0.38
0.69,-0.98,0.42
0.71,-0.99,0.47
0.76,-0.97,0.51
0.73,-0.97,0.55
0.7,-0.98,0.6
0.74,-0.96,0.61
0.78,-0.95,0.59
0.81,-0.93,0.56
0.83,-0.93,0.53
0.82,-0.95,0.52
0.81,-0.88,0.51
0.78,-0.84,0.5
0.73,-0.79,0.52
0.69,-0.78,0.56
0.69,-0.76,0.61
0.7,-0.74,0.66
0.76,-0.76,0.7
0.94,-0.85,0.75
1.14,-0.94,0.83
1.14,-0.9,0.89
1.02,-0.81,0.86
0.93,-0.76,0.75
0.87,-0.7,0.6
0.85,-0.57,0.5
0.79,-0.46,0.49
0.72,-0.4,0.54
0.69,-0.32,0.62
0.66,-0.22,0.7
0.68,-0.19,0.68
0.76,-0.12,0.66
0.71,-0.05,0.71
0.63,-0.03,0.77
0.63,0,0.81
0.67,-0.02,0.85
0.7,-0.06,0.89
0.7,-0.05,0.89
0.71,-0.05,0.84
0.69,-0.1,0.8
0.71,-0.14,0.76
0.69,-0.17,0.73
0.66,-0.2,0.7
0.64,-0.22,0.68
0.64,-0.26,0.66
0.63,-0.29,0.64
0.62,-0.32,0.63
0.62,-0.36,0.62
0.64,-0.39,0.62
0.69,-0.44,0.61
0.72,-0.48,0.6
0.74,-0.51,0.6
0.76,-0.53,0.59
0.76,-0.55,0.58
0.74,-0.55,0.58
0.72,-0.53,0.58
0.7,-0.5,0.57
0.7,-0.48,0.57
0.7,-0.46,0.57
0.71,-0.45,0.57
0.71,-0.45,0.6
0.71,-0.44,0.63
0.7,-0.44,0.65
0.69,-0.42,0.66
0.7,-0.39,0.68
0.7,-0.37,0.67
0.69,-0.35,0.66
0.7,-0.34,0.66
0.69,-0.32,0.66
0.69,-0.31,0.64
0.69,-0.31,0.64
0.71,-0.3,0.62
0.72,-0.29,0.61
0.73,-0.28,0.6
0.75,-0.27,0.59
0.76,-0.26,0.59
0.78,-0.26,0.58
0.82,-0.25,0.58
0.84,-0.24,0.58
0.86,-0.24,0.58
0.87,-0.24,0.58
0.87,-0.23,0.58
0.87,-0.23,0.57
0.85,-0.23,0.58
0.83,-0.24,0.58
0.81,-0.25,0.58
0.79,-0.27,0.58
0.77,-0.29,0.58
0.76,-0.3,0.58
0.75,-0.31,0.58
0.75,-0.32,0.59
0.75,-0.32,0.59
0.75,-0.33,0.59
0.76,-0.33,0.59
0.77,-0.33,0.59
0.77,-0.32,0.59
0.77,-0.32,0.58
0.77,-0.31,0.58
0.77,-0.32,0.58
0.78,-0.32,0.57
0.78,-0.32,0.57
0.78,-0.32,0.57
0.78,-0.32,0.57
0.78,-0.32,0.57
0.78,-0.32,0.57
0.78,-0.33,0.57
0.78,-0.33,0.57
0.78,-0.32,0.57
0.78,-0.32,0.57
0.78,-0.31,0.57
0.78,-0.31,0.57
0.78,-0.31,0.57
0.78,-0.31,0.57
0.78,-0.32,0.57
0.78,-0.32,0.57
0.79,-0.32,0.57
0.78,-0.32,0.57
0.78,-0.32,0.56
0.79,-0.32,0.56
0.79,-0.32,0.56
0.79,-0.32,0.56
0.79,-0.32,0.56
0.79,-0.32,0.56
0.79,-0.32,0.56
0.79,-0.32,0.56
0.79,-0.32,0.56
0.79,-0.32,0.57
0.79,-0.32,0.56
0.79,-0.32,0.56
0.79,-0.32,0.56
0.79,-0.32,0.56
0.79,-0.32,0.56
0.79,-0.32,0.56
0.79,-0.32,0.56
0.79,-0.32,0.56
0.78,-0.32,0.56
0.78,-0.32,0.56
0.78,-0.32,0.55
0.79,-0.32,0.55
0.79,-0.32,0.55
0.79,-0.32,0.55
0.79,-0.32,0.56
0.8,-0.32,0.56
0.79,-0.31,0.56
0.79,-0.31,0.56
0.79,-0.31,0.57
0.79,-0.31,0.57
0.79,-0.31,0.57
0.78,-0.31,0.56
0.79,-0.31,0.56
0.79,-0.31,0.56
0.79,-0.32,0.56
0.79,-0.32,0.55
0.79,-0.31,0.55
0.8,-0.31,0.55
0.8,-0.31,0.55
0.8,-0.31,0.56
0.8,-0.32,0.56
0.8,-0.32,0.56
0.79,-0.32,0.55
0.79,-0.31,0.56
0.79,-0.31,0.56
0.79,-0.32,0.56
0.79,-0.31,0.56
0.79,-0.31,0.56
0.8,-0.32,0.56
0.79,-0.31,0.56
0.79,-0.31,0.55
0.8,-0.31,0.56
0.79,-0.31,0.56
0.79,-0.32,0.56
0.79,-0.32,0.56
0.79,-0.31,0.56
0.79,-0.31,0.56
0.8,-0.31,0.55
0.8,-0.31,0.55
0.79,-0.31,0.56
0.79,-0.32,0.56
0.79,-0.32,0.56
0.79,-0.32,0.55
0.79,-0.31,0.55
0.79,-0.31,0.56
0.79,-0.31,0.56
0.79,-0.31,0.56
0.8,-0.31,0.56
0.79,-0.31,0.56
0.79,-0.31,0.56
0.79,-0.31,0.56
0.79,-0.31,0.56
0.8,-0.31,0.55
0.8,-0.31,0.56
0.8,-0.31,0.56
0.8,-0.31,0.56
0.79,-0.31,0.56
0.79,-0.31,0.55
0.79,-0.32,0.55
0.8,-0.32,0.55
0.8,-0.32,0.55
0.8,-0.32,0.55
0.8,-0.32,0.55
0.8,-0.31,0.55
0.8,-0.31,0.55
0.8,-0.31,0.55
0.8,-0.31,0.55
0.79,-0.31,0.55
0.79,-0.31,0.55
0.79,-0.31,0.55
0.79,-0.31,0.55
0.8,-0.31,0.55
0.8,-0.31,0.54
0.8,-0.31,0.54
0.81,-0.31,0.53
0.81,-0.31,0.53
0.81,-0.31,0.53
0.81,-0.31,0.53
0.81,-0.31,0.53
0.8,-0.31,0.54
0.8,-0.31,0.54
0.79,-0.31,0.54
0.8,-0.31,0.55
0.8,-0.31,0.54
0.8,-0.31,0.55
0.81,-0.32,0.55
0.81,-0.32,0.54
0.8,-0.32,0.54
0.8,-0.32,0.54
0.8,-0.33,0.54
0.8,-0.32,0.54
0.8,-0.32,0.54
0.8,-0.31,0.54
0.8,-0.3,0.55
0.81,-0.3,0.55
0.81,-0.3,0.55
0.8,-0.3,0.55
0.81,-0.3,0.55
0.81,-0.31,0.55
0.81,-0.31,0.55
0.8,-0.31,0.55
0.79,-0.31,0.55
0.78,-0.31,0.55
0.78,-0.31,0.55
0.77,-0.31,0.55
0.76,-0.32,0.56
0.77,-0.32,0.55
0.77,-0.33,0.55
0.78,-0.34,0.55
0.78,-0.33,0.55
0.79,-0.34,0.54
0.79,-0.34,0.54
0.78,-0.34,0.54
0.78,-0.35,0.54
0.8,-0.36,0.53
0.81,-0.37,0.53
0.81,-0.37,0.52
0.82,-0.37,0.49
0.83,-0.37,0.46
0.84,-0.38,0.43
0.82,-0.4,0.43
0.82,-0.4,0.45
0.83,-0.4,0.47
0.83,-0.4,0.49
0.81,-0.4,0.5
0.78,-0.39,0.52
0.76,-0.38,0.53
0.77,-0.36,0.53
0.78,-0.36,0.53
0.77,-0.37,0.54
0.75,-0.38,0.55
0.73,-0.39,0.56
0.73,-0.4,0.58
0.76,-0.41,0.59
0.84,-0.47,0.63
0.96,-0.55,0.68
1.06,-0.6,0.74
1.1,-0.57,0.67
0.99,-0.47,0.53
0.83,-0.39,0.39
0.74,-0.37,0.31
0.75,-0.41,0.29
0.86,-0.49,0.33
0.98,-0.56,0.37
1.01,-0.59,0.37
0.97,-0.58,0.34
0.91,-0.57,0.3
0.86,-0.58,0.26
0.82,-0.6,0.21
0.82,-0.64,0.17
0.85,-0.69,0.14
0.87,-0.73,0.12
0.88,-0.77,0.1
0.9,-0.8,0.08
0.9,-0.83,0.06
0.88,-0.87,0.02
0.87,-0.91,-0.01
0.85,-0.97,-0.03
0.82,-1.05,-0.04
0.79,-1.16,-0.04
0.77,-1.26,-0.03
0.73,-1.34,0.01
0.71,-1.41,0.08
0.78,-1.59,0.14
0.8,-1.61,0.21
0.78,-1.6,0.23
0.72,-1.65,0.19
0.61,-1.66,0.16
0.54,-1.59,0.19
0.5,-1.56,0.2
0.42,-1.53,0.24
0.34,-1.44,0.27
0.3,-1.31,0.26
0.26,-1.18,0.21
0.21,-1.07,0.15
0.18,-0.97,0.09
0.2,-0.89,0.03
0.17,-0.82,0.01
0.13,-0.73,-0.01
0.17,-0.64,-0.04
0.22,-0.59,-0.08
0.26,-0.56,-0.09
0.26,-0.52,-0.06
0.25,-0.46,-0.03
0.24,-0.43,-0.02
0.22,-0.42,-0.02
0.2,-0.39,-0.02
0.2,-0.36,-0.03
0.2,-0.34,-0.04
0.2,-0.32,-0.01
0.22,-0.33,0
0.22,-0.34,0.01
0.22,-0.36,0.01
0.2,-0.41,0
0.18,-0.45,0
0.17,-0.48,0.02
0.17,-0.49,0.03
0.18,-0.52,0.03
0.19,-0.55,0.02
0.21,-0.58,0.01
0.22,-0.62,0
0.22,-0.66,-0.01
0.25,-0.71,-0.02
0.29,-0.76,-0.03
0.32,-0.82,-0.03
0.34,-0.9,-0.02
0.37,-0.95,-0.01
0.4,-0.99,0
0.43,-0.99,0.01
0.42,-1,0.02
0.39,-1.01,0.03
0.41,-0.98,0.04
0.44,-0.96,0.05
0.44,-0.96,0.04
0.44,-0.95,0.01
0.47,-0.89,0.02
0.48,-0.92,0.03
0.51,-0.91,0.04
0.49,-0.91,0.06
0.48,-0.95,0.08
0.5,-0.98,0.09
0.51,-0.98,0.1
0.52,-1,0.1
0.53,-1.01,0.09
0.51,-1.02,0.09
0.49,-1.01,0.09
0.48,-1.02,0.09
0.47,-1.03,0.1
0.46,-1.02,0.1
0.45,-1.01,0.11
0.43,-1.01,0.09
0.43,-0.99,0.09
0.42,-0.98,0.08
0.42,-0.97,0.08
0.4,-0.96,0.08
0.39,-0.95,0.08
0.39,-0.95,0.07
0.38,-0.96,0.07
0.38,-0.96,0.07
0.38,-0.95,0.07
0.36,-0.95,0.07
0.34,-0.95,0.07
0.33,-0.95,0.07
0.32,-0.94,0.07
0.32,-0.94,0.07
0.31,-0.95,0.07
0.31,-0.96,0.06
0.31,-0.97,0.06
0.31,-0.97,0.07
0.31,-0.96,0.07
0.31,-0.96,0.07
0.3,-0.95,0.08
0.3,-0.95,0.08
0.3,-0.95,0.09
0.3,-0.95,0.09
0.3,-0.95,0.1
0.31,-0.95,0.1
0.31,-0.95,0.1
0.31,-0.95,0.1
0.31,-0.95,0.1
0.32,-0.96,0.1
0.33,-0.96,0.1
0.33,-0.96,0.1
0.34,-0.96,0.1
0.35,-0.97,0.1
0.35,-0.96,0.1
0.35,-0.96,0.1
0.35,-0.96,0.1
0.35,-0.97,0.1
0.35,-0.97,0.09
0.35,-0.96,0.09
0.35,-0.96,0.09
0.35,-0.96,0.09
0.36,-0.96,0.09
0.35,-0.96,0.09
0.35,-0.95,0.09
0.34,-0.95,0.09
0.34,-0.95,0.09
0.34,-0.95,0.09
0.34,-0.96,0.08
0.34,-0.96,0.09
0.33,-0.96,0.09
0.33,-0.96,0.1
0.33,-0.96,0.1
0.33,-0.96,0.1
0.33,-0.95,0.1
0.33,-0.95,0.1
0.33,-0.95,0.1
0.33,-0.95,0.1
0.33,-0.95,0.1
0.33,-0.95,0.1
0.33,-0.95,0.1
0.33,-0.96,0.11
0.33,-0.96,0.11
0.33,-0.96,0.11
0.32,-0.96,0.11
0.32,-0.96,0.1
0.33,-0.96,0.1
0.33,-0.96,0.11
0.33,-0.96,0.1
0.33,-0.96,0.1
0.33,-0.96,0.11
0.33,-0.96,0.11
0.33,-0.96,0.11
0.33,-0.96,0.11
0.33,-0.96,0.11
0.32,-0.95,0.11
0.33,-0.95,0.11
0.33,-0.95,0.1
0.33,-0.95,0.1
0.33,-0.96,0.1
0.33,-0.96,0.1
0.33,-0.96,0.1
0.34,-0.96,0.1
0.34,-0.96,0.1
0.34,-0.96,0.1
0.35,-0.96,0.1
0.35,-0.96,0.1
0.35,-0.96,0.1
0.34,-0.96,0.1
0.34,-0.96,0.1
0.34,-0.96,0.1
0.34,-0.95,0.11
0.34,-0.95,0.11
0.33,-0.95,0.11
0.33,-0.95,0.11
0.33,-0.94,0.11
0.33,-0.94,0.12
0.34,-0.94,0.11
0.35,-0.93,0.1
0.35,-0.93,0.09
0.34,-0.93,0.09
0.34,-0.93,0.09
0.35,-0.92,0.09
0.36,-0.91,0.09
0.35,-0.9,0.08
0.37,-0.89,0.07
0.37,-0.88,0.07
0.32,-0.87,0.09
0.31,-0.86,0.09
0.34,-0.85,0.08
0.33,-0.84,0.09
0.32,-0.83,0.08
0.34,-0.82,0.05
0.35,-0.81,0.04
0.33,-0.8,0.03
0.33,-0.79,0.02
0.34,-0.77,0.03
0.35,-0.75,0.03
0.35,-0.73,0.04
0.31,-0.73,0.04
0.31,-0.73,0.01
0.31,-0.72,0
0.3,-0.72,0.01
0.28,-0.71,0.01
0.24,-0.7,0.02
0.22,-0.68,0.05
0.23,-0.66,0.05
0.25,-0.66,0.04
0.26,-0.65,0.02
0.25,-0.64,0.02
0.24,-0.62,0.02
0.27,-0.61,-0.01
0.27,-0.61,-0.02
0.26,-0.61,0
0.26,-0.61,0.02
0.25,-0.65,0.06
0.25,-0.7,0.09
0.26,-0.74,0.09
0.27,-0.8,0.08
0.26,-0.87,0.07
0.24,-0.91,0.1
0.2,-0.93,0.15
0.29,-0.98,0.1
0.34,-1.01,0.13
0.37,-1.03,0.16
0.39,-1.03,0.19
0.43,-1.02,0.23
0.44,-1.02,0.26
0.46,-1.02,0.26
0.51,-1.05,0.21
0.56,-1.08,0.17
0.57,-1.09,0.24
0.61,-1.11,0.34
0.65,-1.13,0.38
0.65,-1.11,0.4
0.65,-1.07,0.38
0.69,-1.05,0.31
0.72,-1.01,0.24
0.73,-0.98,0.2
0.76,-0.96,0.17
0.76,-0.93,0.15
0.75,-0.92,0.16
0.75,-0.92,0.19
0.79,-0.93,0.21
0.88,-0.96,0.23
1,-0.99,0.25
1.08,-1.02,0.28
1.06,-0.98,0.35
0.91,-0.94,0.35
0.86,-0.93,0.34
0.87,-0.93,0.38
0.86,-0.89,0.51
0.82,-0.82,0.68
0.81,-0.76,0.8
0.83,-0.67,0.81
0.8,-0.59,0.78
0.77,-0.5,0.75
0.76,-0.4,0.7
0.74,-0.34,0.65
0.75,-0.27,0.6
0.79,-0.22,0.55
0.84,-0.19,0.53
0.84,-0.15,0.57
0.81,-0.14,0.61
0.82,-0.11,0.66
0.82,-0.11,0.71
0.79,-0.14,0.76
0.75,-0.16,0.79
0.72,-0.17,0.79
0.69,-0.21,0.78
0.65,-0.26,0.77
0.61,-0.29,0.76
0.59,-0.32,0.74
0.57,-0.36,0.66
0.59,-0.42,0.64
0.61,-0.45,0.63
0.62,-0.49,0.62
0.64,-0.53,0.61
0.67,-0.55,0.59
0.69,-0.58,0.58
0.71,-0.59,0.56
0.73,-0.6,0.54
0.77,-0.59,0.53
0.8,-0.58,0.51
0.81,-0.56,0.5
0.81,-0.53,0.5
0.79,-0.5,0.5
0.77,-0.48,0.51
0.77,-0.45,0.52
0.76,-0.44,0.52
0.74,-0.42,0.53
0.72,-0.42,0.55
0.71,-0.42,0.57
0.69,-0.42,0.59
0.68,-0.41,0.61
0.68,-0.4,0.62
0.67,-0.4,0.62
0.67,-0.39,0.62
0.68,-0.39,0.61
0.69,-0.39,0.59
0.72,-0.39,0.58
0.73,-0.38,0.58
0.74,-0.38,0.57
0.76,-0.38,0.56
0.77,-0.38,0.55
0.78,-0.38,0.54
0.79,-0.38,0.54
0.79,-0.38,0.53
0.8,-0.38,0.53
0.8,-0.38,0.53
0.8,-0.38,0.54
0.8,-0.38,0.54
0.8,-0.38,0.55
0.79,-0.38,0.56
0.79,-0.37,0.56
0.79,-0.37,0.56
0.78,-0.37,0.56
0.77,-0.37,0.56
0.77,-0.37,0.56
0.76,-0.38,0.56
0.76,-0.38,0.55
0.76,-0.39,0.55
0.76,-0.39,0.55
0.76,-0.39,0.54
0.77,-0.39,0.53
0.77,-0.39,0.53
0.78,-0.39,0.53
0.79,-0.39,0.53
0.79,-0.39,0.52
0.79,-0.39,0.52
0.79,-0.38,0.53
0.79,-0.38,0.53
0.79,-0.38,0.53
0.79,-0.38,0.53
0.79,-0.38,0.53
0.79,-0.38,0.53
0.79,-0.38,0.53
0.79,-0.37,0.53
0.79,-0.37,0.53
0.79,-0.37,0.53
0.78,-0.37,0.54
0.78,-0.37,0.54
0.78,-0.37,0.54
0.77,-0.37,0.55
0.77,-0.37,0.55
0.76,-0.37,0.55
0.76,-0.38,0.56
0.77,-0.38,0.56
0.77,-0.38,0.56
0.76,-0.38,0.56
0.77,-0.38,0.56
0.77,-0.38,0.55
0.77,-0.38,0.55
0.77,-0.38,0.55
0.77,-0.38,0.55
0.77,-0.38,0.55
0.77,-0.38,0.55
0.77,-0.38,0.55
0.77,-0.38,0.55
0.77,-0.38,0.55
0.77,-0.38,0.55
0.77,-0.38,0.55
0.77,-0.38,0.55
0.77,-0.37,0.55
0.77,-0.37,0.55
0.76,-0.37,0.55
0.76,-0.37,0.56
0.76,-0.37,0.55
0.77,-0.37,0.55
0.77,-0.37,0.56
0.77,-0.37,0.56
0.77,-0.37,0.56
0.78,-0.37,0.55
0.78,-0.37,0.55
0.77,-0.37,0.55
0.76,-0.37,0.55
0.77,-0.37,0.55
0.77,-0.37,0.55
0.76,-0.38,0.55
0.77,-0.37,0.56
0.77,-0.37,0.56
0.76,-0.38,0.56
0.76,-0.38,0.56
0.76,-0.38,0.56
0.76,-0.37,0.56
0.76,-0.37,0.56
0.77,-0.37,0.56
0.77,-0.37,0.55
0.77,-0.37,0.55
0.77,-0.37,0.56
0.77,-0.37,0.55
0.77,-0.37,0.55
0.77,-0.37,0.55
0.77,-0.37,0.55
0.77,-0.37,0.55
0.77,-0.37,0.55
0.77,-0.37,0.55
0.77,-0.37,0.56
0.77,-0.37,0.56
0.77,-0.37,0.55
0.77,-0.37,0.55
0.77,-0.37,0.55
0.77,-0.37,0.55
0.77,-0.37,0.55
0.77,-0.37,0.55
0.77,-0.37,0.55
0.77,-0.37,0.55
0.77,-0.37,0.55
0.77,-0.37,0.56
0.77,-0.37,0.55
0.77,-0.37,0.55
0.77,-0.37,0.55
0.77,-0.37,0.55
0.77,-0.37,0.56
0.77,-0.37,0.56
0.77,-0.37,0.56
0.77,-0.37,0.55
0.77,-0.37,0.55
0.77,-0.37,0.55
0.77,-0.37,0.55
0.77,-0.37,0.56
0.77,-0.37,0.56
0.77,-0.37,0.56
0.77,-0.37,0.55
0.77,-0.37,0.55
0.77,-0.37,0.55
0.77,-0.36,0.56
0.77,-0.36,0.56
0.77,-0.36,0.56
0.77,-0.37,0.56
0.76,-0.37,0.56
0.77,-0.37,0.56
0.77,-0.37,0.56
0.77,-0.37,0.55
0.77,-0.37,0.55
0.77,-0.37,0.55
0.77,-0.37,0.55
0.77,-0.37,0.55
0.77,-0.37,0.55
0.77,-0.37,0.55
0.77,-0.37,0.56
0.77,-0.37,0.56
0.77,-0.37,0.56
0.77,-0.37,0.56
0.77,-0.37,0.56
0.77,-0.36,0.56
0.77,-0.37,0.56
0.77,-0.37,0.56
0.77,-0.37,0.56
0.77,-0.36,0.56
0.77,-0.36,0.56
0.77,-0.37,0.56
0.77,-0.36,0.56
0.77,-0.36,0.56
0.77,-0.37,0.56
0.77,-0.37,0.56
0.77,-0.37,0.56
0.76,-0.37,0.56
0.76,-0.37,0.56
0.77,-0.37,0.56
0.77,-0.37,0.56
0.77,-0.37,0.55
0.77,-0.37,0.56
0.77,-0.37,0.56
0.77,-0.37,0.56
0.76,-0.37,0.56
0.76,-0.37,0.56
0.76,-0.38,0.56
0.76,-0.37,0.56
0.76,-0.37,0.56
0.77,-0.37,0.56
0.77,-0.37,0.56
0.77,-0.37,0.55
0.77,-0.37,0.55
0.77,-0.37,0.55
0.77,-0.36,0.55
0.77,-0.36,0.55
0.77,-0.36,0.55
0.77,-0.36,0.55
0.77,-0.36,0.55
0.77,-0.36,0.55
0.77,-0.36,0.55
0.77,-0.36,0.55
0.77,-0.37,0.55
0.77,-0.37,0.55
0.77,-0.37,0.55
0.77,-0.37,0.55
0.76,-0.37,0.54
0.76,-0.37,0.54
0.79,-0.37,0.55
0.8,-0.37,0.55
0.8,-0.38,0.54
0.8,-0.37,0.54
0.79,-0.37,0.54
0.79,-0.36,0.54
0.79,-0.36,0.54
0.78,-0.35,0.54
0.78,-0.35,0.54
0.78,-0.35,0.54
0.78,-0.36,0.54
0.78,-0.36,0.54
0.79,-0.36,0.54
0.78,-0.37,0.54
0.78,-0.37,0.53
0.78,-0.37,0.53
0.78,-0.37,0.53
0.78,-0.37,0.53
0.78,-0.37,0.53
0.79,-0.37,0.51
0.79,-0.39,0.52
0.79,-0.39,0.52
0.78,-0.39,0.52
0.78,-0.38,0.53
0.78,-0.38,0.54
0.78,-0.38,0.54
0.78,-0.37,0.54
0.78,-0.36,0.53
0.78,-0.37,0.53
0.77,-0.37,0.53
0.77,-0.37,0.53
0.77,-0.38,0.52
0.77,-0.39,0.52
0.77,-0.4,0.53
0.78,-0.41,0.53
0.8,-0.42,0.54
0.8,-0.42,0.55
0.77,-0.43,0.55
0.73,-0.4,0.53
0.67,-0.37,0.51
0.63,-0.37,0.51
0.65,-0.38,0.53
0.68,-0.4,0.55
0.7,-0.41,0.55
0.68,-0.41,0.56
0.64,-0.4,0.57
0.62,-0.41,0.56
0.64,-0.44,0.57
0.69,-0.49,0.58
0.73,-0.59,0.61
0.87,-0.71,0.71
1.03,-0.84,0.86
1.08,-0.92,0.95
1,-0.89,0.84
0.82,-0.74,0.57
0.63,-0.61,0.35
0.56,-0.56,0.23
0.64,-0.56,0.2
0.78,-0.59,0.23
0.93,-0.61,0.29
1.02,-0.61,0.32
1.04,-0.58,0.31
1.02,-0.56,0.26
0.96,-0.54,0.22
0.9,-0.56,0.19
0.9,-0.63,0.17
0.9,-0.72,0.16
0.89,-0.79,0.16
0.89,-0.83,0.15
0.87,-0.83,0.11
0.81,-0.83,0.05
0.77,-0.84,-0.02
0.78,-0.89,-0.16
0.77,-0.92,-0.2
0.78,-0.98,-0.22
0.82,-1.08,-0.22
0.85,-1.17,-0.21
0.84,-1.23,-0.22
0.81,-1.25,-0.22
0.78,-1.26,-0.2
0.76,-1.31,-0.17
0.69,-1.37,-0.17
0.62,-1.4,-0.14
0.6,-1.45,-0.07
0.55,-1.53,0.01
0.53,-1.64,0.1
0.48,-1.72,0.16
0.33,-1.67,0.16
0.18,-1.61,0.13
0.08,-1.52,0.08
-0.11,-1.41,0.06
-0.28,-1.34,0.06
-0.25,-1.25,0.04
-0.17,-1.13,0.02
-0.1,-1.02,0.04
-0.03,-0.91,0.05
-0.01,-0.81,0.05
-0.02,-0.71,0.06
0.04,-0.63,0.05
0.13,-0.59,0.07
0.17,-0.55,0.12
0.22,-0.52,0.15
0.25,-0.5,0.16
0.25,-0.48,0.17
0.23,-0.45,0.18
0.21,-0.42,0.19
0.21,-0.4,0.17
0.21,-0.4,0.15
0.22,-0.42,0.12
0.23,-0.44,0.09
0.23,-0.46,0.06
0.22,-0.47,0.04
0.21,-0.47,0.02
0.18,-0.47,0
0.15,-0.48,-0.03
0.15,-0.5,-0.07
0.15,-0.55,-0.1
0.16,-0.62,-0.12
0.21,-0.69,-0.13
0.28,-0.74,-0.13
0.31,-0.78,-0.12
0.32,-0.83,-0.11
0.37,-0.87,-0.1
0.42,-0.91,-0.11
0.43,-0.93,-0.05
0.39,-0.94,-0.02
0.44,-0.9,-0.03
0.42,-0.88,-0.02
0.35,-0.88,0.02
0.35,-0.87,0
0.36,-0.87,-0.01
0.41,-0.86,-0.01
0.41,-0.89,-0.01
0.34,-0.94,-0.03
0.37,-0.96,-0.04
0.41,-0.98,-0.06
0.43,-1,-0.07
0.44,-1.03,-0.06
0.44,-1.06,-0.03
0.46,-1.06,-0.01
0.48,-1.07,0.02
0.49,-1.05,0.05
0.51,-1.04,0.08
0.51,-1.02,0.1
0.51,-1.01,0.11
0.52,-0.99,0.11
0.51,-0.96,0.1
0.5,-0.94,0.08
0.49,-0.93,0.07
0.49,-0.92,0.06
0.47,-0.91,0.04
0.46,-0.9,0.03
0.46,-0.91,0.01
0.45,-0.91,0
0.42,-0.93,0
0.4,-0.94,0
0.39,-0.94,-0.01
0.38,-0.94,-0.01
0.38,-0.95,-0.01
0.37,-0.94,-0.01
0.36,-0.94,-0.01
0.36,-0.95,-0.01
0.36,-0.95,0
0.37,-0.94,0.01
0.36,-0.95,0.01
0.34,-0.95,0.01
0.33,-0.96,0.01
0.33,-0.96,0.01
0.32,-0.96,0.02
0.32,-0.95,0.03
0.32,-0.94,0.03
0.32,-0.94,0.04
0.33,-0.94,0.05
0.33,-0.94,0.06
0.34,-0.94,0.06
0.35,-0.95,0.06
0.36,-0.95,0.05
0.37,-0.95,0.04
0.37,-0.95,0.03
0.37,-0.95,0.03
0.38,-0.95,0.03
0.39,-0.95,0.04
0.39,-0.95,0.04
0.39,-0.95,0.04
0.4,-0.95,0.04
0.4,-0.95,0.03
0.4,-0.94,0.03
0.39,-0.94,0.03
0.39,-0.94,0.03
0.38,-0.94,0.03
0.38,-0.94,0.02
0.37,-0.94,0.02
0.37,-0.94,0.03
0.37,-0.94,0.03
0.36,-0.94,0.03
0.36,-0.95,0.03
0.36,-0.95,0.03
0.36,-0.95,0.03
0.36,-0.95,0.04
0.36,-0.95,0.04
0.36,-0.95,0.04
0.36,-0.95,0.04
0.36,-0.96,0.04
0.36,-0.96,0.04
0.36,-0.95,0.04
0.36,-0.95,0.05
0.37,-0.95,0.05
0.37,-0.94,0.05
0.37,-0.94,0.04
0.37,-0.94,0.04
0.37,-0.95,0.04
0.38,-0.95,0.04
0.38,-0.95,0.04
0.38,-0.95,0.04
0.38,-0.95,0.04
0.38,-0.95,0.03
0.38,-0.95,0.03
0.38,-0.96,0.03
0.38,-0.96,0.03
0.38,-0.95,0.03
0.38,-0.95,0.04
0.38,-0.95,0.04
0.38,-0.95,0.04
0.37,-0.95,0.04
0.37,-0.96,0.04
0.37,-0.95,0.04
0.37,-0.95,0.04
0.37,-0.95,0.05
0.37,-0.95,0.04
0.37,-0.95,0.04
0.37,-0.95,0.04
0.37,-0.95,0.04
0.37,-0.95,0.04
0.37,-0.95,0.04
0.37,-0.95,0.04
0.37,-0.95,0.04
0.37,-0.95,0.04
0.37,-0.95,0.04
0.37,-0.94,0.04
0.37,-0.94,0.04
0.37,-0.94,0.04
0.37,-0.95,0.04
0.37,-0.94,0.04
0.37,-0.94,0.04
0.37,-0.94,0.04
0.37,-0.94,0.04
0.37,-0.94,0.04
0.37,-0.95,0.04
0.37,-0.95,0.04
0.37,-0.95,0.04
0.37,-0.95,0.05
0.37,-0.95,0.05
0.37,-0.95,0.05
0.37,-0.95,0.05
0.37,-0.95,0.05
0.37,-0.95,0.05
0.37,-0.95,0.05
0.37,-0.95,0.05
0.37,-0.95,0.05
0.37,-0.95,0.05
0.38,-0.96,0.05
0.39,-0.95,0.05
0.39,-0.95,0.05
0.39,-0.96,0.06
0.39,-0.96,0.05
0.39,-0.95,0.04
0.39,-0.95,0.03
0.39,-0.94,0.04
0.38,-0.94,0.05
0.37,-0.94,0.06
0.36,-0.93,0.07
0.36,-0.93,0.06
0.36,-0.93,0.06
0.36,-0.93,0.06
0.35,-0.94,0.05
0.35,-0.94,0.06
0.35,-0.94,0.06
0.35,-0.95,0.06
0.35,-0.95,0.07
0.35,-0.95,0.07
0.36,-0.95,0.07
0.36,-0.96,0.06
0.36,-0.96,0.06
0.36,-0.96,0.06
0.36,-0.96,0.06
0.37,-0.96,0.06
0.37,-0.96,0.06
0.37,-0.96,0.06
0.37,-0.96,0.06
0.37,-0.96,0.06
0.38,-0.96,0.06
0.38,-0.95,0.05
0.37,-0.94,0.05
0.37,-0.94,0.05
0.37,-0.94,0.05
0.37,-0.94,0.05
0.37,-0.94,0.06
0.37,-0.94,0.06
0.38,-0.94,0.06
0.37,-0.94,0.06
0.37,-0.94,0.06
0.37,-0.94,0.06
0.37,-0.94,0.06
0.37,-0.95,0.06
0.37,-0.95,0.06
0.38,-0.95,0.06
0.38,-0.96,0.06
0.37,-0.96,0.06
0.37,-0.96,0.06
0.37,-0.96,0.06
0.36,-0.96,0.06
0.36,-0.95,0.06
0.37,-0.95,0.06
0.37,-0.95,0.05
0.38,-0.95,0.06
0.38,-0.94,0.06
0.37,-0.94,0.06
0.37,-0.95,0.05
0.37,-0.95,0.05
0.37,-0.95,0.04
0.36,-0.96,0.04
0.36,-0.96,0.05
0.36,-0.95,0.05
0.36,-0.95,0.05
0.37,-0.95,0.05
0.37,-0.94,0.05
0.38,-0.94,0.06
0.38,-0.94,0.06
0.38,-0.93,0.06
0.38,-0.93,0.07
0.4,-0.93,0.07
0.41,-0.93,0.08
0.4,-0.92,0.08
0.39,-0.92,0.08
0.4,-0.9,0.09
0.4,-0.89,0.09
0.41,-0.88,0.1
0.4,-0.86,0.1
0.41,-0.85,0.1
0.41,-0.84,0.09
0.41,-0.84,0.09
0.42,-0.81,0.09
0.4,-0.8,0.09
0.38,-0.78,0.09
0.38,-0.76,0.09
0.38,-0.75,0.09
0.37,-0.72,0.07
0.38,-0.71,0.05
0.34,-0.69,0.08
0.29,-0.67,0.12
0.28,-0.63,0.12
0.28,-0.61,0.1
0.29,-0.59,0.07
0.3,-0.57,0.03
0.31,-0.57,0.01
0.31,-0.57,0.03
0.31,-0.56,0.07
0.3,-0.56,0.08
0.27,-0.57,0.06
0.24,-0.6,0.06
0.21,-0.62,0.08
0.21,-0.64,0.1
0.23,-0.66,0.13
0.25,-0.69,0.15
0.27,-0.72,0.17
0.29,-0.74,0.2
0.3,-0.76,0.2
0.3,-0.78,0.18
0.31,-0.8,0.17
0.34,-0.85,0.17
0.36,-0.91,0.19
0.37,-0.95,0.22
0.39,-0.99,0.26
0.4,-1.03,0.29
0.41,-1.07,0.28
0.45,-1.11,0.22
0.48,-1.15,0.18
0.48,-1.15,0.23
0.49,-1.16,0.31
0.56,-1.18,0.38
0.64,-1.18,0.44
0.67,-1.13,0.47
0.64,-1.07,0.45
0.6,-1.02,0.43
0.55,-0.96,0.4
0.55,-0.92,0.34
0.6,-0.83,0.22
0.6,-0.81,0.21
0.6,-0.8,0.22
0.63,-0.78,0.23
0.69,-0.76,0.24
0.76,-0.81,0.27
0.85,-0.85,0.31
0.96,-0.89,0.35
1.05,-0.95,0.39
1.14,-0.98,0.39
1.2,-1,0.4
1.24,-0.99,0.41
1.23,-1,0.44
1.24,-1.02,0.52
1.19,-0.97,0.66
1.04,-0.86,0.77
0.89,-0.75,0.79
0.8,-0.64,0.74
0.74,-0.53,0.65
0.69,-0.45,0.56
0.64,-0.37,0.5
0.63,-0.28,0.48
0.67,-0.21,0.49
0.69,-0.17,0.56
0.68,-0.16,0.66
0.7,-0.14,0.81
0.72,-0.11,0.86
0.72,-0.15,0.91
0.67,-0.18,0.92
0.63,-0.22,0.89
0.6,-0.25,0.85
0.57,-0.28,0.81
0.56,-0.31,0.75
0.56,-0.35,0.69
0.57,-0.38,0.65
0.56,-0.41,0.62
0.57,-0.46,0.59
0.59,-0.51,0.56
0.61,-0.54,0.55
0.64,-0.55,0.54
0.68,-0.55,0.53
0.7,-0.54,0.54
0.72,-0.55,0.54
0.75,-0.55,0.52
0.78,-0.54,0.52
0.79,-0.52,0.52
0.81,-0.5,0.52
0.83,-0.48,0.52
0.84,-0.45,0.53
0.82,-0.43,0.54
0.81,-0.41,0.56
0.79,-0.39,0.57
0.77,-0.35,0.61
0.77,-0.34,0.62
0.78,-0.33,0.64
0.78,-0.32,0.65
0.77,-0.32,0.65
0.75,-0.32,0.66
0.72,-0.33,0.66
0.71,-0.33,0.65
0.71,-0.34,0.64
0.71,-0.35,0.63
0.72,-0.36,0.63
0.72,-0.36,0.62
0.73,-0.36,0.61
0.74,-0.37,0.6
0.75,-0.37,0.59
0.76,-0.37,0.58
0.77,-0.37,0.57
0.77,-0.37,0.56
0.78,-0.37,0.55
0.77,-0.37,0.55
0.77,-0.37,0.55
0.77,-0.37,0.56
0.76,-0.37,0.56
0.76,-0.36,0.57
0.75,-0.36,0.57
0.75,-0.36,0.58
0.74,-0.36,0.59
0.74,-0.36,0.59
0.74,-0.36,0.6
0.74,-0.36,0.6
0.74,-0.36,0.6
0.74,-0.36,0.6
0.74,-0.36,0.6
0.74,-0.37,0.59
0.74,-0.37,0.59
0.75,-0.37,0.59
0.75,-0.37,0.59
0.75,-0.37,0.59
0.74,-0.37,0.59
0.75,-0.37,0.59
0.75,-0.37,0.58
0.75,-0.37,0.58
0.75,-0.37,0.58
0.75,-0.36,0.59
0.75,-0.37,0.58
0.75,-0.37,0.58
0.75,-0.37,0.58
0.75,-0.37,0.58
0.75,-0.37,0.58
0.75,-0.37,0.58
0.74,-0.36,0.59
0.74,-0.36,0.59
0.75,-0.37,0.59
0.75,-0.36,0.59
0.75,-0.36,0.59
0.75,-0.36,0.58
0.75,-0.36,0.58
0.75,-0.36,0.58
0.75,-0.36,0.58
0.75,-0.36,0.59
0.74,-0.36,0.59
0.74,-0.36,0.59
0.74,-0.37,0.59
0.75,-0.37,0.59
0.74,-0.37,0.59
0.75,-0.37,0.59
0.75,-0.36,0.59
0.74,-0.36,0.59
0.74,-0.37,0.59
0.75,-0.37,0.59
0.74,-0.36,0.59
0.74,-0.36,0.59
0.74,-0.37,0.59
0.74,-0.37,0.59
0.75,-0.37,0.59
0.75,-0.37,0.59
0.75,-0.37,0.59
0.75,-0.36,0.59
0.75,-0.37,0.59
0.74,-0.37,0.59
0.75,-0.36,0.59
0.75,-0.36,0.59
0.75,-0.36,0.59
0.75,-0.37,0.59
0.74,-0.37,0.59
0.74,-0.37,0.59
0.74,-0.36,0.59
0.74,-0.36,0.59
0.74,-0.37,0.59
0.74,-0.37,0.59
0.74,-0.37,0.59
0.75,-0.37,0.59
0.75,-0.37,0.59
0.74,-0.37,0.59
0.75,-0.37,0.59
0.75,-0.37,0.59
0.75,-0.37,0.59
0.75,-0.37,0.59
0.75,-0.37,0.59
0.74,-0.37,0.59
0.75,-0.37,0.59
0.75,-0.37,0.59
0.75,-0.37,0.59
0.75,-0.37,0.58
0.75,-0.36,0.58
0.75,-0.36,0.58
0.74,-0.36,0.58
0.74,-0.36,0.59
0.74,-0.36,0.59
0.74,-0.36,0.59
0.74,-0.36,0.59
0.74,-0.36,0.6
0.74,-0.36,0.6
0.74,-0.36,0.6
0.73,-0.37,0.6
0.74,-0.36,0.6
0.74,-0.37,0.6
0.75,-0.37,0.59
0.75,-0.37,0.59
0.75,-0.37,0.58
0.75,-0.37,0.58
0.75,-0.37,0.58
0.75,-0.36,0.58
0.74,-0.37,0.59
0.74,-0.37,0.59
0.74,-0.37,0.59
0.74,-0.37,0.59
0.74,-0.37,0.6
0.74,-0.37,0.6
0.74,-0.37,0.6
0.74,-0.37,0.59
0.74,-0.37,0.59
0.75,-0.37,0.59
0.75,-0.37,0.59
0.75,-0.37,0.58
0.75,-0.37,0.58
0.75,-0.36,0.58
0.76,-0.36,0.58
0.76,-0.36,0.58
0.75,-0.36,0.58
0.75,-0.35,0.58
0.75,-0.35,0.58
0.74,-0.35,0.59
0.74,-0.35,0.59
0.74,-0.35,0.59
0.73,-0.35,0.59
0.73,-0.36,0.6
0.73,-0.36,0.61
0.74,-0.36,0.61
0.74,-0.36,0.61
0.74,-0.37,0.6
0.74,-0.37,0.6
0.75,-0.37,0.59
0.75,-0.37,0.59
0.75,-0.38,0.58
0.75,-0.37,0.58
0.75,-0.37,0.58
0.75,-0.37,0.59
0.74,-0.37,0.59
0.74,-0.37,0.6
0.74,-0.37,0.6
0.74,-0.37,0.6
0.74,-0.37,0.6
0.74,-0.37,0.6
0.74,-0.37,0.59
0.74,-0.36,0.59
0.75,-0.36,0.59
0.75,-0.36,0.59
0.75,-0.36,0.59
0.75,-0.36,0.59
0.74,-0.36,0.59
0.74,-0.36,0.59
0.74,-0.36,0.59
0.74,-0.36,0.59
0.74,-0.36,0.6
0.74,-0.36,0.6
0.75,-0.36,0.59
0.76,-0.37,0.59
0.75,-0.37,0.59
0.75,-0.37,0.6
0.74,-0.36,0.6
0.74,-0.36,0.6
0.74,-0.36,0.59
0.74,-0.37,0.58
0.75,-0.38,0.58
0.76,-0.39,0.58
0.76,-0.38,0.58
0.76,-0.37,0.58
0.76,-0.36,0.59
0.76,-0.34,0.59
0.75,-0.34,0.59
0.74,-0.34,0.59
0.74,-0.35,0.58
0.75,-0.36,0.58
0.76,-0.37,0.59
0.78,-0.37,0.59
0.78,-0.37,0.59
0.78,-0.36,0.59
0.79,-0.36,0.58
0.77,-0.36,0.57
0.76,-0.35,0.57
0.75,-0.34,0.57
0.75,-0.34,0.58
0.76,-0.34,0.58
0.76,-0.35,0.6
0.77,-0.36,0.61
0.81,-0.36,0.59
0.83,-0.34,0.56
0.83,-0.33,0.56
0.86,-0.31,0.5
0.9,-0.27,0.48
0.84,-0.27,0.48
0.79,-0.28,0.46
0.76,-0.29,0.46
0.77,-0.29,0.47
0.74,-0.3,0.48
0.68,-0.32,0.5
0.64,-0.34,0.53
0.66,-0.35,0.55
0.67,-0.37,0.57
0.7,-0.38,0.57
0.73,-0.39,0.56
0.76,-0.4,0.54
0.77,-0.42,0.54
0.78,-0.44,0.55
0.78,-0.46,0.55
0.76,-0.47,0.54
0.76,-0.49,0.53
0.76,-0.49,0.49
0.76,-0.49,0.45
0.76,-0.49,0.41
0.77,-0.5,0.4
0.78,-0.52,0.4
0.79,-0.53,0.4
0.79,-0.52,0.41
0.79,-0.52,0.42
0.7,-0.46,0.43
0.64,-0.44,0.43
0.62,-0.43,0.44
0.66,-0.43,0.43
0.7,-0.44,0.44
0.76,-0.46,0.46
0.81,-0.5,0.46
0.87,-0.56,0.43
0.99,-0.63,0.43
1.12,-0.7,0.45
1.18,-0.77,0.48
1.17,-0.81,0.49
1.08,-0.77,0.46
0.88,-0.65,0.36
0.67,-0.54,0.22
0.62,-0.48,0.14
0.74,-0.47,0.16
0.93,-0.48,0.24
1.1,-0.48,0.34
1.14,-0.44,0.38
1.11,-0.4,0.35
1.06,-0.39,0.3
1.03,-0.42,0.24
1.05,-0.5,0.2
1.07,-0.57,0.17
1.05,-0.63,0.07
0.98,-0.72,0.01
0.95,-0.78,-0.05
0.89,-0.84,-0.09
0.83,-0.9,-0.14
0.79,-0.94,-0.16
0.76,-0.99,-0.15
0.72,-1.06,-0.12
0.68,-1.14,-0.09
0.62,-1.23,-0.09
0.63,-1.3,-0.12
0.69,-1.38,-0.18
0.65,-1.49,-0.24
0.64,-1.58,-0.29
0.64,-1.63,-0.28
0.63,-1.62,-0.25
0.64,-1.67,-0.31
0.51,-1.73,-0.29
0.39,-1.65,-0.19
0.37,-1.61,-0.08
0.29,-1.57,0
0.24,-1.48,0
0.18,-1.44,0.01
0.26,-1.44,-0.04
0.35,-1.37,-0.15
0.31,-1.19,-0.19
0.45,-1.04,-0.21
0.5,-0.83,-0.15
0.35,-0.75,-0.13
0.32,-0.66,-0.07
0.29,-0.58,0
0.29,-0.53,0.03
0.26,-0.51,0.08
0.29,-0.46,0.06
0.31,-0.42,0.07
0.22,-0.39,0.13
0.23,-0.38,0.12
0.3,-0.37,0.14
0.3,-0.36,0.17
0.29,-0.36,0.18
0.26,-0.37,0.18
0.23,-0.38,0.15
0.22,-0.38,0.13
0.19,-0.39,0.11
0.18,-0.39,0.07
0.19,-0.41,0.03
0.19,-0.43,0.01
0.19,-0.45,0.01
0.2,-0.49,-0.03
0.21,-0.53,-0.09
0.21,-0.59,-0.11
0.21,-0.64,-0.15
0.23,-0.68,-0.18
0.25,-0.76,-0.2
0.31,-0.82,-0.2
0.38,-0.85,-0.18
0.43,-0.87,-0.14
0.42,-0.88,-0.1
0.43,-0.88,-0.07
0.47,-0.89,-0.06
0.48,-0.89,-0.05
0.49,-0.89,-0.06
0.47,-0.89,-0.06
0.44,-0.9,-0.08
0.42,-0.91,-0.08
0.41,-0.93,-0.07
0.43,-0.96,-0.04
0.45,-0.97,0.02
0.46,-0.99,0.09
0.47,-1,0.15
0.47,-1,0.19
0.47,-1,0.19
0.47,-0.99,0.17
0.47,-0.99,0.14
0.48,-0.99,0.13
0.49,-1,0.12
0.5,-0.99,0.14
0.5,-0.98,0.16
0.48,-0.97,0.17
0.45,-0.96,0.15
0.43,-0.95,0.12
0.44,-0.95,0.1
0.46,-0.95,0.08
0.46,-0.94,0.07
0.46,-0.93,0.05
0.46,-0.92,0.03
0.46,-0.91,0.02
0.46,-0.92,0.01
0.45,-0.91,0.01
0.44,-0.91,0
0.43,-0.91,0
0.42,-0.9,0
0.43,-0.89,-0.01
0.42,-0.9,0.01
0.4,-0.91,0.01
0.41,-0.91,0.01
0.4,-0.92,0.02
0.39,-0.91,0.03
0.41,-0.92,0.04
0.41,-0.92,0.04
0.42,-0.93,0.05
0.42,-0.93,0.06
0.42,-0.94,0.07
0.42,-0.94,0.07
0.43,-0.94,0.07
0.43,-0.94,0.07
0.44,-0.93,0.07
0.45,-0.92,0.07
0.45,-0.92,0.07
0.45,-0.92,0.07
0.45,-0.92,0.07
0.46,-0.92,0.06
0.46,-0.93,0.05
0.46,-0.93,0.05
0.46,-0.92,0.05
0.46,-0.92,0.05
0.46,-0.92,0.05
0.45,-0.92,0.05
0.44,-0.92,0.05
0.44,-0.92,0.04
0.44,-0.92,0.04
0.44,-0.92,0.03
0.43,-0.92,0.03
0.43,-0.93,0.03
0.42,-0.93,0.03
0.42,-0.93,0.03
0.41,-0.93,0.04
0.41,-0.93,0.04
0.41,-0.93,0.05
0.4,-0.93,0.05
0.4,-0.92,0.06
0.4,-0.92,0.05
0.41,-0.93,0.05
0.41,-0.94,0.05
0.4,-0.94,0.05
0.4,-0.94,0.05
0.4,-0.93,0.05
0.4,-0.93,0.05
0.4,-0.93,0.05
0.4,-0.94,0.05
0.4,-0.93,0.05
0.4,-0.94,0.05
0.41,-0.94,0.05
0.41,-0.93,0.05
0.41,-0.93,0.05
0.4,-0.93,0.05
0.4,-0.93,0.05
0.41,-0.93,0.05
0.42,-0.93,0.05
0.42,-0.93,0.05
0.42,-0.93,0.05
0.42,-0.93,0.05
0.42,-0.93,0.05
0.42,-0.93,0.05
0.42,-0.93,0.05
0.42,-0.93,0.05
0.42,-0.93,0.05
0.43,-0.93,0.05
0.43,-0.93,0.05
0.43,-0.93,0.05
0.42,-0.93,0.05
0.42,-0.93,0.05
0.42,-0.93,0.05
0.42,-0.93,0.05
0.42,-0.93,0.05
0.42,-0.94,0.05
0.42,-0.94,0.05
0.42,-0.93,0.05
0.41,-0.93,0.05
0.41,-0.93,0.05
0.41,-0.92,0.06
0.41,-0.93,0.06
0.41,-0.93,0.06
0.41,-0.93,0.05
0.42,-0.93,0.05
0.42,-0.92,0.05
0.43,-0.92,0.05
0.43,-0.93,0.05
0.43,-0.93,0.05
0.43,-0.92,0.05
0.44,-0.92,0.05
0.44,-0.93,0.05
0.44,-0.93,0.05
0.44,-0.93,0.05
0.45,-0.94,0.05
0.45,-0.94,0.05
0.45,-0.94,0.05
0.44,-0.93,0.05
0.44,-0.93,0.05
0.44,-0.93,0.05
0.43,-0.93,0.06
0.43,-0.92,0.06
0.42,-0.92,0.06
0.42,-0.92,0.06
0.42,-0.93,0.06
0.42,-0.92,0.06
0.42,-0.93,0.06
0.42,-0.93,0.05
0.42,-0.93,0.05
0.42,-0.93,0.05
0.42,-0.93,0.06
0.42,-0.93,0.06
0.42,-0.93,0.06
0.42,-0.93,0.06
0.43,-0.93,0.06
0.43,-0.94,0.06
0.43,-0.94,0.07
0.43,-0.94,0.08
0.43,-0.94,0.09
0.44,-0.93,0.09
0.44,-0.93,0.09
0.44,-0.93,0.08
0.44,-0.93,0.08
0.43,-0.93,0.08
0.43,-0.93,0.08
0.42,-0.92,0.08
0.42,-0.92,0.08
0.41,-0.92,0.09
0.4,-0.91,0.08
0.39,-0.91,0.08
0.39,-0.91,0.08
0.38,-0.9,0.08
0.39,-0.9,0.08
0.38,-0.89,0.07
0.38,-0.89,0.07
0.38,-0.89,0.07
0.38,-0.88,0.07
0.38,-0.87,0.06
0.37,-0.86,0.07
0.34,-0.85,0.07
0.35,-0.83,0.07
0.35,-0.81,0.08
0.35,-0.8,0.07
0.35,-0.79,0.06
0.33,-0.77,0.07
0.33,-0.75,0.07
0.33,-0.73,0.06
0.31,-0.73,0.06
0.3,-0.72,0.05
0.3,-0.72,0.04
0.31,-0.71,0.04
0.31,-0.7,0.04
0.32,-0.7,0.01
0.3,-0.7,0.01
0.27,-0.69,0.02
0.26,-0.67,0.01
0.26,-0.65,0.01
0.25,-0.63,0
0.25,-0.62,-0.01
0.27,-0.61,-0.02
0.27,-0.6,-0.01
0.27,-0.59,0
0.27,-0.57,0.01
0.26,-0.57,0
0.28,-0.58,-0.04
0.32,-0.6,-0.05
0.32,-0.62,-0.04
0.31,-0.66,-0.07
0.32,-0.71,-0.09
0.31,-0.76,-0.1
0.3,-0.82,-0.1
0.28,-0.9,-0.07
0.23,-0.98,0.09
0.24,-1.06,0.05
0.25,-1.11,0.01
0.35,-1.13,-0.03
0.41,-1.12,0.01
0.34,-1.11,0.11
0.31,-1.08,0.19
0.37,-1.06,0.22
0.41,-1.04,0.24
0.4,-1.02,0.28
0.42,-1,0.3
0.49,-0.97,0.29
0.54,-1.01,0.31
0.82,-1.13,0.41
1.2,-1.25,0.58
1.28,-1.27,0.66
1.14,-1.2,0.6
0.97,-1.11,0.48
0.84,-1.06,0.34
0.84,-1.01,0.22
0.89,-0.95,0.16
0.92,-0.96,0.14
0.95,-0.96,0.13
0.96,-0.99,0.14
0.96,-1.01,0.19
0.96,-1.04,0.33
0.96,-1.03,0.73
0.97,-0.88,0.79
0.93,-0.75,0.69
0.86,-0.68,0.59
0.81,-0.62,0.54
0.78,-0.59,0.51
0.78,-0.54,0.51
0.77,-0.46,0.52
0.76,-0.37,0.55
0.73,-0.3,0.6
0.67,-0.24,0.65
0.6,-0.17,0.7
0.58,-0.14,0.74
0.59,-0.12,0.77
0.59,-0.13,0.8
0.56,-0.16,0.84
0.55,-0.19,0.86
0.57,-0.21,0.86
0.59,-0.22,0.85
0.62,-0.25,0.84
0.63,-0.28,0.82
0.66,-0.31,0.78
0.7,-0.34,0.71
0.72,-0.37,0.66
0.74,-0.39,0.62
0.75,-0.41,0.58
0.76,-0.42,0.51
0.77,-0.45,0.48
0.78,-0.46,0.48
0.78,-0.46,0.49
0.78,-0.46,0.51
0.78,-0.47,0.52
0.77,-0.48,0.54
0.78,-0.49,0.56
0.78,-0.49,0.58
0.77,-0.48,0.59
0.77,-0.48,0.6
0.76,-0.46,0.61
0.74,-0.45,0.62
0.73,-0.44,0.63
0.73,-0.43,0.64
0.72,-0.42,0.64
0.72,-0.4,0.64
0.72,-0.39,0.64
0.72,-0.38,0.64
0.71,-0.36,0.63
0.7,-0.35,0.62
0.7,-0.34,0.61
0.71,-0.33,0.6
0.71,-0.33,0.6
0.73,-0.34,0.6
0.74,-0.35,0.59
0.75,-0.35,0.58
0.76,-0.37,0.58
0.76,-0.37,0.58
0.76,-0.37,0.59
0.75,-0.37,0.58
0.75,-0.38,0.57
0.75,-0.38,0.57
0.76,-0.38,0.57
0.76,-0.38,0.57
0.76,-0.38,0.57
0.76,-0.37,0.57
0.76,-0.37,0.57
0.76,-0.37,0.57
0.76,-0.36,0.57
0.76,-0.36,0.58
0.75,-0.36,0.58
0.76,-0.35,0.58
0.76,-0.35,0.58
0.76,-0.35,0.59
0.75,-0.35,0.59
0.75,-0.36,0.59
0.75,-0.36,0.59
0.75,-0.36,0.59
0.75,-0.36,0.59
0.75,-0.36,0.59
0.75,-0.37,0.59
0.75,-0.36,0.59
0.75,-0.36,0.59
0.74,-0.36,0.59
0.74,-0.36,0.59
0.74,-0.37,0.59
0.74,-0.37,0.59
0.74,-0.37,0.59
0.74,-0.37,0.59
0.74,-0.37,0.59
0.74,-0.37,0.59
0.74,-0.37,0.59
0.74,-0.37,0.59
0.74,-0.37,0.58
0.74,-0.37,0.59
0.75,-0.37,0.59
0.75,-0.36,0.59
0.75,-0.37,0.59
0.75,-0.37,0.59
0.75,-0.37,0.59
0.75,-0.37,0.58
0.74,-0.37,0.58
0.74,-0.37,0.59
0.74,-0.37,0.59
0.74,-0.37,0.59
0.74,-0.37,0.59
0.74,-0.37,0.59
0.74,-0.37,0.59
0.74,-0.37,0.59
0.74,-0.37,0.59
0.74,-0.37,0.59
0.74,-0.37,0.59
0.74,-0.37,0.59
0.74,-0.37,0.59
0.74,-0.36,0.59
0.74,-0.36,0.59
0.74,-0.37,0.59
0.74,-0.37,0.59
0.74,-0.37,0.59
0.75,-0.37,0.59
0.74,-0.37,0.59
0.74,-0.37,0.59
0.74,-0.37,0.59
0.74,-0.37,0.59
0.74,-0.37,0.59
0.74,-0.37,0.59
0.74,-0.37,0.59
0.74,-0.37,0.59
0.74,-0.37,0.59
0.74,-0.37,0.59
0.74,-0.37,0.59
0.74,-0.37,0.59
0.74,-0.37,0.59
0.74,-0.37,0.59
0.74,-0.37,0.59
0.74,-0.37,0.59
0.74,-0.37,0.59
0.74,-0.37,0.59
0.74,-0.37,0.59
0.74,-0.37,0.59
0.74,-0.37,0.59
0.74,-0.37,0.59
0.74,-0.37,0.59
0.74,-0.37,0.59
0.74,-0.37,0.6
0.74,-0.36,0.59
0.74,-0.37,0.59
0.74,-0.37,0.59
0.74,-0.37,0.59
0.74,-0.36,0.59
0.74,-0.37,0.59
0.74,-0.37,0.59
0.74,-0.36,0.59
0.74,-0.37,0.59
0.74,-0.37,0.59
0.74,-0.37,0.59
0.74,-0.37,0.59
0.74,-0.37,0.59
0.74,-0.37,0.59
0.74,-0.37,0.59
0.75,-0.37,0.59
0.75,-0.37,0.59
0.75,-0.36,0.59
0.75,-0.36,0.59
0.75,-0.37,0.59
0.75,-0.36,0.59
0.74,-0.36,0.59
0.74,-0.36,0.59
0.75,-0.36,0.59
0.75,-0.36,0.59
0.74,-0.36,0.59
0.74,-0.36,0.59
0.74,-0.36,0.59
0.74,-0.37,0.6
0.74,-0.37,0.6
0.74,-0.37,0.6
0.73,-0.37,0.6
0.74,-0.37,0.6
0.74,-0.37,0.6
0.75,-0.36,0.59
0.75,-0.36,0.58
0.75,-0.36,0.58
0.75,-0.36,0.58
0.75,-0.36,0.58
0.74,-0.37,0.58
0.74,-0.37,0.59
0.74,-0.37,0.59
0.73,-0.37,0.59
0.74,-0.37,0.59
0.74,-0.37,0.59
0.74,-0.36,0.59
0.74,-0.36,0.59
0.75,-0.36,0.59
0.75,-0.35,0.59
0.75,-0.35,0.59
0.75,-0.35,0.59
0.75,-0.35,0.59
0.75,-0.35,0.59
0.75,-0.35,0.59
0.75,-0.36,0.59
0.74,-0.36,0.59
0.74,-0.36,0.59
0.74,-0.36,0.59
0.75,-0.36,0.59
0.75,-0.36,0.58
0.74,-0.36,0.58
0.75,-0.37,0.58
0.75,-0.37,0.58
0.75,-0.37,0.59
0.75,-0.37,0.59
0.74,-0.37,0.59
0.74,-0.37,0.59
0.73,-0.37,0.59
0.74,-0.37,0.59
0.74,-0.38,0.58
0.74,-0.38,0.58
0.75,-0.38,0.58
0.75,-0.38,0.58
0.75,-0.38,0.58
0.74,-0.38,0.57
0.75,-0.38,0.57
0.75,-0.38,0.57
0.74,-0.39,0.57
0.75,-0.38,0.57
0.75,-0.38,0.57
0.75,-0.39,0.57
0.75,-0.38,0.57
0.75,-0.38,0.57
0.75,-0.38,0.58
0.76,-0.39,0.57
0.75,-0.38,0.57
0.75,-0.38,0.57
0.75,-0.38,0.56
0.76,-0.38,0.56
0.75,-0.38,0.56
0.74,-0.39,0.57
0.74,-0.39,0.58
0.74,-0.38,0.59
0.73,-0.38,0.58
0.71,-0.37,0.53
0.69,-0.37,0.49
0.66,-0.37,0.48
0.64,-0.38,0.49
0.63,-0.42,0.47
0.63,-0.46,0.46
0.68,-0.5,0.49
0.74,-0.54,0.51
0.79,-0.55,0.54
0.83,-0.55,0.56
0.85,-0.54,0.55
0.83,-0.51,0.54
0.79,-0.49,0.52
0.73,-0.5,0.51
0.67,-0.52,0.51
0.63,-0.55,0.52
0.63,-0.59,0.52
0.69,-0.64,0.54
0.77,-0.71,0.56
0.86,-0.79,0.57
0.9,-0.84,0.56
0.81,-0.84,0.52
0.69,-0.82,0.45
0.6,-0.8,0.38
0.56,-0.83,0.36
0.59,-0.89,0.4
0.64,-1.01,0.49
0.67,-0.99,0.47
0.72,-0.9,0.37
0.82,-0.79,0.24
0.94,-0.69,0.14
1.02,-0.64,0.09
1.1,-0.64,0.05
1.2,-0.65,0.02
1.25,-0.7,0.02
1.25,-0.76,0.02
1.2,-0.84,0.03
1.13,-0.94,0.04
1.07,-1,0.02
1.02,-1.02,-0.05
0.99,-1.05,-0.15
0.98,-1.09,-0.25
0.94,-1.14,-0.32
0.9,-1.21,-0.34
0.85,-1.31,-0.33
0.8,-1.4,-0.31
0.67,-1.5,-0.29
0.59,-1.62,-0.23
0.66,-1.64,-0.21
0.64,-1.65,-0.25
0.47,-1.63,-0.24
0.26,-1.61,-0.17
0.13,-1.45,-0.03
0.08,-1.41,0.05
0.03,-1.4,0.11
-0.01,-1.27,0.08
-0.12,-1.13,0.09
-0.13,-1.05,0.08
-0.06,-0.96,0.06
0.04,-0.83,0.06
0.08,-0.72,0.11
0.09,-0.65,0.13
0.1,-0.56,0.14
0.12,-0.47,0.17
0.18,-0.43,0.2
0.26,-0.41,0.21
0.3,-0.4,0.22
0.29,-0.39,0.24
0.26,-0.36,0.25
0.25,-0.34,0.26
0.27,-0.35,0.27
0.28,-0.37,0.29
0.26,-0.38,0.28
0.22,-0.37,0.26
0.18,-0.36,0.23
0.19,-0.36,0.18
0.23,-0.38,0.11
0.26,-0.41,0.03
0.28,-0.44,-0.11
0.32,-0.5,-0.15
0.32,-0.53,-0.18
0.32,-0.57,-0.2
0.33,-0.6,-0.22
0.35,-0.65,-0.22
0.39,-0.72,-0.21
0.42,-0.8,-0.19
0.46,-0.85,-0.15
0.5,-0.89,-0.1
0.55,-0.91,-0.05
0.56,-0.91,-0.01
0.54,-0.9,0.03
0.53,-0.89,0.06
0.52,-0.88,0.08
0.49,-0.87,0.08
0.46,-0.87,0.07
0.43,-0.87,0.07
0.4,-0.87,0.07
0.41,-0.87,0.07
0.43,-0.87,0.07
0.44,-0.87,0.07
0.46,-0.88,0.07
0.48,-0.9,0.07
0.51,-0.92,0.08
0.53,-0.94,0.08
0.54,-0.95,0.06
0.56,-0.96,0.05
0.57,-0.96,0.05
0.58,-0.95,0.06
0.6,-0.94,0.07
0.6,-0.94,0.09
0.6,-0.93,0.1
0.6,-0.93,0.1
0.6,-0.93,0.09
0.61,-0.91,0.07
0.6,-0.9,0.05
0.59,-0.89,0.04
0.58,-0.87,0.03
0.56,-0.86,0.03
0.55,-0.86,0.02
0.55,-0.85,0.01
0.55,-0.84,0.02
0.53,-0.84,0.03
0.5,-0.85,0.01
0.51,-0.85,0
0.51,-0.84,0.01
0.5,-0.85,0
0.48,-0.86,0
0.48,-0.87,0.01
0.51,-0.88,0.02
0.51,-0.89,0.02
0.51,-0.89,0.03
0.52,-0.89,0.03
0.52,-0.88,0.03
0.52,-0.88,0.03
0.52,-0.88,0.03
0.52,-0.88,0.04
0.52,-0.88,0.05
0.53,-0.88,0.05
0.53,-0.87,0.06
0.52,-0.88,0.07
0.52,-0.88,0.07
0.52,-0.88,0.08
0.52,-0.88,0.08
0.51,-0.88,0.08
0.51,-0.89,0.07
