Acc_x,Acc_y,Acc_z
0.49,0.51,0.77
0.48,0.49,0.76
0.46,0.47,0.72
0.45,0.45,0.7
0.44,0.43,0.7
0.45,0.4,0.72
0.47,0.38,0.77
0.46,0.39,0.82
0.42,0.39,0.84
0.37,0.38,0.85
0.34,0.38,0.86
0.3,0.37,0.89
0.29,0.36,0.9
0.28,0.35,0.9
0.28,0.34,0.9
0.27,0.32,0.88
0.25,0.29,0.86
0.23,0.27,0.86
0.24,0.25,0.87
0.27,0.25,0.89
0.28,0.25,0.9
0.27,0.25,0.93
0.26,0.24,0.95
0.26,0.22,0.97
0.27,0.2,0.97
0.27,0.19,0.97
0.26,0.18,0.96
0.24,0.17,0.94
0.24,0.16,0.92
0.26,0.16,0.93
0.27,0.16,0.94
0.25,0.16,0.97
0.23,0.16,0.99
0.22,0.17,0.99
0.22,0.17,0.99
0.21,0.17,0.98
0.2,0.16,0.99
0.18,0.15,0.98
0.16,0.15,0.96
0.16,0.14,0.95
0.16,0.14,0.94
0.17,0.14,0.93
0.17,0.14,0.94
0.2,0.12,0.98
0.24,0.13,1.05
0.2,0.15,1.07
0.16,0.13,1.08
0.18,0.11,1.11
0.19,0.13,1.12
0.19,0.13,1.13
0.22,0.13,1.12
0.23,0.14,1.08
0.21,0.15,1.04
0.18,0.16,1.01
0.15,0.16,0.98
0.15,0.16,0.98
0.14,0.16,0.97
0.13,0.16,0.97
0.11,0.17,0.97
0.08,0.17,0.97
0.07,0.17,0.97
0.06,0.16,0.95
0.11,0.08,0.95
0.18,0.04,0.98
0.22,0.05,1.02
0.2,0.08,1.03
0.17,0.09,1.02
0.15,0.09,0.99
0.14,0.12,0.98
0.16,0.13,0.95
0.21,0.13,0.93
0.24,0.12,0.92
0.24,0.13,0.92
0.23,0.13,0.94
0.21,0.12,0.96
0.2,0.12,0.97
0.2,0.13,0.98
0.2,0.12,0.97
0.21,0.11,0.96
0.25,0.11,0.98
0.29,0.11,0.99
0.31,0.11,1
0.32,0.11,1
0.31,0.12,0.99
0.29,0.12,0.98
0.27,0.11,0.97
0.29,0.1,0.97
0.3,0.09,0.98
0.31,0.07,0.98
0.33,0.07,0.98
0.35,0.07,0.97
0.37,0.08,0.95
0.37,0.08,0.93
0.35,0.09,0.91
0.33,0.09,0.9
0.31,0.1,0.89
0.31,0.11,0.89
0.32,0.12,0.9
0.32,0.13,0.9
0.32,0.15,0.91
0.31,0.16,0.91
0.3,0.18,0.91
0.31,0.19,0.91
0.33,0.19,0.91
0.34,0.2,0.9
0.35,0.21,0.9
0.34,0.22,0.91
0.32,0.22,0.92
0.3,0.22,0.93
0.29,0.22,0.92
0.28,0.21,0.91
0.29,0.21,0.91
0.31,0.22,0.92
0.34,0.22,0.93
0.35,0.23,0.93
0.36,0.24,0.93
0.38,0.24,0.93
0.39,0.23,0.92
0.37,0.22,0.91
0.35,0.21,0.9
0.35,0.21,0.9
0.37,0.21,0.9
0.39,0.21,0.91
0.4,0.2,0.91
0.4,0.2,0.9
0.39,0.2,0.89
0.38,0.21,0.88
0.38,0.21,0.88
0.38,0.22,0.89
0.38,0.24,0.89
0.37,0.23,0.89
0.37,0.23,0.9
0.36,0.24,0.91
0.37,0.25,0.91
0.38,0.25,0.92
0.37,0.25,0.93
0.36,0.26,0.94
0.35,0.26,0.94
0.35,0.27,0.94
0.34,0.26,0.94
0.33,0.26,0.93
0.32,0.26,0.93
0.33,0.26,0.92
0.33,0.26,0.92
0.33,0.26,0.92
0.32,0.26,0.92
0.32,0.25,0.92
0.32,0.25,0.92
0.31,0.23,0.92
0.34,0.22,0.92
0.37,0.21,0.92
0.4,0.21,0.92
0.42,0.2,0.92
0.43,0.2,0.93
0.43,0.2,0.93
0.42,0.21,0.93
0.41,0.21,0.92
0.39,0.21,0.9
0.38,0.22,0.88
0.38,0.22,0.86
0.4,0.22,0.85
0.4,0.23,0.83
0.41,0.22,0.82
0.43,0.22,0.83
0.44,0.22,0.85
0.44,0.23,0.87
0.42,0.24,0.89
0.39,0.24,0.9
0.37,0.25,0.91
0.37,0.26,0.89
0.37,0.26,0.88
0.36,0.27,0.87
0.37,0.27,0.85
0.39,0.26,0.85
0.39,0.27,0.86
0.38,0.28,0.89
0.36,0.29,0.91
0.35,0.29,0.94
0.34,0.3,0.95
0.34,0.31,0.95
0.34,0.3,0.94
0.34,0.3,0.93
0.34,0.29,0.92
0.35,0.29,0.92
0.36,0.28,0.92
0.37,0.27,0.93
0.39,0.26,0.93
0.39,0.26,0.93
0.39,0.26,0.92
0.38,0.26,0.92
0.37,0.27,0.92
0.36,0.27,0.92
0.36,0.28,0.91
0.36,0.28,0.91
0.36,0.28,0.9
0.35,0.27,0.89
0.35,0.27,0.89
0.35,0.27,0.88
0.33,0.27,0.86
0.31,0.26,0.84
0.31,0.26,0.84
0.3,0.25,0.85
0.31,0.24,0.87
0.32,0.24,0.88
0.34,0.23,0.9
0.36,0.22,0.91
0.38,0.21,0.91
0.37,0.21,0.91
0.33,0.21,0.9
0.3,0.2,0.88
0.28,0.2,0.86
0.29,0.2,0.86
0.3,0.19,0.86
0.32,0.17,0.88
0.33,0.17,0.89
0.32,0.17,0.9
0.32,0.16,0.9
0.3,0.16,0.89
0.28,0.16,0.9
0.26,0.16,0.9
0.25,0.16,0.89
0.26,0.16,0.89
0.28,0.15,0.88
0.3,0.15,0.88
0.31,0.15,0.89
0.29,0.14,0.91
0.27,0.14,0.96
0.28,0.15,0.99
0.32,0.15,0.99
0.34,0.16,0.97
0.35,0.18,0.95
0.34,0.19,0.94
0.35,0.2,0.94
0.36,0.19,0.94
0.33,0.2,1.01
0.3,0.24,1.02
0.28,0.26,1.01
0.27,0.26,0.99
0.26,0.26,0.97
0.26,0.26,0.95
0.26,0.26,0.95
0.26,0.25,0.94
0.25,0.25,0.95
0.24,0.24,0.94
0.24,0.23,0.94
0.24,0.22,0.94
0.25,0.23,0.93
0.24,0.23,0.92
0.23,0.22,0.92
0.23,0.21,0.92
0.22,0.21,0.93
0.22,0.2,0.94
0.23,0.19,0.94
0.25,0.19,0.93
0.26,0.19,0.92
0.27,0.18,0.92
0.28,0.18,0.92
0.3,0.18,0.93
0.34,0.18,0.92
0.36,0.19,0.92
0.35,0.2,0.92
0.32,0.21,0.93
0.31,0.21,0.93
0.31,0.21,0.93
0.31,0.21,0.94
0.3,0.21,0.95
0.29,0.2,0.95
0.28,0.2,0.95
0.3,0.21,0.93
0.31,0.21,0.91
0.3,0.21,0.91
0.28,0.22,0.91
0.26,0.21,0.92
0.23,0.21,0.96
0.2,0.21,1.02
0.18,0.19,1.05
0.19,0.18,1.04
0.2,0.19,1.03
0.22,0.21,0.99
0.24,0.2,0.98
0.23,0.2,0.97
0.22,0.2,0.97
0.22,0.2,0.96
0.22,0.19,0.96
0.19,0.18,0.96
0.17,0.18,0.95
0.17,0.17,0.95
0.16,0.16,0.96
0.15,0.15,0.98
0.15,0.15,0.98
0.15,0.14,0.97
0.16,0.13,0.95
0.17,0.11,0.95
0.19,0.09,0.96
0.21,0.09,0.97
0.21,0.08,0.99
0.21,0.09,0.99
0.21,0.09,0.97
0.2,0.1,0.97
0.2,0.11,0.97
0.21,0.12,0.97
0.23,0.12,0.98
0.24,0.13,0.99
0.26,0.14,0.98
0.3,0.15,0.97
0.3,0.16,0.97
0.29,0.17,0.97
0.26,0.19,0.99
0.24,0.2,0.99
0.21,0.2,0.99
0.18,0.19,0.98
0.16,0.19,0.98
0.16,0.19,0.97
0.21,0.19,0.98
0.29,0.21,0.99
0.35,0.23,0.99
0.36,0.25,1
0.35,0.27,1.01
0.32,0.28,1.01
0.29,0.29,0.99
0.28,0.29,0.98
0.3,0.29,0.95
0.3,0.3,0.95
0.3,0.31,0.94
0.32,0.32,0.94
0.33,0.33,0.91
0.35,0.33,0.89
0.36,0.35,0.88
0.36,0.37,0.87
0.37,0.38,0.85
0.4,0.39,0.81
0.42,0.41,0.79
0.45,0.41,0.75
0.46,0.4,0.71
0.46,0.4,0.68
0.5,0.41,0.63
0.53,0.43,0.61
0.55,0.43,0.59
0.55,0.43,0.58
0.57,0.43,0.57
0.6,0.43,0.56
0.64,0.44,0.52
0.67,0.44,0.49
0.68,0.43,0.49
0.69,0.43,0.48
0.71,0.43,0.45
0.71,0.44,0.43
0.71,0.44,0.41
0.75,0.45,0.39
0.78,0.45,0.37
0.79,0.44,0.37
0.78,0.45,0.36
0.78,0.46,0.33
0.81,0.45,0.29
0.82,0.45,0.27
0.84,0.45,0.27
0.85,0.45,0.27
0.85,0.45,0.27
0.88,0.45,0.25
0.88,0.45,0.23
0.87,0.44,0.22
0.87,0.45,0.22
0.88,0.45,0.22
0.89,0.46,0.22
0.92,0.46,0.21
0.94,0.45,0.18
0.98,0.44,0.16
0.98,0.44,0.14
0.98,0.45,0.12
0.99,0.45,0.12
0.99,0.47,0.12
0.99,0.46,0.12
0.99,0.46,0.12
0.99,0.48,0.12
1.01,0.48,0.12
1.03,0.48,0.11
1.01,0.5,0.08
0.99,0.5,0.07
1.01,0.51,0.06
1.01,0.52,0.04
0.97,0.51,0.02
0.94,0.5,0.02
0.96,0.48,0.01
0.97,0.49,0.01
0.96,0.5,0
0.94,0.5,-0.01
0.93,0.51,-0.02
0.92,0.51,-0.02
0.89,0.51,-0.02
0.86,0.51,-0.03
0.85,0.51,-0.04
0.83,0.5,-0.07
0.82,0.52,-0.08
0.79,0.53,-0.08
0.77,0.54,-0.08
0.78,0.55,-0.09
0.8,0.55,-0.1
0.8,0.54,-0.09
0.77,0.54,-0.09
0.74,0.55,-0.09
0.71,0.57,-0.07
0.71,0.58,-0.07
0.7,0.59,-0.09
0.7,0.6,-0.11
0.7,0.6,-0.11
0.7,0.61,-0.11
0.69,0.61,-0.1
0.69,0.62,-0.1
0.68,0.63,-0.1
0.68,0.66,-0.1
0.66,0.66,-0.1
0.66,0.66,-0.09
0.66,0.65,-0.08
0.66,0.65,-0.05
0.67,0.66,-0.04
0.68,0.65,-0.04
0.68,0.64,-0.05
0.67,0.65,-0.05
0.65,0.66,-0.06
0.63,0.67,-0.06
0.61,0.68,-0.07
0.6,0.69,-0.06
0.6,0.7,-0.05
0.6,0.7,-0.04
0.61,0.7,-0.03
0.61,0.7,-0.03
0.61,0.71,-0.04
0.6,0.71,-0.04
0.59,0.71,-0.04
0.58,0.73,-0.05
0.56,0.74,-0.07
0.57,0.73,-0.07
0.59,0.72,-0.05
0.6,0.73,-0.03
0.6,0.73,-0.02
0.6,0.73,-0.02
0.61,0.74,-0.02
0.61,0.74,-0.01
0.62,0.74,-0.02
0.61,0.73,-0.02
0.61,0.74,-0.02
0.6,0.74,-0.03
0.6,0.74,-0.02
0.6,0.74,-0.02
0.59,0.74,-0.01
0.6,0.73,0
0.6,0.73,0
0.59,0.72,-0.01
0.59,0.73,-0.01
0.6,0.73,-0.02
0.61,0.74,-0.03
0.61,0.74,-0.04
0.61,0.73,-0.04
0.6,0.73,-0.03
0.6,0.74,-0.02
0.61,0.75,-0.02
0.61,0.75,-0.03
0.6,0.75,-0.04
0.6,0.76,-0.04
0.6,0.75,-0.04
0.6,0.75,-0.04
0.6,0.75,-0.04
0.61,0.75,-0.03
0.61,0.75,-0.03
0.61,0.74,-0.02
0.62,0.74,-0.02
0.63,0.73,-0.02
0.64,0.73,-0.02
0.65,0.72,-0.02
0.65,0.71,-0.01
0.65,0.7,-0.01
0.65,0.69,0
0.64,0.68,0.01
0.66,0.66,0.03
0.67,0.66,0.04
0.69,0.66,0.05
0.7,0.66,0.06
0.7,0.64,0.06
0.72,0.63,0.06
0.73,0.61,0.05
0.74,0.6,0.05
0.74,0.6,0.07
0.72,0.61,0.1
0.71,0.6,0.11
0.71,0.6,0.12
0.71,0.61,0.12
0.71,0.61,0.11
0.71,0.61,0.1
0.71,0.61,0.1
0.72,0.6,0.1
0.73,0.61,0.1
0.72,0.62,0.1
0.71,0.62,0.1
0.71,0.61,0.1
0.72,0.6,0.11
0.73,0.6,0.12
0.75,0.59,0.13
0.77,0.58,0.13
0.77,0.58,0.14
0.76,0.59,0.14
0.75,0.62,0.14
0.75,0.64,0.14
0.75,0.64,0.14
0.74,0.63,0.14
0.74,0.61,0.14
0.74,0.59,0.16
0.75,0.57,0.17
0.77,0.57,0.19
0.79,0.58,0.21
0.82,0.6,0.23
0.82,0.6,0.24
0.81,0.6,0.24
0.8,0.61,0.25
0.79,0.62,0.26
0.77,0.62,0.27
0.74,0.61,0.29
0.7,0.59,0.32
0.68,0.58,0.36
0.67,0.59,0.38
0.66,0.6,0.4
0.64,0.6,0.43
0.64,0.59,0.46
0.65,0.58,0.48
0.65,0.57,0.51
0.66,0.56,0.53
0.67,0.55,0.54
0.65,0.55,0.56
0.62,0.54,0.58
0.59,0.54,0.61
0.57,0.54,0.62
0.54,0.53,0.65
0.52,0.52,0.67
0.53,0.51,0.67
0.54,0.51,0.67
0.56,0.5,0.67
0.55,0.48,0.69
0.54,0.49,0.72
0.54,0.48,0.73
0.51,0.47,0.75
0.49,0.46,0.75
0.46,0.45,0.74
0.45,0.45,0.73
0.42,0.46,0.73
0.4,0.45,0.73
0.4,0.45,0.74
0.4,0.44,0.76
0.42,0.42,0.78
0.43,0.42,0.78
0.43,0.42,0.79
0.4,0.41,0.83
0.32,0.4,0.85
0.3,0.4,0.84
0.28,0.4,0.84
0.23,0.39,0.83
0.19,0.37,0.84
0.19,0.37,0.85
0.2,0.36,0.88
0.21,0.35,0.89
0.21,0.34,0.89
0.2,0.33,0.89
0.19,0.33,0.9
0.15,0.33,0.91
0.12,0.31,0.93
0.11,0.29,0.95
0.12,0.28,0.96
0.15,0.27,0.96
0.17,0.26,0.96
0.16,0.25,0.96
0.16,0.24,0.98
0.14,0.24,0.99
0.13,0.23,1
0.11,0.22,1
0.1,0.21,1
0.1,0.21,0.99
0.11,0.21,0.99
0.12,0.19,1.01
0.12,0.17,1.04
0.12,0.16,1.04
0.11,0.16,1.04
0.11,0.15,1.02
0.11,0.15,1
0.12,0.15,0.99
0.11,0.15,1
0.08,0.14,1.01
0.08,0.14,1.02
0.08,0.14,1.03
0.08,0.14,1.03
0.09,0.13,1.03
0.11,0.13,1.01
0.11,0.13,1
0.08,0.12,1
0.07,0.11,1.01
0.06,0.11,1.02
0.06,0.1,1.03
0.06,0.11,1.05
0.05,0.13,1.04
0.05,0.12,1.02
0.06,0.1,1.01
0.06,0.1,1.01
0.04,0.09,1.05
0.04,0.1,1.07
0.07,0.1,1.07
0.12,0.09,1.06
0.15,0.09,1.07
0.12,0.13,1.08
0.07,0.15,1.05
0.06,0.14,1.01
0.08,0.12,0.97
0.11,0.12,0.96
0.11,0.12,0.96
0.1,0.11,0.96
0.09,0.11,0.97
0.08,0.11,0.98
0.06,0.11,0.98
0.06,0.11,0.99
0.06,0.1,1.01
0.07,0.09,1.03
0.09,0.08,1.04
0.11,0.1,1.04
0.12,0.12,1.01
0.12,0.11,0.98
0.12,0.11,0.97
0.13,0.11,0.97
0.13,0.11,0.98
0.12,0.11,0.99
0.12,0.11,0.98
0.13,0.11,0.98
0.17,0.12,0.99
0.19,0.13,1
0.18,0.12,1.01
0.19,0.12,1.02
0.21,0.11,1.01
0.22,0.1,0.99
0.23,0.09,0.99
0.24,0.09,0.98
0.28,0.09,0.99
0.31,0.08,1
0.34,0.08,1.02
0.38,0.07,1.04
0.4,0.05,1.05
0.4,0.05,1.04
0.38,0.06,1.01
0.35,0.07,0.97
0.32,0.09,0.94
0.3,0.11,0.93
0.3,0.12,0.92
0.31,0.14,0.91
0.31,0.16,0.91
0.31,0.17,0.9
0.32,0.18,0.9
0.32,0.19,0.88
0.3,0.2,0.87
0.29,0.21,0.86
0.27,0.21,0.86
0.26,0.21,0.85
0.26,0.22,0.85
0.26,0.22,0.86
0.26,0.23,0.86
0.28,0.23,0.87
0.3,0.24,0.88
0.32,0.24,0.89
0.33,0.25,0.89
0.33,0.24,0.89
0.33,0.24,0.89
0.33,0.25,0.89
0.33,0.25,0.88
0.33,0.25,0.88
0.33,0.25,0.89
0.32,0.26,0.91
0.31,0.26,0.95
0.32,0.26,0.94
0.32,0.26,0.92
0.3,0.26,0.9
0.29,0.26,0.89
0.28,0.26,0.9
0.29,0.25,0.91
0.3,0.24,0.92
0.28,0.24,0.93
0.25,0.24,0.95
0.23,0.24,0.95
0.22,0.23,0.96
0.22,0.22,0.97
0.21,0.22,0.97
0.22,0.22,0.97
0.24,0.22,0.97
0.25,0.21,0.98
0.26,0.21,0.98
0.28,0.2,0.99
0.29,0.19,0.99
0.3,0.2,0.99
0.31,0.19,0.98
0.32,0.19,0.97
0.32,0.18,0.96
0.31,0.19,0.96
0.31,0.19,0.97
0.31,0.19,0.97
0.32,0.19,0.96
0.33,0.19,0.96
0.34,0.19,0.95
0.35,0.19,0.95
0.35,0.2,0.93
0.34,0.2,0.92
0.33,0.2,0.92
0.33,0.2,0.93
0.32,0.21,0.92
0.32,0.21,0.92
0.32,0.22,0.91
0.32,0.22,0.91
0.32,0.22,0.91
0.31,0.22,0.92
0.31,0.22,0.93
0.32,0.22,0.92
0.33,0.23,0.93
0.33,0.23,0.93
0.32,0.23,0.93
0.32,0.24,0.94
0.31,0.24,0.95
0.31,0.25,0.95
0.31,0.25,0.95
0.3,0.25,0.94
0.3,0.25,0.94
0.29,0.25,0.94
0.29,0.25,0.94
0.28,0.26,0.94
0.28,0.26,0.93
0.27,0.26,0.91
0.27,0.26,0.9
0.28,0.26,0.91
0.29,0.25,0.92
0.3,0.25,0.92
0.3,0.25,0.91
0.3,0.24,0.91
0.3,0.24,0.91
0.28,0.25,0.91
0.26,0.25,0.91
0.25,0.25,0.9
0.26,0.24,0.9
0.27,0.24,0.9
0.29,0.23,0.89
0.31,0.23,0.88
0.33,0.22,0.88
0.34,0.21,0.89
0.32,0.21,0.89
0.31,0.21,0.9
0.3,0.21,0.9
0.3,0.21,0.9
0.3,0.21,0.9
0.32,0.2,0.9
0.34,0.19,0.91
0.34,0.18,0.92
0.34,0.18,0.92
0.34,0.18,0.91
0.32,0.18,0.9
0.3,0.18,0.9
0.28,0.18,0.9
0.28,0.17,0.9
0.28,0.17,0.9
0.29,0.15,0.91
0.29,0.14,0.92
0.29,0.13,0.92
0.3,0.12,0.92
0.32,0.13,0.92
0.35,0.14,0.92
0.37,0.14,0.92
0.38,0.13,0.92
0.38,0.14,0.92
0.37,0.16,0.96
0.35,0.15,0.99
0.36,0.15,0.97
0.39,0.17,0.92
0.38,0.2,0.87
0.3,0.21,0.85
0.18,0.21,0.92
0.2,0.2,0.98
0.32,0.17,0.96
0.34,0.2,0.94
0.34,0.22,0.98
0.37,0.2,1.04
0.36,0.21,1.07
0.37,0.22,1.04
0.37,0.21,0.99
0.35,0.22,0.96
0.3,0.22,0.96
0.27,0.22,0.97
0.27,0.21,0.97
0.28,0.21,0.97
0.27,0.21,0.96
0.24,0.22,0.96
0.21,0.23,0.96
0.19,0.22,0.96
0.18,0.21,0.96
0.21,0.19,0.95
0.26,0.19,0.93
0.27,0.2,0.92
0.24,0.2,0.94
0.22,0.19,0.97
0.18,0.17,0.98
0.14,0.17,0.98
0.12,0.17,0.96
0.11,0.16,0.96
0.07,0.15,0.97
0.04,0.14,0.97
0.04,0.13,0.98
0.06,0.13,0.98
0.09,0.13,0.97
0.1,0.13,0.96
0.11,0.12,0.96
0.11,0.13,0.98
0.11,0.13,0.99
0.12,0.13,1
0.13,0.13,1
0.13,0.12,1
0.13,0.11,1.01
0.14,0.12,1.01
0.15,0.12,1.02
0.17,0.11,1.03
0.18,0.11,1.03
0.21,0.11,1.02
0.22,0.11,1.02
0.22,0.12,1.02
0.23,0.14,1
0.23,0.15,1
0.23,0.16,0.99
0.24,0.17,0.98
0.26,0.18,0.96
0.26,0.19,0.94
0.25,0.2,0.94
0.24,0.22,0.95
0.21,0.22,0.97
0.19,0.22,0.99
0.19,0.23,1
0.2,0.24,0.99
0.23,0.24,0.99
0.27,0.24,0.98
0.3,0.25,0.96
0.3,0.26,0.96
0.28,0.26,0.96
0.25,0.26,0.96
0.23,0.26,0.97
0.22,0.27,0.97
0.22,0.28,0.97
0.24,0.28,0.98
0.26,0.29,0.97
0.29,0.29,0.93
0.32,0.3,0.91
0.33,0.3,0.9
0.34,0.3,0.87
0.38,0.32,0.84
0.42,0.32,0.82
0.46,0.33,0.79
0.48,0.34,0.77
0.5,0.35,0.74
0.52,0.36,0.73
0.52,0.36,0.72
0.53,0.38,0.69
0.58,0.39,0.67
0.6,0.4,0.64
0.6,0.41,0.62
0.62,0.41,0.6
0.64,0.41,0.58
0.66,0.41,0.56
0.68,0.41,0.54
0.69,0.43,0.52
0.71,0.43,0.51
0.73,0.43,0.48
0.77,0.43,0.44
0.79,0.44,0.43
0.8,0.45,0.42
0.78,0.46,0.43
0.79,0.46,0.43
0.82,0.46,0.42
0.81,0.45,0.41
0.81,0.47,0.4
0.85,0.47,0.38
0.84,0.46,0.35
0.84,0.47,0.33
0.86,0.48,0.32
0.85,0.49,0.33
0.87,0.5,0.32
0.88,0.49,0.32
0.86,0.49,0.3
0.85,0.5,0.28
0.88,0.51,0.26
0.9,0.52,0.25
0.88,0.51,0.25
0.91,0.52,0.24
0.95,0.51,0.21
0.95,0.53,0.2
0.88,0.54,0.19
0.9,0.52,0.18
0.92,0.5,0.16
0.9,0.52,0.15
0.91,0.52,0.15
0.84,0.53,0.14
0.88,0.54,0.11
0.92,0.54,0.1
0.9,0.55,0.09
0.85,0.57,0.08
0.87,0.55,0.05
0.91,0.52,0.04
0.87,0.54,0.06
0.86,0.53,0.05
0.87,0.52,0.04
0.86,0.54,0.04
0.85,0.55,0.04
0.86,0.56,0.02
0.87,0.56,-0.01
0.87,0.57,-0.01
0.86,0.56,0
0.86,0.56,0.02
0.83,0.56,0.03
0.8,0.55,0.04
0.78,0.56,0.05
0.78,0.56,0.05
0.8,0.55,0.04
0.8,0.55,0.04
0.77,0.57,0.03
0.76,0.58,0.02
0.74,0.58,0.03
0.72,0.58,0.04
0.73,0.58,0.04
0.72,0.58,0.04
0.7,0.58,0.04
0.69,0.59,0.04
0.7,0.59,0.02
0.69,0.59,0.02
0.67,0.6,0.01
0.68,0.6,0
0.7,0.61,0
0.69,0.62,-0.01
0.68,0.62,-0.01
0.66,0.62,-0.01
0.66,0.63,-0.01
0.63,0.63,0
0.64,0.64,0.02
0.64,0.64,0.04
0.64,0.64,0.04
0.63,0.65,0.03
0.62,0.66,0.03
0.61,0.67,0.03
0.6,0.67,0.03
0.59,0.67,0.04
0.58,0.68,0.05
0.58,0.68,0.06
0.58,0.69,0.06
0.59,0.69,0.05
0.59,0.7,0.04
0.59,0.7,0.05
0.59,0.71,0.05
0.61,0.71,0.06
0.61,0.71,0.06
0.6,0.72,0.07
0.6,0.73,0.06
0.59,0.74,0.05
0.59,0.75,0.04
0.6,0.75,0.03
0.61,0.74,0.03
0.63,0.74,0.04
0.63,0.74,0.05
0.62,0.74,0.05
0.62,0.75,0.05
0.62,0.76,0.04
0.62,0.77,0.03
0.61,0.77,0.03
0.61,0.78,0.03
0.62,0.77,0.03
0.62,0.77,0.04
0.62,0.77,0.03
0.62,0.77,0.03
0.61,0.78,0.04
0.62,0.79,0.03
0.63,0.79,0.02
0.62,0.78,0.02
0.61,0.78,0.05
0.62,0.77,0.05
0.62,0.77,0.04
0.61,0.77,0.03
0.61,0.77,0.03
0.6,0.77,0.03
0.61,0.77,0.03
0.61,0.76,0.04
0.61,0.75,0.05
0.61,0.75,0.06
0.61,0.75,0.06
0.61,0.75,0.05
0.6,0.75,0.05
0.6,0.75,0.04
0.6,0.75,0.04
0.61,0.75,0.04
0.6,0.75,0.04
0.6,0.75,0.04
0.59,0.75,0.05
0.59,0.75,0.05
0.6,0.75,0.06
0.6,0.74,0.06
0.6,0.74,0.07
0.61,0.74,0.07
0.62,0.74,0.07
0.62,0.74,0.07
0.62,0.73,0.06
0.62,0.73,0.06
0.63,0.73,0.06
0.63,0.72,0.07
0.63,0.71,0.08
0.63,0.7,0.1
0.62,0.69,0.11
0.61,0.71,0.12
0.62,0.72,0.13
0.65,0.72,0.12
0.67,0.71,0.11
0.68,0.7,0.11
0.67,0.68,0.11
0.67,0.66,0.11
0.69,0.64,0.12
0.7,0.61,0.12
0.69,0.6,0.12
0.69,0.6,0.15
0.66,0.61,0.16
0.58,0.61,0.18
0.58,0.59,0.19
0.58,0.57,0.18
0.61,0.54,0.18
0.64,0.52,0.19
0.65,0.52,0.21
0.64,0.55,0.22
0.64,0.58,0.21
0.65,0.6,0.18
0.68,0.61,0.15
0.7,0.6,0.15
0.73,0.59,0.16
0.73,0.56,0.19
0.69,0.54,0.23
0.65,0.53,0.27
0.66,0.54,0.31
0.66,0.54,0.32
0.68,0.52,0.32
0.72,0.5,0.31
0.75,0.49,0.3
0.79,0.49,0.29
0.81,0.49,0.28
0.82,0.5,0.29
0.83,0.52,0.29
0.84,0.52,0.3
0.85,0.51,0.32
0.85,0.5,0.34
0.86,0.48,0.35
0.84,0.48,0.37
0.83,0.5,0.37
0.82,0.54,0.37
0.81,0.57,0.37
0.81,0.57,0.38
0.81,0.57,0.39
0.81,0.56,0.4
0.8,0.54,0.42
0.79,0.52,0.45
0.79,0.5,0.48
0.78,0.49,0.51
0.77,0.5,0.54
0.76,0.5,0.57
0.75,0.5,0.6
0.76,0.51,0.62
0.72,0.52,0.64
0.73,0.51,0.63
0.71,0.51,0.62
0.7,0.49,0.63
0.7,0.49,0.65
0.67,0.48,0.68
0.64,0.47,0.71
0.62,0.46,0.74
0.6,0.45,0.75
0.58,0.46,0.75
0.57,0.46,0.75
0.55,0.45,0.74
0.55,0.45,0.74
0.52,0.44,0.75
0.49,0.43,0.76
0.46,0.42,0.77
0.43,0.41,0.78
0.43,0.41,0.79
0.43,0.4,0.81
0.43,0.39,0.82
0.42,0.41,0.83
0.41,0.41,0.82
0.4,0.4,0.83
0.38,0.4,0.84
0.35,0.42,0.85
0.33,0.42,0.84
0.31,0.42,0.82
0.28,0.43,0.81
0.27,0.43,0.81
0.26,0.42,0.8
0.24,0.41,0.8
0.24,0.4,0.8
0.26,0.39,0.81
0.27,0.39,0.82
0.29,0.39,0.85
0.29,0.38,0.86
0.28,0.37,0.87
0.25,0.37,0.88
0.23,0.36,0.86
0.22,0.35,0.86
0.22,0.34,0.86
0.23,0.34,0.86
0.25,0.33,0.86
0.27,0.29,0.86
0.29,0.28,0.86
0.3,0.27,0.86
0.29,0.27,0.88
0.27,0.27,0.9
0.26,0.26,0.92
0.26,0.25,0.93
0.26,0.23,0.93
0.28,0.22,0.92
0.31,0.2,0.92
0.31,0.2,0.94
0.28,0.2,0.95
0.27,0.2,0.97
0.26,0.2,0.97
0.24,0.2,0.96
0.24,0.2,0.95
0.27,0.19,0.94
0.28,0.18,0.96
0.26,0.18,0.98
0.23,0.17,1
0.2,0.17,1
0.18,0.16,0.99
0.17,0.15,0.98
0.19,0.15,0.96
0.21,0.15,0.94
0.22,0.15,0.95
0.22,0.15,0.97
0.22,0.15,0.99
0.2,0.14,1
0.19,0.13,1.01
0.18,0.12,1
0.2,0.1,1.01
0.28,0.09,1.04
0.29,0.13,1.1
0.22,0.14,1.14
0.17,0.14,1.17
0.18,0.14,1.15
0.22,0.14,1.1
0.22,0.15,1.05
0.19,0.16,1.01
0.17,0.15,0.98
0.17,0.14,0.96
0.16,0.14,0.95
0.16,0.14,0.95
0.15,0.14,0.96
0.13,0.13,0.97
0.13,0.12,0.99
0.16,0.1,1
0.18,0.08,1.02
0.17,0.08,1.04
0.17,0.11,1.02
0.21,0.11,0.95
0.25,0.1,0.93
0.27,0.1,0.94
0.28,0.1,0.95
0.29,0.11,0.96
0.29,0.11,0.97
0.29,0.12,0.97
0.28,0.13,0.97
0.28,0.13,0.97
0.28,0.13,0.97
0.29,0.13,0.97
0.3,0.13,0.96
0.31,0.13,0.96
0.31,0.12,0.96
0.29,0.12,0.95
0.28,0.11,0.96
0.28,0.11,0.96
0.27,0.11,0.95
0.27,0.11,0.95
0.26,0.1,0.96
0.26,0.1,0.96
0.27,0.1,0.96
0.26,0.1,0.96
0.26,0.1,0.96
0.27,0.1,0.97
0.27,0.1,0.97
0.28,0.1,0.97
0.28,0.1,0.96
0.29,0.1,0.96
0.29,0.1,0.95
0.29,0.11,0.95
0.29,0.11,0.94
0.28,0.12,0.95
0.28,0.12,0.95
0.28,0.13,0.96
0.27,0.13,0.97
0.27,0.12,0.97
0.28,0.12,0.96
0.28,0.12,0.95
0.29,0.13,0.95
0.3,0.12,0.94
0.3,0.12,0.94
0.29,0.12,0.94
0.29,0.12,0.95
0.28,0.12,0.95
0.27,0.11,0.95
0.27,0.11,0.95
0.27,0.11,0.96
0.27,0.11,0.96
0.27,0.11,0.96
0.27,0.11,0.96
0.28,0.11,0.96
0.28,0.11,0.95
0.28,0.12,0.95
0.28,0.12,0.95
0.28,0.12,0.95
0.28,0.12,0.96
0.28,0.13,0.96
0.28,0.12,0.95
0.28,0.12,0.96
0.28,0.12,0.96
0.28,0.12,0.96
0.28,0.12,0.96
0.28,0.12,0.96
0.27,0.12,0.96
0.27,0.12,0.96
0.27,0.12,0.95
0.27,0.11,0.95
0.28,0.11,0.95
0.28,0.12,0.95
0.28,0.12,0.95
0.27,0.12,0.95
0.27,0.12,0.96
0.27,0.12,0.96
0.28,0.12,0.95
0.28,0.12,0.95
0.29,0.12,0.95
0.29,0.12,0.95
0.28,0.12,0.95
0.29,0.12,0.96
0.28,0.12,0.96
0.28,0.12,0.96
0.28,0.13,0.96
0.28,0.13,0.95
0.28,0.12,0.95
0.28,0.12,0.95
0.28,0.12,0.95
0.28,0.12,0.95
0.28,0.12,0.96
0.28,0.13,0.96
0.28,0.12,0.96
0.28,0.12,0.95
0.28,0.13,0.96
0.27,0.13,0.96
0.27,0.13,0.96
0.27,0.13,0.96
0.28,0.13,0.97
0.28,0.13,0.97
0.29,0.13,0.97
0.28,0.13,0.96
0.28,0.13,0.96
0.27,0.12,0.95
0.26,0.12,0.95
0.26,0.12,0.96
0.26,0.12,0.97
0.26,0.12,0.97
0.27,0.12,0.96
0.28,0.12,0.96
0.28,0.12,0.95
0.28,0.12,0.95
0.28,0.11,0.94
0.28,0.11,0.94
0.27,0.12,0.94
0.27,0.12,0.94
0.27,0.12,0.94
0.27,0.12,0.95
0.27,0.12,0.95
0.28,0.12,0.95
0.28,0.12,0.95
0.28,0.12,0.95
0.28,0.12,0.95
0.27,0.12,0.95
0.27,0.12,0.96
0.27,0.13,0.96
0.27,0.13,0.96
0.26,0.13,0.96
0.26,0.13,0.96
0.27,0.13,0.96
0.27,0.13,0.95
0.27,0.13,0.95
0.27,0.13,0.96
0.27,0.13,0.96
0.27,0.13,0.95
0.27,0.12,0.95
0.27,0.12,0.95
0.28,0.13,0.95
0.28,0.12,0.95
0.28,0.12,0.96
0.28,0.12,0.95
0.27,0.12,0.95
0.27,0.12,0.95
0.27,0.12,0.95
0.27,0.12,0.94
0.28,0.12,0.94
0.27,0.12,0.95
0.27,0.13,0.96
0.27,0.13,0.96
0.27,0.13,0.96
0.27,0.13,0.96
0.27,0.13,0.95
0.27,0.13,0.95
0.28,0.13,0.95
0.28,0.13,0.95
0.28,0.13,0.95
0.28,0.13,0.96
0.27,0.13,0.96
0.27,0.13,0.97
0.27,0.13,0.96
0.26,0.13,0.96
0.27,0.12,0.96
0.27,0.13,0.96
0.28,0.13,0.96
0.28,0.13,0.95
0.28,0.13,0.95
0.28,0.13,0.95
0.28,0.13,0.97
0.27,0.13,0.98
0.28,0.13,0.99
0.28,0.13,0.98
0.28,0.13,0.97
0.28,0.14,0.97
0.28,0.14,0.96
0.27,0.13,0.96
0.27,0.13,0.97
0.29,0.13,0.98
0.3,0.12,0.98
0.31,0.13,0.98
0.31,0.14,0.98
0.31,0.14,0.99
0.31,0.14,0.99
0.31,0.14,0.98
0.31,0.15,0.97
0.3,0.15,0.97
0.29,0.15,0.98
0.27,0.16,0.99
0.24,0.17,0.97
0.21,0.17,0.97
0.19,0.17,0.96
0.18,0.16,0.96
0.18,0.15,0.95
0.17,0.13,0.93
0.17,0.12,0.93
0.17,0.11,0.94
0.18,0.11,0.94
0.19,0.11,0.94
0.21,0.1,0.94
0.23,0.1,0.94
0.24,0.1,0.95
0.24,0.09,0.94
0.24,0.09,0.94
0.24,0.09,0.95
0.25,0.09,0.96
0.25,0.1,0.95
0.25,0.1,0.94
0.26,0.1,0.93
0.28,0.11,0.93
0.29,0.11,0.93
0.29,0.11,0.94
0.28,0.12,0.96
0.26,0.12,0.98
0.24,0.14,0.97
0.23,0.14,0.97
0.23,0.15,0.97
0.24,0.15,0.97
0.26,0.16,0.97
0.26,0.16,0.97
0.26,0.16,0.98
0.28,0.17,0.99
0.27,0.17,1
0.26,0.18,1
0.25,0.19,1
0.26,0.19,0.99
0.26,0.2,0.99
0.27,0.2,0.98
0.27,0.2,0.97
0.28,0.2,0.97
0.29,0.2,0.97
0.3,0.21,0.96
0.33,0.21,0.95
0.34,0.22,0.94
0.34,0.22,0.93
0.32,0.22,0.93
0.31,0.22,0.94
0.32,0.22,0.93
0.33,0.23,0.92
0.36,0.23,0.91
0.38,0.24,0.9
0.38,0.24,0.89
0.37,0.23,0.87
0.38,0.23,0.86
0.4,0.23,0.85
0.43,0.24,0.86
0.43,0.25,0.88
0.41,0.26,0.89
0.38,0.26,0.91
0.35,0.26,0.91
0.34,0.27,0.93
0.34,0.28,0.93
0.34,0.28,0.91
0.35,0.28,0.89
0.38,0.29,0.87
0.42,0.29,0.86
0.44,0.3,0.85
0.46,0.32,0.84
0.51,0.33,0.83
0.52,0.34,0.82
0.53,0.35,0.81
0.53,0.37,0.79
0.54,0.39,0.76
0.54,0.39,0.74
0.53,0.39,0.73
0.56,0.4,0.71
0.59,0.4,0.69
0.6,0.42,0.68
0.63,0.44,0.65
0.66,0.44,0.61
0.67,0.45,0.57
0.68,0.46,0.56
0.69,0.49,0.56
0.72,0.49,0.54
0.76,0.49,0.52
0.76,0.51,0.52
0.76,0.5,0.49
0.77,0.49,0.46
0.77,0.5,0.43
0.73,0.5,0.4
0.78,0.5,0.36
0.9,0.51,0.34
0.9,0.51,0.33
0.88,0.52,0.32
0.88,0.53,0.31
0.87,0.52,0.29
0.87,0.52,0.27
0.86,0.52,0.27
0.84,0.53,0.28
0.86,0.53,0.25
0.89,0.54,0.21
0.88,0.53,0.16
0.9,0.53,0.12
0.93,0.54,0.12
0.94,0.54,0.13
0.94,0.54,0.14
0.93,0.55,0.14
0.92,0.56,0.13
0.86,0.56,0.1
0.86,0.56,0.09
0.9,0.56,0.07
0.89,0.55,0.08
0.88,0.56,0.08
0.87,0.57,0.1
0.84,0.58,0.11
0.81,0.58,0.1
0.78,0.58,0.09
0.74,0.61,0.09
0.78,0.6,0.07
0.8,0.6,0.06
0.75,0.62,0.05
0.75,0.63,0.04
0.75,0.64,0.04
0.74,0.64,0.05
0.72,0.65,0.05
0.71,0.65,0.05
0.7,0.66,0.05
0.7,0.68,0.06
0.61,0.7,0.06
0.62,0.67,0.01
0.69,0.66,0.01
0.64,0.7,0.03
0.63,0.7,0.03
0.65,0.69,0.01
0.66,0.7,0
0.67,0.7,0
0.68,0.71,0
0.66,0.72,0.02
0.64,0.72,0.05
0.63,0.73,0.06
0.6,0.74,0.04
0.58,0.74,0.04
0.58,0.75,0.03
0.56,0.76,0.02
0.52,0.78,0.02
0.54,0.77,0.03
0.55,0.77,0.04
0.54,0.77,0.06
0.55,0.76,0.07
0.53,0.76,0.07
0.52,0.76,0.06
0.51,0.76,0.05
0.51,0.76,0.05
0.49,0.76,0.05
0.48,0.75,0.06
0.46,0.76,0.06
0.45,0.76,0.07
0.46,0.76,0.07
0.47,0.76,0.07
0.47,0.75,0.08
0.46,0.75,0.1
0.46,0.76,0.11
0.45,0.76,0.11
0.45,0.77,0.11
0.44,0.78,0.11
0.44,0.79,0.1
0.46,0.79,0.09
0.46,0.79,0.09
0.45,0.79,0.09
0.45,0.79,0.1
0.45,0.79,0.1
0.45,0.79,0.11
0.46,0.8,0.11
0.46,0.8,0.11
0.47,0.79,0.11
0.46,0.79,0.12
0.45,0.79,0.12
0.45,0.79,0.11
0.46,0.79,0.11
0.46,0.8,0.11
0.47,0.81,0.11
0.48,0.82,0.11
0.49,0.82,0.12
0.49,0.83,0.12
0.49,0.83,0.12
0.5,0.83,0.11
0.51,0.83,0.11
0.51,0.84,0.11
0.51,0.84,0.11
0.51,0.85,0.11
0.5,0.85,0.11
0.5,0.85,0.11
0.5,0.86,0.12
0.51,0.85,0.12
0.51,0.85,0.1
0.51,0.85,0.09
0.52,0.85,0.08
0.53,0.84,0.09
0.52,0.84,0.1
0.51,0.83,0.11
0.5,0.83,0.11
0.5,0.82,0.11
0.5,0.82,0.1
0.49,0.81,0.09
0.49,0.81,0.08
0.51,0.81,0.07
0.51,0.81,0.07
0.5,0.81,0.06
0.5,0.81,0.07
0.51,0.81,0.06
0.5,0.81,0.07
0.49,0.81,0.07
0.49,0.81,0.07
0.49,0.82,0.06
0.5,0.81,0.05
0.51,0.81,0.04
0.52,0.81,0.02
0.51,0.82,0.03
0.5,0.82,0.03
0.5,0.82,0.03
0.5,0.82,0.03
0.51,0.83,0.03
0.52,0.82,0.03
0.52,0.82,0.03
0.53,0.82,0.03
0.54,0.81,0.02
0.55,0.82,0.01
0.55,0.83,0
0.54,0.83,-0.01
0.54,0.83,-0.01
0.54,0.83,-0.02
0.54,0.82,-0.03
0.55,0.82,-0.03
0.55,0.83,-0.03
0.55,0.83,-0.03
0.55,0.83,-0.03
0.56,0.82,-0.04
0.56,0.82,-0.04
0.56,0.82,-0.03
0.57,0.82,-0.03
0.57,0.82,-0.02
0.56,0.82,-0.03
0.56,0.82,-0.04
0.55,0.82,-0.04
0.54,0.82,-0.04
0.53,0.82,-0.04
0.54,0.82,-0.04
0.55,0.82,-0.04
0.56,0.81,-0.04
0.57,0.8,-0.04
0.56,0.8,-0.03
0.55,0.8,-0.03
0.53,0.81,-0.03
0.53,0.81,-0.03
0.54,0.81,-0.04
0.53,0.81,-0.05
0.53,0.81,-0.05
0.54,0.8,-0.05
0.55,0.8,-0.04
0.56,0.79,-0.03
0.57,0.79,-0.02
0.57,0.8,-0.01
0.57,0.8,-0.02
0.56,0.8,-0.02
0.55,0.79,-0.03
0.54,0.79,-0.02
0.53,0.78,-0.01
0.54,0.77,-0.01
0.55,0.77,-0.01
0.56,0.77,-0.01
0.57,0.78,-0.02
0.57,0.78,-0.02
0.57,0.79,-0.02
0.57,0.79,-0.02
0.56,0.79,-0.01
0.55,0.79,-0.01
0.55,0.78,-0.01
0.55,0.77,-0.01
0.56,0.76,0
0.57,0.75,0
0.58,0.75,0
0.6,0.74,-0.01
0.62,0.74,-0.01
0.62,0.73,-0.01
0.63,0.69,-0.01
0.66,0.67,0
0.67,0.65,0.01
0.68,0.62,0.01
0.69,0.6,0.03
0.69,0.61,0.04
0.69,0.63,0.05
0.67,0.64,0.05
0.65,0.64,0.04
0.64,0.64,0.02
0.65,0.64,0.03
0.65,0.64,0.03
0.66,0.64,0.03
0.69,0.65,0.04
0.72,0.66,0.04
0.75,0.69,0.05
0.75,0.72,0.06
0.72,0.74,0.07
0.66,0.75,0.07
0.63,0.75,0.08
0.63,0.75,0.09
0.65,0.75,0.09
0.68,0.75,0.09
0.73,0.74,0.09
0.78,0.73,0.07
0.83,0.72,0.07
0.85,0.7,0.07
0.84,0.7,0.06
0.82,0.7,0.07
0.8,0.7,0.09
0.75,0.69,0.1
0.7,0.67,0.12
0.66,0.66,0.15
0.62,0.65,0.18
0.6,0.64,0.2
0.56,0.65,0.22
0.53,0.66,0.25
0.49,0.66,0.27
0.45,0.65,0.29
0.43,0.63,0.32
0.44,0.61,0.33
0.46,0.6,0.35
0.46,0.6,0.36
0.47,0.61,0.41
0.48,0.61,0.41
0.48,0.61,0.42
0.49,0.61,0.43
0.5,0.6,0.45
0.5,0.59,0.46
0.51,0.58,0.47
0.51,0.59,0.48
0.53,0.6,0.47
0.55,0.6,0.47
0.56,0.61,0.48
0.56,0.61,0.49
0.51,0.61,0.51
0.52,0.6,0.54
0.54,0.6,0.55
0.57,0.62,0.56
0.59,0.63,0.57
0.6,0.63,0.57
0.63,0.63,0.57
0.63,0.61,0.58
0.61,0.6,0.61
0.57,0.58,0.67
0.54,0.57,0.71
0.54,0.59,0.75
0.45,0.55,0.8
0.43,0.54,0.8
0.55,0.57,0.77
0.58,0.55,0.74
0.56,0.54,0.73
0.52,0.53,0.74
0.52,0.53,0.74
0.53,0.53,0.76
0.52,0.53,0.79
0.46,0.53,0.82
0.4,0.52,0.84
0.36,0.52,0.86
0.29,0.5,0.86
0.26,0.47,0.85
0.26,0.45,0.85
0.27,0.44,0.85
0.27,0.44,0.86
0.25,0.44,0.88
0.24,0.41,0.9
0.23,0.4,0.92
0.2,0.38,0.91
0.2,0.36,0.92
0.21,0.34,0.95
0.23,0.33,0.95
0.25,0.33,0.95
0.26,0.33,0.95
0.26,0.32,0.95
0.25,0.31,0.95
0.23,0.31,0.96
0.21,0.31,0.97
0.2,0.31,0.96
0.2,0.31,0.96
0.19,0.31,0.95
0.17,0.3,0.95
0.15,0.29,0.94
0.15,0.29,0.94
0.16,0.28,0.93
0.18,0.28,0.92
0.19,0.27,0.92
0.21,0.27,0.93
0.22,0.26,0.94
0.2,0.25,0.95
0.18,0.23,0.96
0.16,0.22,0.95
0.15,0.21,0.95
0.16,0.2,0.94
0.19,0.19,0.94
0.25,0.19,0.97
0.3,0.21,1.01
0.25,0.2,1.04
0.18,0.17,1.11
0.17,0.19,1.2
0.22,0.2,1.21
0.28,0.21,1.14
0.32,0.22,1.06
0.29,0.23,0.99
0.26,0.22,0.95
0.22,0.21,0.95
0.17,0.22,0.96
0.13,0.23,0.96
0.11,0.22,0.95
0.12,0.21,0.95
0.16,0.19,0.95
0.24,0.16,0.95
0.28,0.15,1.01
0.23,0.17,1.03
0.23,0.18,0.97
0.21,0.19,0.94
0.2,0.2,0.93
0.21,0.19,0.92
0.23,0.19,0.92
0.23,0.18,0.93
0.23,0.17,0.94
0.24,0.17,0.95
0.25,0.18,0.95
0.25,0.19,0.95
0.24,0.19,0.96
0.24,0.19,0.96
0.25,0.2,0.95
0.26,0.19,0.94
0.27,0.19,0.94
0.26,0.2,0.94
0.27,0.2,0.95
0.27,0.2,0.96
0.27,0.2,0.97
0.27,0.19,0.96
0.27,0.19,0.96
0.27,0.19,0.95
0.27,0.2,0.95
0.27,0.2,0.95
0.27,0.19,0.94
0.26,0.19,0.95
0.25,0.19,0.96
0.25,0.2,0.96
0.26,0.19,0.97
0.27,0.18,0.97
0.28,0.17,0.96
0.28,0.17,0.96
0.28,0.17,0.95
0.27,0.17,0.95
0.27,0.17,0.94
0.27,0.17,0.95
0.26,0.17,0.96
0.26,0.17,0.96
0.27,0.18,0.95
0.27,0.17,0.95
0.27,0.18,0.95
0.27,0.18,0.94
0.28,0.18,0.94
0.28,0.18,0.95
0.27,0.18,0.95
0.27,0.18,0.95
0.26,0.18,0.95
0.27,0.18,0.95
0.27,0.19,0.95
0.27,0.19,0.96
0.27,0.19,0.96
0.27,0.19,0.95
0.27,0.19,0.95
0.27,0.18,0.95
0.27,0.18,0.94
0.27,0.19,0.94
0.27,0.18,0.95
0.27,0.18,0.95
0.28,0.18,0.95
0.28,0.18,0.97
0.28,0.18,0.97
0.29,0.18,0.97
0.29,0.19,0.96
0.28,0.2,0.95
0.27,0.2,0.94
0.27,0.2,0.94
0.26,0.2,0.94
0.26,0.19,0.94
0.27,0.19,0.93
0.27,0.19,0.93
0.27,0.19,0.93
0.27,0.17,0.94
0.27,0.17,0.96
0.27,0.17,0.96
0.27,0.17,0.96
0.27,0.17,0.95
0.27,0.17,0.94
0.27,0.18,0.94
0.26,0.18,0.94
0.26,0.18,0.94
0.26,0.19,0.94
0.25,0.19,0.95
0.25,0.19,0.95
0.25,0.19,0.95
0.25,0.19,0.95
0.24,0.19,0.94
0.24,0.19,0.94
0.24,0.19,0.95
0.24,0.19,0.95
0.24,0.2,0.96
0.24,0.2,0.96
0.23,0.21,0.96
0.23,0.21,0.96
0.23,0.21,0.96
0.25,0.2,0.96
0.26,0.2,0.95
0.27,0.2,0.94
0.27,0.2,0.94
0.27,0.2,0.94
0.26,0.2,0.94
0.25,0.2,0.94
0.24,0.19,0.95
0.23,0.19,0.95
0.23,0.19,0.94
0.24,0.19,0.94
0.24,0.19,0.94
0.25,0.19,0.94
0.25,0.19,0.94
0.24,0.19,0.94
0.24,0.19,0.94
0.24,0.19,0.94
0.24,0.19,0.94
0.25,0.19,0.94
0.25,0.19,0.94
0.25,0.2,0.94
0.24,0.2,0.95
0.24,0.19,0.95
0.24,0.19,0.95
0.24,0.19,0.95
0.24,0.19,0.95
0.25,0.19,0.94
0.25,0.19,0.94
0.25,0.19,0.94
0.25,0.19,0.95
0.25,0.19,0.95
0.26,0.19,0.95
0.26,0.19,0.95
0.26,0.19,0.96
0.26,0.19,0.96
0.26,0.19,0.96
0.26,0.2,0.96
0.25,0.2,0.96
0.25,0.2,0.96
0.25,0.2,0.95
0.25,0.2,0.95
0.25,0.2,0.95
0.25,0.2,0.95
0.25,0.2,0.95
0.26,0.19,0.96
0.26,0.19,0.96
0.24,0.2,0.96
0.24,0.2,0.96
0.25,0.2,0.97
0.26,0.21,0.97
0.28,0.21,0.97
0.27,0.21,0.97
0.25,0.21,0.97
0.24,0.21,0.97
0.23,0.21,0.98
0.25,0.2,0.97
0.26,0.2,0.96
0.26,0.2,0.95
0.25,0.19,0.95
0.24,0.19,0.94
0.23,0.19,0.93
0.22,0.2,0.93
0.22,0.2,0.95
0.23,0.2,0.96
0.23,0.2,0.97
0.24,0.19,0.98
0.24,0.18,0.97
0.25,0.17,0.95
0.25,0.17,0.93
0.24,0.16,0.92
0.23,0.15,0.92
0.25,0.15,0.92
0.29,0.15,0.92
0.3,0.15,0.92
0.31,0.16,0.93
0.31,0.17,0.94
0.32,0.18,0.95
0.33,0.19,0.96
0.31,0.2,0.96
0.3,0.2,0.95
0.3,0.2,0.94
0.31,0.2,0.93
0.31,0.2,0.92
0.32,0.21,0.91
0.34,0.22,0.91
0.34,0.23,0.91
0.32,0.23,0.92
0.29,0.24,0.92
0.27,0.24,0.91
0.24,0.23,0.89
0.26,0.23,0.88
0.33,0.24,0.88
0.39,0.25,0.9
0.42,0.26,0.93
0.4,0.28,0.96
0.35,0.28,0.98
0.3,0.28,1
0.26,0.29,1
0.23,0.29,0.98
0.25,0.29,0.94
0.29,0.3,0.91
0.29,0.29,0.91
0.28,0.28,0.92
0.26,0.29,0.92
0.25,0.29,0.93
0.24,0.3,0.95
0.25,0.3,0.97
0.27,0.31,0.98
0.3,0.32,0.97
0.35,0.33,0.96
0.4,0.33,0.93
0.45,0.34,0.88
0.51,0.33,0.83
0.58,0.34,0.82
0.63,0.35,0.8
0.57,0.37,0.76
0.49,0.36,0.76
0.48,0.37,0.78
0.51,0.39,0.76
0.54,0.4,0.73
0.6,0.41,0.64
0.65,0.4,0.59
0.71,0.4,0.55
0.73,0.4,0.52
0.71,0.4,0.51
0.68,0.41,0.53
0.68,0.43,0.52
0.68,0.45,0.5
0.68,0.45,0.47
0.67,0.45,0.44
0.68,0.45,0.41
0.71,0.46,0.38
0.73,0.48,0.34
0.76,0.49,0.3
0.78,0.5,0.27
0.79,0.5,0.26
0.8,0.51,0.25
0.78,0.52,0.24
0.77,0.51,0.24
0.76,0.52,0.25
0.77,0.52,0.24
0.76,0.54,0.21
0.76,0.53,0.17
0.83,0.54,0.13
0.91,0.55,0.1
0.9,0.55,0.11
0.87,0.55,0.12
0.88,0.55,0.13
0.88,0.54,0.13
0.89,0.55,0.13
0.9,0.55,0.13
0.87,0.56,0.11
0.88,0.56,0.09
0.9,0.54,0.07
0.92,0.53,0.05
0.93,0.54,0.03
0.94,0.55,0.05
0.93,0.55,0.06
0.91,0.55,0.06
0.94,0.55,0.05
0.93,0.54,0.04
0.9,0.54,0.03
0.91,0.53,0.03
0.91,0.53,0.01
0.91,0.53,-0.03
0.9,0.51,-0.06
0.91,0.51,-0.06
0.93,0.51,-0.06
0.92,0.52,-0.07
0.93,0.52,-0.06
0.93,0.51,-0.04
0.91,0.51,0.01
0.88,0.51,0.02
0.86,0.5,0
0.87,0.49,-0.01
0.87,0.5,-0.03
0.86,0.51,-0.05
0.86,0.52,-0.06
0.88,0.52,-0.06
0.88,0.53,-0.06
0.86,0.54,-0.05
0.83,0.55,-0.03
0.81,0.56,-0.02
0.81,0.56,-0.02
0.81,0.57,-0.03
0.8,0.58,-0.04
0.79,0.59,-0.05
0.79,0.6,-0.07
0.8,0.6,-0.08
0.8,0.61,-0.08
0.81,0.61,-0.08
0.79,0.61,-0.06
0.77,0.63,-0.04
0.8,0.65,-0.02
0.79,0.66,-0.02
0.73,0.68,-0.04
0.72,0.69,-0.04
0.71,0.7,-0.05
0.71,0.7,-0.05
0.71,0.7,-0.04
0.7,0.7,-0.04
0.7,0.7,-0.03
0.69,0.71,-0.03
0.69,0.71,-0.03
0.68,0.71,-0.02
0.67,0.72,-0.01
0.66,0.72,0
0.66,0.73,-0.01
0.63,0.74,-0.03
0.61,0.74,-0.03
0.61,0.74,-0.02
0.6,0.74,-0.02
0.59,0.74,-0.01
0.59,0.73,-0.01
0.58,0.72,-0.01
0.56,0.72,0
0.54,0.72,0
0.53,0.72,0.01
0.53,0.72,0.01
0.54,0.72,0.02
0.55,0.73,0
0.53,0.72,0
0.53,0.72,0
0.52,0.73,0
0.52,0.73,0.02
0.52,0.73,0.03
0.51,0.73,0.04
0.5,0.73,0.05
0.49,0.73,0.06
0.49,0.73,0.06
0.49,0.73,0.06
0.48,0.73,0.06
0.49,0.73,0.07
0.49,0.73,0.07
0.5,0.74,0.07
0.5,0.74,0.07
0.49,0.74,0.07
0.49,0.76,0.09
0.49,0.77,0.1
0.49,0.78,0.1
0.5,0.77,0.09
0.5,0.78,0.08
0.5,0.78,0.08
0.51,0.77,0.08
0.52,0.78,0.09
0.52,0.78,0.09
0.52,0.78,0.1
0.51,0.79,0.09
0.51,0.79,0.09
0.52,0.8,0.09
0.54,0.8,0.09
0.54,0.79,0.09
0.55,0.79,0.08
0.54,0.79,0.08
0.53,0.8,0.08
0.53,0.8,0.08
0.54,0.81,0.08
0.54,0.81,0.08
0.55,0.81,0.08
0.55,0.81,0.08
0.56,0.81,0.08
0.56,0.81,0.08
0.56,0.81,0.08
0.56,0.81,0.08
0.56,0.81,0.08
0.56,0.82,0.08
0.56,0.82,0.08
0.56,0.82,0.08
0.56,0.82,0.07
0.56,0.82,0.07
0.56,0.82,0.07
0.55,0.82,0.07
0.56,0.81,0.08
0.56,0.81,0.08
0.55,0.81,0.08
0.55,0.81,0.08
0.56,0.81,0.08
0.56,0.81,0.07
0.56,0.81,0.07
0.56,0.81,0.07
0.55,0.81,0.07
0.55,0.81,0.08
0.54,0.81,0.07
0.54,0.81,0.07
0.53,0.81,0.06
0.53,0.8,0.06
0.53,0.8,0.07
0.54,0.8,0.08
0.54,0.8,0.07
0.53,0.81,0.07
0.53,0.81,0.07
0.53,0.81,0.07
0.53,0.81,0.07
0.53,0.81,0.07
0.54,0.81,0.07
0.53,0.81,0.07
0.54,0.81,0.07
0.53,0.81,0.07
0.53,0.8,0.08
0.53,0.8,0.08
0.54,0.8,0.08
0.54,0.8,0.08
0.54,0.79,0.08
0.55,0.78,0.08
0.55,0.77,0.09
0.55,0.77,0.09
0.55,0.77,0.09
0.56,0.77,0.08
0.55,0.77,0.09
0.55,0.76,0.09
0.55,0.75,0.1
0.56,0.73,0.1
0.57,0.72,0.1
0.58,0.7,0.11
0.57,0.67,0.12
0.58,0.65,0.13
0.59,0.63,0.14
0.61,0.61,0.15
0.61,0.6,0.15
0.61,0.59,0.15
0.61,0.59,0.14
0.61,0.58,0.14
0.61,0.59,0.14
0.61,0.61,0.14
0.6,0.62,0.14
0.59,0.63,0.13
0.58,0.65,0.13
0.57,0.66,0.12
0.58,0.66,0.11
0.59,0.67,0.11
0.6,0.66,0.1
0.61,0.65,0.1
0.62,0.64,0.1
0.63,0.64,0.1
0.63,0.63,0.1
0.63,0.62,0.09
0.64,0.62,0.08
0.65,0.62,0.05
0.66,0.63,0.04
0.64,0.64,0.04
0.63,0.67,0.04
0.63,0.69,0.05
0.63,0.7,0.05
0.65,0.7,0.04
0.67,0.69,0.03
0.7,0.67,0.01
0.73,0.65,0.01
0.76,0.65,0.02
0.8,0.66,0.03
0.82,0.69,0.04
0.83,0.7,0.04
0.82,0.69,0.04
0.83,0.69,0.04
0.82,0.67,0.05
0.81,0.66,0.07
0.81,0.67,0.08
0.81,0.68,0.09
0.82,0.68,0.1
0.85,0.69,0.11
0.87,0.69,0.11
0.89,0.68,0.11
0.9,0.67,0.1
0.88,0.65,0.11
0.88,0.63,0.12
0.91,0.61,0.15
0.91,0.61,0.18
0.92,0.62,0.21
0.92,0.62,0.22
0.91,0.62,0.23
0.87,0.6,0.24
0.84,0.57,0.25
0.84,0.55,0.27
0.85,0.54,0.28
0.87,0.54,0.28
0.89,0.53,0.29
0.9,0.53,0.29
0.9,0.52,0.29
0.91,0.51,0.3
0.93,0.5,0.32
0.94,0.5,0.34
0.95,0.49,0.36
0.94,0.49,0.37
0.85,0.48,0.39
0.81,0.48,0.41
0.79,0.47,0.43
0.75,0.47,0.44
0.72,0.46,0.46
0.73,0.44,0.48
0.72,0.43,0.5
0.69,0.43,0.53
0.7,0.43,0.54
0.71,0.43,0.55
0.71,0.43,0.55
0.69,0.43,0.55
0.68,0.42,0.56
0.69,0.42,0.54
0.68,0.42,0.55
0.67,0.42,0.57
0.65,0.42,0.59
0.64,0.41,0.61
0.62,0.42,0.63
0.61,0.41,0.63
0.61,0.41,0.62
0.61,0.41,0.61
0.61,0.42,0.62
0.6,0.42,0.64
0.57,0.41,0.66
0.54,0.39,0.66
0.54,0.39,0.65
0.52,0.39,0.67
0.51,0.4,0.78
0.5,0.39,0.82
0.46,0.37,0.76
0.43,0.37,0.78
0.4,0.36,0.79
0.38,0.34,0.79
0.36,0.34,0.78
0.35,0.33,0.79
0.35,0.31,0.8
0.34,0.3,0.82
0.33,0.3,0.84
0.3,0.3,0.85
0.26,0.29,0.88
0.25,0.29,0.89
0.25,0.28,0.92
0.25,0.27,0.93
0.26,0.26,0.94
0.27,0.26,0.93
0.27,0.26,0.93
0.27,0.25,0.93
0.24,0.25,0.93
0.22,0.25,0.94
0.21,0.25,0.96
0.2,0.25,0.96
0.19,0.25,0.97
0.18,0.24,0.99
0.21,0.23,1
0.27,0.23,1.04
0.28,0.26,1.04
0.21,0.26,0.98
0.14,0.23,0.98
0.1,0.23,0.99
0.11,0.22,0.99
0.11,0.22,0.99
0.12,0.22,0.99
0.12,0.22,0.99
0.14,0.22,0.99
0.15,0.22,0.98
0.17,0.21,0.97
0.2,0.19,0.98
0.24,0.17,1
0.24,0.18,1.04
0.22,0.19,1.07
0.2,0.2,1.08
0.19,0.21,1.06
0.19,0.2,1.03
0.19,0.19,1
0.17,0.18,0.97
0.16,0.18,0.95
0.16,0.17,0.94
0.15,0.17,0.94
0.16,0.17,0.94
0.17,0.17,0.94
0.19,0.17,0.95
0.2,0.18,0.97
0.23,0.19,0.97
0.28,0.19,0.96
0.3,0.19,0.96
0.29,0.2,1
0.28,0.21,1.01
0.23,0.21,1
0.21,0.21,0.99
0.22,0.21,0.97
0.23,0.2,0.96
0.22,0.19,0.95
0.23,0.19,0.95
0.24,0.18,0.94
0.27,0.18,0.93
0.28,0.18,0.92
0.29,0.17,0.93
0.28,0.17,0.95
0.27,0.18,0.97
0.26,0.18,0.97
0.26,0.18,0.97
0.26,0.18,0.96
0.27,0.18,0.95
0.27,0.18,0.94
0.28,0.18,0.94
0.3,0.18,0.93
0.3,0.17,0.94
0.29,0.18,0.96
0.27,0.18,0.97
0.25,0.18,0.97
0.25,0.17,0.96
0.26,0.17,0.95
0.27,0.18,0.94
0.27,0.17,0.94
0.27,0.17,0.94
0.27,0.17,0.94
0.27,0.17,0.94
0.27,0.18,0.94
0.27,0.18,0.95
0.26,0.18,0.96
0.26,0.18,0.95
0.26,0.18,0.95
0.27,0.17,0.94
0.27,0.17,0.94
0.27,0.17,0.95
0.26,0.17,0.96
0.25,0.18,0.96
0.25,0.18,0.96
0.25,0.19,0.95
0.25,0.18,0.95
0.25,0.18,0.95
0.25,0.18,0.95
0.26,0.19,0.96
0.26,0.19,0.96
0.26,0.19,0.96
0.26,0.19,0.95
0.26,0.19,0.95
0.26,0.19,0.95
0.26,0.19,0.95
0.25,0.18,0.96
0.25,0.18,0.96
0.26,0.19,0.95
0.26,0.18,0.95
0.25,0.18,0.95
0.25,0.18,0.95
0.24,0.18,0.95
0.24,0.18,0.95
0.25,0.18,0.95
0.26,0.18,0.95
0.25,0.18,0.96
0.24,0.18,0.96
0.24,0.18,0.95
0.24,0.19,0.95
0.24,0.19,0.95
0.25,0.19,0.95
0.25,0.18,0.96
0.24,0.18,0.96
0.23,0.18,0.96
0.23,0.18,0.96
0.23,0.18,0.96
0.23,0.18,0.96
0.23,0.18,0.96
0.24,0.18,0.96
0.24,0.18,0.96
0.24,0.18,0.96
0.23,0.18,0.96
0.23,0.18,0.96
0.22,0.18,0.96
0.22,0.18,0.96
0.23,0.18,0.95
0.24,0.19,0.95
0.24,0.19,0.95
0.25,0.19,0.95
0.24,0.19,0.96
0.23,0.19,0.96
0.22,0.19,0.96
0.22,0.19,0.96
0.21,0.19,0.95
0.2,0.19,0.95
0.19,0.19,0.96
0.18,0.19,0.96
0.19,0.19,0.96
0.2,0.19,0.97
0.23,0.18,0.96
0.27,0.18,0.95
0.29,0.18,0.94
0.29,0.18,0.94
0.3,0.18,0.94
0.3,0.18,0.94
0.29,0.18,0.94
0.27,0.18,0.95
0.26,0.18,0.95
0.25,0.18,0.95
0.24,0.18,0.95
0.25,0.18,0.95
0.25,0.18,0.95
0.25,0.19,0.95
0.25,0.19,0.95
0.26,0.19,0.95
0.26,0.19,0.95
0.26,0.19,0.95
0.25,0.19,0.95
0.25,0.18,0.95
0.25,0.18,0.96
0.25,0.19,0.96
0.25,0.18,0.95
0.25,0.18,0.95
0.25,0.18,0.95
0.25,0.18,0.95
0.25,0.18,0.94
0.26,0.18,0.95
0.25,0.18,0.95
0.24,0.18,0.96
0.24,0.18,0.96
0.25,0.19,0.97
0.25,0.19,0.97
0.27,0.19,0.96
0.26,0.19,0.94
0.26,0.19,0.93
0.26,0.19,0.93
0.25,0.19,0.94
0.25,0.19,0.95
0.24,0.19,0.96
0.24,0.19,0.95
0.24,0.19,0.95
0.23,0.19,0.95
0.24,0.19,0.95
0.25,0.19,0.95
0.25,0.19,0.95
0.26,0.18,0.96
0.28,0.19,0.96
0.28,0.2,0.95
0.26,0.2,0.95
0.24,0.19,0.96
0.24,0.19,0.96
0.25,0.19,0.96
0.26,0.2,0.97
0.25,0.2,0.97
0.24,0.2,0.96
0.23,0.21,0.95
0.23,0.2,0.94
0.24,0.2,0.94
0.24,0.19,0.94
0.23,0.18,0.94
0.22,0.18,0.94
0.23,0.18,0.94
0.23,0.19,0.94
0.24,0.19,0.94
0.24,0.19,0.94
0.24,0.19,0.94
0.24,0.19,0.94
0.24,0.19,0.95
0.25,0.19,0.96
0.24,0.19,0.95
0.24,0.19,0.95
0.24,0.2,0.95
0.23,0.2,0.94
0.23,0.2,0.95
0.22,0.2,0.95
0.22,0.2,0.95
0.23,0.2,0.95
0.23,0.21,0.96
0.24,0.21,0.96
0.24,0.21,0.96
0.24,0.21,0.97
0.23,0.21,0.97
0.24,0.22,0.96
0.22,0.22,0.96
0.2,0.22,0.97
0.19,0.21,0.96
0.19,0.21,0.96
0.19,0.2,0.96
0.2,0.21,0.96
0.19,0.21,0.97
0.19,0.21,0.98
0.19,0.22,0.98
0.2,0.22,0.98
0.2,0.21,0.97
0.19,0.21,0.97
0.18,0.2,0.95
0.2,0.19,0.95
0.2,0.18,0.96
0.2,0.18,0.96
0.21,0.18,0.96
0.22,0.17,0.95
0.23,0.16,0.94
0.23,0.16,0.94
0.23,0.17,0.94
0.21,0.17,0.96
0.2,0.17,0.97
0.2,0.17,0.97
0.21,0.17,0.96
0.2,0.17,0.95
0.22,0.17,0.95
0.23,0.17,0.95
0.24,0.18,0.95
0.24,0.18,0.96
0.24,0.18,0.97
0.25,0.18,0.98
0.25,0.19,0.98
0.23,0.19,0.98
0.23,0.2,0.98
0.24,0.21,1
0.21,0.22,1.01
0.21,0.22,1.01
0.23,0.21,1
0.27,0.21,0.98
0.29,0.23,0.97
0.3,0.23,0.96
0.29,0.23,0.98
0.28,0.24,0.99
0.27,0.25,1
0.28,0.26,0.99
0.31,0.27,0.97
0.33,0.28,0.96
0.33,0.28,0.95
0.33,0.29,0.95
0.32,0.3,0.93
0.32,0.31,0.92
0.35,0.3,0.92
0.39,0.3,0.9
0.45,0.31,0.86
0.48,0.32,0.83
0.51,0.33,0.81
0.52,0.33,0.78
0.54,0.34,0.76
0.56,0.34,0.74
0.58,0.35,0.72
0.58,0.35,0.71
0.61,0.36,0.69
0.63,0.38,0.67
0.61,0.39,0.66
0.6,0.39,0.64
0.6,0.39,0.61
0.62,0.4,0.57
0.66,0.41,0.54
0.67,0.43,0.52
0.66,0.44,0.5
0.69,0.45,0.47
0.71,0.46,0.46
0.7,0.46,0.45
0.7,0.45,0.42
0.71,0.45,0.4
0.74,0.45,0.39
0.77,0.45,0.37
0.78,0.46,0.31
0.79,0.46,0.31
0.78,0.47,0.3
0.81,0.47,0.28
0.8,0.47,0.26
0.81,0.47,0.26
0.82,0.48,0.26
0.84,0.48,0.25
0.86,0.48,0.24
0.85,0.48,0.24
0.85,0.49,0.23
0.86,0.51,0.22
0.89,0.51,0.21
0.92,0.51,0.21
0.92,0.51,0.21
0.92,0.51,0.21
0.93,0.51,0.2
0.92,0.5,0.2
0.89,0.51,0.19
0.87,0.52,0.17
0.87,0.52,0.16
0.91,0.52,0.15
0.95,0.52,0.14
0.96,0.53,0.13
0.95,0.53,0.12
0.92,0.53,0.11
0.89,0.53,0.1
0.9,0.52,0.08
0.9,0.52,0.06
0.87,0.54,0.06
0.9,0.53,0.07
0.95,0.52,0.05
0.95,0.53,0.03
0.92,0.53,0.04
0.89,0.54,0.04
0.89,0.54,0.03
0.9,0.55,0.02
0.91,0.56,0.02
0.91,0.56,0.03
0.74,0.64,0.07
0.78,0.64,0.09
0.98,0.55,0.04
0.9,0.56,0
0.83,0.57,-0.01
0.85,0.54,-0.03
0.8,0.59,0
0.82,0.59,0.01
0.83,0.58,-0.01
0.82,0.57,-0.01
0.76,0.59,-0.03
0.79,0.59,-0.03
0.82,0.58,-0.01
0.77,0.59,-0.01
0.76,0.59,-0.01
0.75,0.58,-0.01
0.73,0.59,-0.01
0.71,0.6,-0.01
0.7,0.61,0
0.69,0.62,0
0.68,0.63,-0.01
0.67,0.63,-0.01
0.66,0.62,-0.01
0.64,0.63,0.01
0.64,0.64,0.01
0.64,0.64,-0.02
0.65,0.66,-0.03
0.65,0.67,-0.03
0.64,0.68,-0.02
0.62,0.68,-0.01
0.61,0.69,-0.01
0.61,0.7,-0.01
0.61,0.71,-0.01
0.61,0.72,0
0.61,0.72,-0.01
0.61,0.72,-0.01
0.62,0.73,-0.02
0.61,0.73,-0.01
0.61,0.73,0
0.62,0.73,0
0.61,0.74,0
0.59,0.74,0.01
0.59,0.74,0.01
0.58,0.74,0.02
0.57,0.74,0.02
0.57,0.74,0.03
0.56,0.73,0.02
0.55,0.74,0.02
0.55,0.74,0.02
0.55,0.75,0.01
0.55,0.75,0.01
0.56,0.75,0.02
0.56,0.75,0.03
0.56,0.74,0.03
0.56,0.75,0.03
0.56,0.75,0.04
0.56,0.75,0.04
0.55,0.76,0.03
0.54,0.76,0.02
0.54,0.77,0.01
0.53,0.77,0.01
0.53,0.77,0.02
0.53,0.77,0.03
0.54,0.77,0.04
0.53,0.77,0.05
0.53,0.77,0.05
0.53,0.78,0.05
0.53,0.79,0.03
0.54,0.8,0.01
0.54,0.8,0
0.54,0.8,0.01
0.55,0.8,0.03
0.55,0.8,0.04
0.54,0.8,0.05
0.53,0.8,0.05
0.53,0.82,0.02
0.53,0.82,0
0.55,0.82,0
0.56,0.82,0
0.56,0.81,0
0.56,0.8,0.01
0.57,0.79,0.02
0.58,0.79,0.02
0.57,0.8,0.02
0.56,0.8,0.01
0.55,0.81,0.01
0.55,0.81,0
0.55,0.81,0
0.56,0.8,0
0.56,0.79,0
0.57,0.8,0
0.57,0.81,0.01
0.56,0.81,0.01
0.56,0.81,0.01
0.56,0.8,0
0.57,0.8,0
0.57,0.8,0
0.57,0.8,0
0.56,0.8,0.01
0.56,0.8,0.01
0.56,0.81,0.01
0.57,0.8,0
0.57,0.8,-0.01
0.57,0.79,-0.01
0.57,0.79,-0.01
0.57,0.79,0
0.57,0.79,0.01
0.58,0.8,0.01
0.58,0.8,0
0.57,0.8,0
0.57,0.8,-0.01
0.57,0.8,-0.01
0.57,0.8,-0.01
0.57,0.79,-0.01
0.57,0.79,-0.01
0.57,0.8,0
0.57,0.8,-0.01
0.57,0.8,-0.01
0.57,0.8,-0.01
0.57,0.79,-0.01
0.58,0.79,-0.01
0.58,0.78,0
0.57,0.78,0
0.57,0.78,0.01
0.57,0.79,0
0.57,0.79,0
0.57,0.79,0
0.57,0.79,0.01
0.57,0.79,0.01
0.57,0.78,0.01
0.56,0.78,0.01
0.56,0.78,0.01
0.56,0.78,0.02
0.56,0.78,0.02
0.57,0.78,0.01
0.57,0.78,0.02
0.58,0.77,0.02
0.58,0.77,0.02
0.58,0.77,0.02
0.59,0.77,0.02
0.59,0.76,0.02
0.6,0.77,0.01
0.59,0.77,0.02
0.6,0.77,0.02
0.6,0.76,0.02
0.6,0.76,0.02
0.6,0.75,0.02
0.61,0.75,0.02
0.61,0.75,0.02
0.62,0.75,0.02
0.62,0.75,0.02
0.62,0.74,0.02
0.63,0.73,0.03
0.62,0.73,0.03
0.63,0.72,0.04
0.64,0.72,0.04
0.64,0.72,0.05
0.65,0.73,0.05
0.63,0.74,0.03
0.58,0.74,0.03
0.58,0.73,0.05
0.59,0.72,0.06
0.6,0.72,0.06
0.61,0.73,0.06
0.62,0.73,0.06
0.63,0.74,0.05
0.64,0.74,0.05
0.64,0.73,0.04
0.65,0.72,0.04
0.66,0.71,0.04
0.66,0.71,0.05
0.65,0.7,0.05
0.64,0.7,0.06
0.64,0.7,0.06
0.64,0.71,0.06
0.65,0.7,0.06
0.66,0.69,0.06
0.67,0.67,0.07
0.68,0.66,0.08
0.7,0.64,0.08
0.69,0.64,0.09
0.69,0.64,0.09
0.67,0.64,0.1
0.65,0.66,0.11
0.64,0.67,0.11
0.64,0.66,0.11
0.65,0.65,0.1
0.66,0.63,0.1
0.66,0.61,0.1
0.67,0.61,0.11
0.68,0.62,0.12
0.68,0.63,0.13
0.68,0.65,0.15
0.68,0.65,0.17
0.66,0.64,0.19
0.65,0.62,0.2
0.65,0.61,0.22
0.66,0.61,0.23
0.69,0.63,0.23
0.72,0.64,0.23
0.74,0.64,0.23
0.77,0.65,0.21
0.79,0.64,0.21
0.8,0.62,0.21
0.79,0.6,0.21
0.77,0.58,0.23
0.76,0.57,0.27
0.76,0.59,0.3
0.76,0.6,0.32
0.75,0.6,0.32
0.74,0.59,0.32
0.72,0.58,0.31
0.73,0.57,0.3
0.73,0.55,0.3
0.72,0.54,0.32
0.71,0.53,0.35
0.69,0.53,0.39
0.69,0.52,0.41
0.69,0.53,0.44
0.69,0.53,0.46
0.69,0.53,0.47
0.69,0.53,0.47
0.71,0.53,0.49
0.76,0.53,0.5
0.75,0.53,0.5
0.74,0.52,0.52
0.76,0.51,0.53
0.77,0.52,0.54
0.75,0.52,0.56
0.73,0.51,0.57
0.73,0.5,0.6
0.72,0.5,0.61
0.72,0.5,0.61
0.7,0.5,0.61
0.69,0.49,0.62
0.69,0.49,0.63
0.68,0.48,0.66
0.65,0.48,0.68
0.63,0.47,0.7
0.62,0.47,0.7
0.6,0.46,0.72
0.6,0.46,0.73
0.59,0.46,0.74
0.57,0.45,0.74
0.58,0.45,0.74
0.55,0.46,0.77
0.5,0.45,0.77
0.48,0.44,0.75
0.46,0.44,0.74
0.44,0.44,0.73
0.42,0.44,0.76
0.37,0.43,0.77
0.36,0.42,0.77
0.36,0.41,0.78
0.36,0.42,0.79
0.34,0.41,0.81
0.36,0.39,0.81
0.36,0.37,0.81
0.32,0.37,0.81
0.31,0.37,0.82
0.28,0.37,0.84
0.26,0.36,0.87
0.25,0.35,0.88
0.24,0.35,0.87
0.25,0.33,0.88
0.24,0.32,0.89
0.22,0.31,0.88
0.22,0.3,0.87
0.22,0.31,0.87
0.22,0.3,0.88
0.21,0.29,0.89
0.19,0.28,0.91
0.18,0.28,0.92
0.19,0.28,0.92
0.2,0.28,0.91
0.22,0.28,0.91
0.24,0.28,0.91
0.23,0.28,0.92
0.21,0.27,0.94
0.19,0.25,0.95
0.18,0.23,0.96
0.19,0.22,0.95
0.21,0.22,0.95
0.22,0.22,0.95
0.2,0.23,0.96
0.19,0.22,0.97
0.19,0.21,0.96
0.19,0.2,0.95
0.21,0.19,0.94
0.24,0.18,0.92
0.28,0.16,0.97
0.32,0.18,1.04
0.27,0.19,1.02
0.2,0.17,0.99
0.16,0.18,1.06
0.13,0.18,1.14
0.15,0.18,1.19
0.19,0.19,1.19
0.24,0.19,1.14
0.28,0.19,1.07
0.27,0.19,1
0.24,0.19,0.95
0.2,0.18,0.92
0.16,0.16,0.93
0.14,0.14,0.94
0.14,0.12,0.95
0.15,0.13,0.96
0.16,0.13,0.96
0.17,0.13,0.95
0.19,0.13,0.94
0.24,0.13,0.94
0.27,0.13,0.95
0.31,0.13,0.97
0.34,0.12,1
0.34,0.13,1.02
0.32,0.13,1.04
0.31,0.13,1.03
0.29,0.14,1.02
0.27,0.15,1
0.25,0.15,0.98
0.24,0.15,0.97
0.24,0.15,0.96
0.24,0.14,0.97
0.24,0.14,0.97
0.24,0.14,0.97
0.24,0.14,0.96
0.24,0.14,0.95
0.25,0.14,0.94
0.25,0.14,0.94
0.26,0.13,0.94
0.27,0.13,0.95
0.27,0.13,0.95
0.25,0.14,0.96
0.23,0.14,0.96
0.21,0.14,0.97
0.21,0.13,0.96
0.21,0.14,0.96
0.2,0.14,0.96
0.2,0.14,0.96
0.2,0.14,0.96
0.21,0.14,0.97
0.23,0.15,0.97
0.23,0.14,0.97
0.23,0.15,0.98
0.23,0.15,0.98
0.23,0.15,0.98
0.23,0.15,0.98
0.22,0.15,0.97
0.21,0.15,0.97
0.21,0.15,0.97
0.21,0.15,0.97
0.21,0.15,0.97
0.21,0.15,0.97
0.21,0.15,0.97
0.22,0.14,0.97
0.22,0.14,0.97
0.22,0.15,0.97
0.21,0.15,0.97
0.21,0.14,0.96
0.22,0.14,0.96
0.23,0.14,0.96
0.24,0.14,0.95
0.24,0.14,0.96
0.24,0.14,0.96
0.24,0.14,0.96
0.24,0.15,0.96
0.24,0.15,0.96
0.23,0.14,0.96
0.23,0.14,0.96
0.23,0.14,0.96
0.23,0.14,0.96
0.23,0.14,0.96
0.23,0.14,0.96
0.23,0.15,0.96
0.23,0.15,0.96
0.23,0.15,0.96
0.24,0.14,0.96
0.24,0.14,0.96
0.24,0.14,0.96
0.24,0.15,0.96
0.23,0.15,0.96
