Acc_x,Acc_y,Acc_z
0.32,0.23,0.9
0.33,0.23,0.91
0.34,0.23,0.92
0.34,0.23,0.93
0.33,0.24,0.93
0.33,0.24,0.92
0.33,0.25,0.92
0.32,0.25,0.91
0.32,0.26,0.91
0.33,0.26,0.91
0.33,0.26,0.91
0.33,0.26,0.91
0.33,0.27,0.92
0.32,0.27,0.92
0.32,0.27,0.91
0.32,0.27,0.91
0.32,0.27,0.92
0.33,0.27,0.93
0.34,0.26,0.94
0.34,0.26,0.94
0.33,0.26,0.95
0.32,0.25,0.94
0.31,0.25,0.93
0.29,0.25,0.91
0.29,0.24,0.89
0.28,0.24,0.89
0.28,0.23,0.92
0.28,0.23,0.92
0.28,0.23,0.94
0.28,0.23,0.95
0.28,0.24,0.95
0.29,0.24,0.95
0.3,0.24,0.96
0.31,0.23,0.95
0.33,0.24,0.94
0.34,0.25,0.93
0.33,0.25,0.93
0.31,0.25,0.94
0.29,0.25,0.96
0.25,0.25,0.96
0.22,0.24,0.94
0.22,0.24,0.94
0.26,0.24,0.93
0.29,0.24,0.93
0.29,0.24,0.92
0.29,0.24,0.91
0.26,0.25,0.91
0.22,0.24,0.9
0.19,0.23,0.9
0.16,0.22,0.92
0.14,0.21,0.94
0.16,0.19,0.95
0.19,0.18,0.96
0.22,0.18,0.97
0.27,0.19,0.98
0.28,0.19,0.98
0.26,0.18,0.98
0.26,0.18,0.98
0.26,0.18,0.98
0.27,0.19,0.98
0.27,0.19,0.99
0.28,0.2,0.99
0.29,0.21,0.98
0.3,0.21,0.98
0.31,0.21,0.97
0.33,0.23,0.97
0.33,0.24,0.97
0.33,0.25,0.99
0.34,0.26,1
0.35,0.28,0.94
0.35,0.3,0.93
0.38,0.31,0.92
0.39,0.33,0.91
0.41,0.34,0.9
0.41,0.36,0.88
0.4,0.36,0.85
0.41,0.37,0.83
0.43,0.38,0.79
0.46,0.39,0.76
0.51,0.41,0.74
0.57,0.43,0.72
0.61,0.43,0.69
0.64,0.42,0.67
0.67,0.43,0.65
0.66,0.44,0.61
0.65,0.44,0.59
0.65,0.45,0.58
0.65,0.45,0.57
0.66,0.45,0.55
0.67,0.46,0.53
0.67,0.46,0.51
0.67,0.46,0.47
0.71,0.46,0.43
0.74,0.46,0.41
0.75,0.46,0.38
0.78,0.46,0.36
0.8,0.46,0.34
0.81,0.46,0.33
0.81,0.46,0.32
0.81,0.46,0.31
0.81,0.46,0.3
0.8,0.45,0.29
0.82,0.46,0.27
0.84,0.47,0.24
0.85,0.48,0.23
0.87,0.48,0.21
0.88,0.48,0.19
0.88,0.48,0.17
0.89,0.48,0.16
0.88,0.48,0.15
0.87,0.49,0.15
0.86,0.48,0.15
0.86,0.48,0.14
0.87,0.49,0.12
0.91,0.52,0.1
0.93,0.53,0.08
0.95,0.52,0.06
0.96,0.51,0.05
0.96,0.51,0.04
0.95,0.52,0.05
0.95,0.55,0.05
0.97,0.55,0.04
0.97,0.55,0.02
0.97,0.54,0
0.97,0.52,-0.02
0.96,0.5,-0.02
0.96,0.5,-0.03
0.96,0.51,-0.06
0.94,0.5,-0.06
0.92,0.5,-0.06
0.9,0.5,-0.07
0.88,0.51,-0.07
0.85,0.52,-0.07
0.84,0.52,-0.1
0.83,0.52,-0.12
0.82,0.52,-0.13
0.83,0.5,-0.14
0.82,0.5,-0.14
0.81,0.5,-0.15
0.79,0.51,-0.14
0.77,0.51,-0.12
0.76,0.52,-0.11
0.75,0.53,-0.12
0.74,0.54,-0.12
0.73,0.54,-0.13
0.71,0.54,-0.12
0.71,0.54,-0.12
0.72,0.55,-0.12
0.73,0.56,-0.12
0.74,0.56,-0.11
0.74,0.56,-0.11
0.74,0.58,-0.11
0.74,0.6,-0.1
0.74,0.62,-0.1
0.73,0.63,-0.1
0.72,0.64,-0.09
0.73,0.64,-0.09
0.73,0.65,-0.09
0.72,0.66,-0.1
0.71,0.66,-0.11
0.71,0.66,-0.11
0.7,0.67,-0.11
0.69,0.67,-0.1
0.68,0.67,-0.1
0.66,0.68,-0.11
0.64,0.69,-0.11
0.63,0.7,-0.11
0.64,0.7,-0.11
0.66,0.71,-0.11
0.66,0.7,-0.11
0.65,0.71,-0.1
0.63,0.71,-0.1
0.62,0.72,-0.1
0.6,0.71,-0.1
0.59,0.71,-0.1
0.59,0.71,-0.1
0.59,0.69,-0.11
0.58,0.69,-0.1
0.58,0.7,-0.1
0.59,0.71,-0.1
0.59,0.71,-0.1
0.58,0.72,-0.1
0.57,0.72,-0.1
0.56,0.71,-0.1
0.56,0.71,-0.1
0.55,0.71,-0.1
0.56,0.72,-0.1
0.56,0.73,-0.11
0.56,0.73,-0.12
0.56,0.73,-0.12
0.58,0.73,-0.12
0.59,0.72,-0.12
0.59,0.72,-0.11
0.58,0.73,-0.09
0.58,0.73,-0.08
0.57,0.74,-0.08
0.57,0.74,-0.08
0.58,0.73,-0.08
0.59,0.73,-0.09
0.6,0.74,-0.09
0.61,0.74,-0.1
0.6,0.75,-0.1
0.6,0.75,-0.09
0.61,0.75,-0.09
0.61,0.75,-0.09
0.61,0.75,-0.08
0.61,0.76,-0.08
0.61,0.76,-0.09
0.6,0.77,-0.09
0.61,0.77,-0.09
0.61,0.77,-0.09
0.61,0.77,-0.08
0.61,0.76,-0.08
0.62,0.76,-0.08
0.62,0.76,-0.08
0.62,0.76,-0.09
0.62,0.77,-0.09
0.62,0.77,-0.1
0.62,0.76,-0.09
0.61,0.76,-0.09
0.61,0.76,-0.09
0.61,0.76,-0.08
0.61,0.75,-0.08
0.61,0.75,-0.08
0.61,0.76,-0.09
0.61,0.75,-0.09
0.61,0.75,-0.09
0.62,0.75,-0.09
0.61,0.75,-0.09
0.61,0.75,-0.09
0.61,0.75,-0.08
0.61,0.75,-0.08
0.61,0.75,-0.08
0.61,0.76,-0.08
0.61,0.76,-0.08
0.61,0.76,-0.09
0.6,0.75,-0.09
0.6,0.75,-0.09
0.61,0.76,-0.09
0.61,0.76,-0.08
0.62,0.77,-0.08
0.62,0.77,-0.09
0.62,0.77,-0.09
0.62,0.76,-0.09
0.62,0.76,-0.09
0.62,0.76,-0.09
0.62,0.77,-0.09
0.62,0.76,-0.09
0.62,0.76,-0.09
0.62,0.76,-0.09
0.62,0.76,-0.1
0.63,0.76,-0.1
0.63,0.76,-0.1
0.63,0.76,-0.09
0.62,0.76,-0.09
0.62,0.76,-0.09
0.62,0.76,-0.09
0.61,0.75,-0.1
0.61,0.75,-0.09
0.61,0.75,-0.09
0.61,0.75,-0.09
0.62,0.75,-0.09
0.62,0.75,-0.08
0.62,0.75,-0.08
0.62,0.75,-0.08
0.62,0.74,-0.08
0.62,0.73,-0.08
0.63,0.73,-0.08
0.63,0.73,-0.07
0.64,0.73,-0.07
0.64,0.72,-0.07
0.64,0.71,-0.07
0.65,0.7,-0.07
0.65,0.69,-0.06
0.66,0.68,-0.06
0.66,0.67,-0.06
0.67,0.65,-0.05
0.68,0.63,-0.04
0.69,0.61,-0.03
0.7,0.59,-0.02
0.7,0.58,-0.01
0.71,0.57,0
0.72,0.55,0.01
0.72,0.53,0.02
0.71,0.51,0.02
0.7,0.49,0.02
0.7,0.47,0.02
0.7,0.46,0.03
0.69,0.47,0.04
0.67,0.51,0.04
0.66,0.55,0.02
0.67,0.58,0
0.69,0.58,-0.03
0.72,0.57,-0.06
0.74,0.56,-0.07
0.76,0.55,-0.05
0.79,0.55,-0.02
0.8,0.55,0.02
0.8,0.55,0.05
0.79,0.56,0.08
0.79,0.56,0.09
0.8,0.56,0.09
0.81,0.57,0.09
0.83,0.57,0.08
0.85,0.56,0.07
0.87,0.57,0.07
0.89,0.59,0.06
0.91,0.59,0.06
0.91,0.6,0.07
0.91,0.6,0.1
0.89,0.6,0.13
0.88,0.58,0.15
0.87,0.57,0.17
0.85,0.56,0.19
0.83,0.56,0.21
0.81,0.59,0.23
0.79,0.61,0.23
0.79,0.63,0.24
0.81,0.63,0.25
0.82,0.63,0.26
0.83,0.62,0.26
0.78,0.59,0.26
0.75,0.58,0.29
0.75,0.58,0.34
0.7,0.57,0.38
0.66,0.56,0.42
0.65,0.57,0.45
0.67,0.58,0.48
0.67,0.56,0.5
0.67,0.55,0.51
0.69,0.54,0.54
0.68,0.53,0.56
0.63,0.53,0.59
0.59,0.53,0.62
0.56,0.53,0.63
0.53,0.52,0.64
0.53,0.52,0.65
0.52,0.53,0.66
0.52,0.53,0.67
0.52,0.53,0.68
0.49,0.53,0.7
0.45,0.53,0.72
0.44,0.51,0.73
0.44,0.49,0.75
0.44,0.48,0.75
0.45,0.47,0.76
0.45,0.45,0.78
0.44,0.44,0.8
0.41,0.43,0.82
0.38,0.42,0.81
0.36,0.41,0.82
0.31,0.4,0.85
0.28,0.38,0.87
0.27,0.37,0.89
0.27,0.36,0.9
0.26,0.36,0.89
0.28,0.35,0.89
0.32,0.32,0.88
0.35,0.31,0.88
0.38,0.29,0.88
0.38,0.27,0.9
0.36,0.25,0.94
0.33,0.24,0.97
0.32,0.25,0.99
0.31,0.25,0.98
0.32,0.25,0.98
0.33,0.25,0.97
0.33,0.25,0.94
0.31,0.24,0.93
0.28,0.24,0.93
0.27,0.24,0.92
0.25,0.25,0.92
0.24,0.25,0.92
0.24,0.24,0.91
0.25,0.23,0.92
0.23,0.22,0.93
0.22,0.21,0.94
0.22,0.2,0.94
0.21,0.19,0.94
0.2,0.18,0.95
0.2,0.17,0.95
0.21,0.16,0.96
0.24,0.16,0.96
0.28,0.16,0.96
0.27,0.15,0.98
0.26,0.13,1.01
0.28,0.11,1.04
0.35,0.11,1.09
0.4,0.16,1.12
0.35,0.19,1.12
0.28,0.18,1.06
0.25,0.19,1.01
0.23,0.19,0.98
0.2,0.18,0.99
0.18,0.17,1
0.19,0.17,0.98
0.22,0.17,0.95
0.24,0.17,0.94
0.24,0.18,0.95
0.25,0.16,0.97
0.29,0.15,0.97
0.3,0.16,0.97
0.29,0.17,0.99
0.29,0.17,1
0.3,0.14,0.98
0.36,0.13,0.91
0.45,0.13,0.85
0.5,0.17,0.81
0.51,0.18,0.8
0.5,0.17,0.8
0.48,0.17,0.8
0.46,0.17,0.84
0.42,0.17,0.89
0.38,0.19,0.93
0.36,0.2,0.96
0.35,0.21,0.96
0.36,0.21,0.94
0.37,0.2,0.91
0.35,0.2,0.91
0.34,0.2,0.9
0.34,0.19,0.91
0.34,0.19,0.91
0.32,0.19,0.91
0.31,0.19,0.92
0.3,0.18,0.92
0.3,0.18,0.92
0.31,0.17,0.92
0.33,0.17,0.91
0.34,0.17,0.92
0.34,0.16,0.92
0.35,0.16,0.93
0.35,0.16,0.95
0.35,0.16,0.96
0.35,0.16,0.97
0.35,0.16,0.96
0.35,0.16,0.95
0.35,0.17,0.94
0.35,0.18,0.93
0.34,0.18,0.92
0.35,0.18,0.92
0.37,0.18,0.92
0.38,0.18,0.92
0.38,0.19,0.91
0.38,0.2,0.92
0.36,0.2,0.93
0.34,0.2,0.93
0.34,0.2,0.92
0.34,0.2,0.92
0.35,0.19,0.92
0.35,0.18,0.92
0.36,0.18,0.91
0.35,0.18,0.91
0.35,0.18,0.91
0.35,0.17,0.91
0.35,0.18,0.92
0.35,0.18,0.92
0.34,0.18,0.92
0.34,0.18,0.92
0.34,0.18,0.92
0.35,0.18,0.91
0.36,0.18,0.91
0.36,0.18,0.92
0.36,0.19,0.92
0.37,0.19,0.93
0.37,0.19,0.93
0.37,0.19,0.93
0.37,0.18,0.92
0.37,0.18,0.92
0.36,0.18,0.91
0.37,0.18,0.91
0.37,0.18,0.91
0.36,0.17,0.91
0.36,0.18,0.92
0.36,0.19,0.93
0.36,0.18,0.93
0.36,0.18,0.92
0.35,0.18,0.92
0.36,0.18,0.91
0.37,0.18,0.91
0.38,0.18,0.9
0.38,0.17,0.9
0.38,0.17,0.9
0.38,0.17,0.91
0.38,0.17,0.92
0.38,0.17,0.92
0.38,0.17,0.93
0.37,0.17,0.92
0.36,0.17,0.91
0.36,0.17,0.91
0.36,0.18,0.91
0.37,0.18,0.91
0.37,0.18,0.91
0.37,0.18,0.92
0.37,0.19,0.92
0.37,0.18,0.91
0.37,0.16,0.9
0.38,0.17,0.91
0.38,0.17,0.92
0.39,0.16,0.94
0.39,0.17,0.93
0.38,0.17,0.93
0.38,0.17,0.92
0.38,0.16,0.91
0.37,0.16,0.91
0.35,0.15,0.91
0.35,0.15,0.92
0.34,0.15,0.92
0.32,0.15,0.93
0.33,0.16,0.93
0.35,0.16,0.94
0.36,0.16,0.94
0.37,0.16,0.93
0.37,0.16,0.92
0.36,0.16,0.91
0.35,0.16,0.92
0.34,0.16,0.92
0.33,0.16,0.92
0.31,0.16,0.93
0.3,0.15,0.94
0.31,0.15,0.93
0.33,0.15,0.92
0.34,0.15,0.92
0.35,0.16,0.92
0.35,0.15,0.93
0.35,0.16,0.93
0.35,0.16,0.93
0.34,0.16,0.94
0.33,0.17,0.94
0.33,0.17,0.94
0.34,0.17,0.93
0.32,0.17,0.94
0.32,0.17,0.93
0.34,0.17,0.92
0.34,0.17,0.91
0.34,0.16,0.92
0.34,0.16,0.92
0.34,0.16,0.92
0.34,0.16,0.93
0.33,0.16,0.94
0.32,0.16,0.94
0.33,0.17,0.95
0.34,0.17,0.94
0.34,0.18,0.92
0.34,0.18,0.92
0.34,0.17,0.94
0.34,0.17,0.94
0.34,0.17,0.93
0.33,0.17,0.93
0.33,0.17,0.93
0.32,0.17,0.93
0.31,0.17,0.92
0.31,0.17,0.92
0.33,0.16,0.92
0.35,0.16,0.92
0.34,0.17,0.92
0.34,0.17,0.92
0.33,0.17,0.93
0.31,0.18,0.94
0.31,0.17,0.94
0.31,0.17,0.94
0.31,0.18,0.94
0.31,0.18,0.94
0.31,0.18,0.94
0.32,0.18,0.94
0.31,0.19,0.95
0.3,0.19,0.95
0.31,0.18,0.95
0.32,0.18,0.96
0.34,0.18,0.95
0.36,0.18,0.94
0.38,0.18,0.94
0.37,0.19,0.94
0.36,0.21,0.94
0.33,0.22,0.95
0.34,0.23,0.94
0.34,0.24,0.94
0.31,0.24,0.95
0.28,0.23,0.95
0.25,0.23,0.95
0.21,0.21,0.95
0.17,0.21,0.93
0.13,0.21,0.9
0.12,0.2,0.9
0.13,0.2,0.92
0.12,0.19,0.95
0.1,0.17,0.98
0.1,0.17,1
0.11,0.16,1.02
0.14,0.15,1.02
0.2,0.14,1
0.23,0.13,0.98
0.25,0.13,0.99
0.25,0.14,0.97
0.24,0.15,0.97
0.22,0.15,0.99
0.21,0.15,1.01
0.22,0.15,1.03
0.24,0.16,1.05
0.26,0.17,1.07
0.28,0.18,1.07
0.29,0.19,1.04
0.31,0.19,1.01
0.33,0.19,0.98
0.36,0.2,0.97
0.39,0.21,0.97
0.41,0.22,0.95
0.42,0.24,0.94
0.42,0.26,0.93
0.44,0.27,0.93
0.46,0.28,0.93
0.46,0.29,0.92
0.48,0.3,0.9
0.51,0.31,0.86
0.55,0.32,0.82
0.58,0.32,0.8
0.62,0.33,0.77
0.66,0.34,0.72
0.69,0.35,0.69
0.7,0.36,0.67
0.73,0.38,0.64
0.74,0.4,0.61
0.73,0.41,0.58
0.72,0.42,0.55
0.72,0.44,0.51
0.73,0.46,0.48
0.74,0.47,0.44
0.75,0.49,0.42
0.77,0.51,0.38
0.81,0.51,0.34
0.83,0.53,0.31
0.86,0.54,0.27
0.88,0.54,0.26
0.84,0.55,0.25
0.81,0.55,0.26
0.8,0.54,0.25
0.79,0.56,0.22
0.81,0.57,0.17
0.84,0.58,0.15
0.85,0.57,0.14
0.84,0.58,0.12
0.83,0.59,0.11
0.82,0.59,0.12
0.81,0.59,0.12
0.81,0.58,0.12
0.81,0.58,0.13
0.79,0.58,0.13
0.77,0.59,0.11
0.77,0.59,0.1
0.78,0.58,0.09
0.77,0.59,0.09
0.78,0.58,0.08
0.8,0.58,0.06
0.78,0.6,0.06
0.76,0.61,0.04
0.78,0.61,0.04
0.8,0.6,0.04
0.81,0.59,0.04
0.82,0.6,0.05
0.81,0.6,0.06
0.79,0.6,0.07
0.79,0.6,0.06
0.79,0.6,0.04
0.79,0.61,0.03
0.79,0.6,0.03
0.79,0.59,0.03
0.79,0.6,0.04
0.8,0.61,0.04
0.81,0.61,0.04
0.8,0.62,0.05
0.79,0.62,0.06
0.78,0.61,0.05
0.77,0.6,0.05
0.75,0.61,0.06
0.74,0.62,0.07
0.73,0.63,0.06
0.72,0.63,0.06
0.73,0.63,0.04
0.73,0.65,0.03
0.71,0.68,0.01
0.66,0.66,0.01
0.68,0.64,0.02
0.68,0.66,0.01
0.67,0.66,0.02
0.67,0.68,0.03
0.64,0.69,0.03
0.59,0.69,0.02
0.59,0.7,0.02
0.59,0.71,0.02
0.59,0.71,-0.01
0.59,0.71,-0.02
0.6,0.71,-0.01
0.61,0.71,0.01
0.6,0.71,0.02
0.58,0.71,0.02
0.56,0.72,0.01
0.55,0.74,0.01
0.54,0.75,0.01
0.53,0.75,0
0.52,0.76,0
0.53,0.75,0
0.55,0.76,0.02
0.54,0.77,0.01
0.54,0.76,0.01
0.54,0.76,0.01
0.53,0.77,0.02
0.52,0.77,0.03
0.5,0.77,0.04
0.5,0.77,0.03
0.51,0.77,0.04
0.52,0.78,0.03
0.53,0.78,0.03
0.53,0.78,0.02
0.52,0.79,0.02
0.51,0.79,0.03
0.51,0.79,0.04
0.5,0.79,0.05
0.49,0.78,0.07
0.49,0.79,0.08
0.43,0.8,0.09
0.44,0.77,0.09
0.51,0.78,0.06
0.51,0.81,0.05
0.52,0.81,0.07
0.51,0.82,0.08
0.51,0.82,0.08
0.5,0.82,0.08
0.5,0.83,0.08
0.5,0.83,0.07
0.49,0.82,0.07
0.5,0.82,0.08
0.51,0.82,0.08
0.52,0.83,0.09
0.52,0.84,0.08
0.53,0.83,0.08
0.52,0.82,0.07
0.51,0.82,0.07
0.51,0.81,0.07
0.51,0.82,0.07
0.5,0.82,0.08
0.51,0.82,0.08
0.52,0.82,0.08
0.52,0.81,0.08
0.52,0.8,0.08
0.52,0.8,0.08
0.52,0.8,0.08
0.52,0.8,0.08
0.52,0.81,0.09
0.53,0.81,0.08
0.53,0.81,0.08
0.53,0.81,0.07
0.53,0.81,0.07
0.53,0.82,0.06
0.53,0.82,0.07
0.53,0.81,0.07
0.53,0.81,0.08
0.53,0.81,0.08
0.53,0.81,0.08
0.53,0.81,0.08
0.53,0.82,0.08
0.52,0.82,0.08
0.51,0.82,0.08
0.51,0.82,0.08
0.52,0.82,0.08
0.52,0.82,0.08
0.52,0.82,0.08
0.53,0.82,0.07
0.53,0.83,0.07
0.52,0.83,0.07
0.51,0.83,0.08
0.51,0.83,0.08
0.52,0.83,0.08
0.53,0.83,0.08
0.52,0.83,0.07
0.52,0.83,0.07
0.53,0.82,0.08
0.53,0.83,0.08
0.53,0.83,0.08
0.53,0.83,0.08
0.52,0.83,0.07
0.52,0.83,0.08
0.52,0.83,0.08
0.52,0.83,0.09
0.51,0.83,0.08
0.51,0.83,0.08
0.52,0.83,0.07
0.53,0.82,0.07
0.53,0.82,0.07
0.53,0.82,0.08
0.53,0.82,0.09
0.52,0.82,0.09
0.52,0.82,0.09
0.51,0.82,0.09
0.51,0.83,0.08
0.52,0.84,0.07
0.52,0.84,0.07
0.53,0.83,0.07
0.52,0.83,0.07
0.51,0.83,0.08
0.51,0.83,0.08
0.52,0.83,0.08
0.52,0.83,0.08
0.53,0.83,0.07
0.53,0.82,0.06
0.53,0.82,0.07
0.53,0.82,0.08
0.53,0.82,0.09
0.52,0.82,0.09
0.52,0.82,0.09
0.52,0.82,0.08
0.52,0.82,0.07
0.53,0.82,0.07
0.52,0.82,0.08
0.53,0.81,0.08
0.53,0.81,0.09
0.53,0.81,0.1
0.54,0.82,0.1
0.53,0.82,0.09
0.54,0.82,0.09
0.54,0.81,0.08
0.54,0.81,0.09
0.54,0.8,0.09
0.54,0.8,0.1
0.54,0.8,0.11
0.54,0.8,0.11
0.54,0.8,0.11
0.56,0.79,0.11
0.57,0.78,0.11
0.58,0.77,0.12
0.6,0.76,0.12
0.61,0.75,0.13
0.63,0.74,0.14
0.64,0.73,0.16
0.64,0.71,0.17
0.65,0.68,0.18
0.65,0.65,0.2
0.66,0.63,0.23
0.66,0.6,0.24
0.65,0.59,0.24
0.65,0.59,0.25
0.66,0.6,0.24
0.64,0.6,0.24
0.62,0.6,0.24
0.6,0.6,0.24
0.58,0.59,0.25
0.56,0.59,0.26
0.56,0.6,0.28
0.57,0.61,0.29
0.58,0.6,0.29
0.59,0.6,0.28
0.61,0.59,0.27
0.61,0.58,0.27
0.61,0.58,0.29
0.6,0.58,0.31
0.53,0.58,0.34
0.48,0.58,0.36
0.47,0.58,0.36
0.48,0.58,0.37
0.5,0.58,0.36
0.53,0.57,0.35
0.55,0.57,0.35
0.57,0.55,0.34
0.59,0.54,0.34
0.61,0.54,0.36
0.61,0.56,0.39
0.6,0.62,0.42
0.59,0.68,0.43
0.58,0.71,0.43
0.57,0.72,0.43
0.56,0.71,0.42
0.55,0.69,0.42
0.56,0.68,0.43
0.56,0.66,0.46
0.56,0.66,0.5
0.55,0.68,0.53
0.56,0.71,0.55
0.58,0.73,0.56
0.6,0.74,0.56
0.6,0.73,0.55
0.57,0.72,0.54
0.56,0.71,0.55
0.56,0.71,0.57
0.55,0.71,0.59
0.55,0.72,0.61
0.54,0.73,0.63
0.53,0.71,0.64
0.53,0.69,0.64
0.54,0.67,0.66
0.55,0.67,0.67
0.56,0.68,0.69
0.55,0.69,0.7
0.5,0.7,0.71
0.46,0.69,0.72
0.42,0.67,0.73
0.36,0.66,0.75
0.32,0.64,0.75
0.34,0.62,0.73
0.31,0.6,0.74
0.29,0.58,0.75
0.3,0.56,0.76
0.28,0.55,0.78
0.27,0.54,0.77
0.26,0.52,0.77
0.24,0.5,0.78
0.23,0.48,0.79
0.22,0.45,0.76
0.19,0.42,0.77
0.17,0.42,0.85
0.2,0.41,0.88
0.23,0.4,0.91
0.23,0.39,0.92
0.23,0.38,0.93
0.22,0.36,0.93
0.22,0.34,0.92
0.23,0.31,0.92
0.24,0.3,0.92
0.26,0.3,0.93
0.27,0.3,0.94
0.27,0.28,0.94
0.29,0.25,0.95
0.32,0.22,0.95
0.31,0.2,0.97
0.29,0.19,1
0.34,0.16,1.06
0.45,0.19,1.12
0.39,0.26,1.11
0.23,0.25,1.11
0.18,0.23,1.13
0.23,0.26,1.13
0.3,0.26,1.11
0.33,0.27,1.1
0.31,0.29,1.08
0.27,0.29,1.05
0.25,0.29,1.02
0.22,0.29,0.99
0.2,0.29,0.95
0.18,0.29,0.94
0.15,0.28,0.96
0.14,0.27,0.99
0.14,0.25,0.99
0.15,0.19,0.96
0.25,0.19,0.94
0.26,0.2,0.93
0.21,0.21,0.92
0.21,0.2,0.92
0.22,0.2,0.91
0.24,0.2,0.92
0.25,0.2,0.93
0.26,0.2,0.95
0.26,0.2,0.96
0.26,0.2,0.97
0.27,0.2,0.98
0.27,0.2,0.98
0.27,0.2,0.97
0.28,0.21,0.96
0.29,0.21,0.95
0.3,0.21,0.93
0.3,0.21,0.92
0.3,0.22,0.92
0.29,0.22,0.92
0.3,0.22,0.92
0.3,0.22,0.93
0.32,0.23,0.94
0.32,0.23,0.94
0.32,0.23,0.94
0.32,0.23,0.94
0.32,0.24,0.93
0.32,0.23,0.93
0.32,0.23,0.93
0.32,0.22,0.94
0.32,0.21,0.93
0.31,0.22,0.93
0.3,0.22,0.94
0.28,0.22,0.94
0.27,0.22,0.94
0.27,0.22,0.94
0.27,0.22,0.94
0.28,0.21,0.93
0.29,0.21,0.94
0.29,0.21,0.94
0.29,0.21,0.93
0.29,0.21,0.93
0.29,0.21,0.93
0.29,0.22,0.94
0.28,0.22,0.93
0.28,0.23,0.93
0.28,0.23,0.93
0.28,0.23,0.93
0.28,0.22,0.93
0.28,0.22,0.93
0.29,0.22,0.94
0.29,0.22,0.94
0.29,0.22,0.94
0.28,0.22,0.94
0.28,0.22,0.94
0.29,0.22,0.93
0.28,0.22,0.93
0.28,0.22,0.93
0.28,0.22,0.94
0.28,0.22,0.93
0.28,0.21,0.93
0.27,0.21,0.94
0.27,0.21,0.93
0.28,0.21,0.94
0.28,0.21,0.94
0.29,0.21,0.94
0.29,0.22,0.94
0.29,0.22,0.94
0.28,0.22,0.94
0.28,0.22,0.93
0.28,0.22,0.93
0.28,0.22,0.93
0.28,0.22,0.93
0.28,0.22,0.93
0.28,0.22,0.94
0.29,0.22,0.94
0.29,0.22,0.94
0.29,0.22,0.94
0.28,0.22,0.93
0.27,0.22,0.93
0.27,0.21,0.93
0.27,0.21,0.93
0.27,0.21,0.93
0.28,0.21,0.93
0.28,0.21,0.93
0.28,0.21,0.94
0.28,0.21,0.93
0.28,0.21,0.93
0.28,0.21,0.93
0.28,0.21,0.93
0.28,0.21,0.93
0.29,0.22,0.94
0.29,0.22,0.94
0.28,0.22,0.94
0.28,0.22,0.94
0.28,0.22,0.94
0.28,0.22,0.94
0.28,0.22,0.94
0.28,0.22,0.94
0.28,0.22,0.94
0.28,0.22,0.94
0.29,0.22,0.93
0.29,0.22,0.93
0.29,0.22,0.93
0.29,0.21,0.93
0.29,0.21,0.93
0.28,0.21,0.93
0.28,0.22,0.94
0.28,0.22,0.94
0.28,0.22,0.93
0.28,0.21,0.93
0.28,0.21,0.93
0.28,0.21,0.93
0.29,0.2,0.93
0.29,0.21,0.93
0.29,0.21,0.93
0.29,0.21,0.93
0.29,0.21,0.94
0.29,0.21,0.94
0.28,0.22,0.93
0.28,0.22,0.93
0.28,0.22,0.93
0.28,0.21,0.93
0.28,0.21,0.94
0.29,0.21,0.94
0.29,0.21,0.94
0.29,0.21,0.94
0.28,0.21,0.93
0.28,0.21,0.93
0.28,0.21,0.93
0.28,0.22,0.93
0.29,0.22,0.94
0.29,0.22,0.94
0.29,0.21,0.93
0.28,0.21,0.94
0.28,0.21,0.93
0.27,0.21,0.93
0.27,0.21,0.93
0.28,0.21,0.93
0.28,0.21,0.93
0.29,0.21,0.94
0.29,0.22,0.94
0.29,0.22,0.94
0.29,0.22,0.93
0.28,0.22,0.93
0.27,0.21,0.94
0.27,0.21,0.93
0.27,0.21,0.93
0.28,0.21,0.93
0.28,0.21,0.93
0.28,0.21,0.93
0.28,0.21,0.93
0.28,0.21,0.93
0.28,0.21,0.94
0.28,0.21,0.94
0.29,0.21,0.94
0.29,0.21,0.93
0.28,0.22,0.93
0.28,0.21,0.94
0.28,0.21,0.94
0.28,0.21,0.94
0.28,0.21,0.93
0.28,0.21,0.93
0.29,0.21,0.93
0.29,0.21,0.94
0.29,0.21,0.94
0.28,0.21,0.94
0.28,0.21,0.93
0.27,0.21,0.93
0.28,0.21,0.93
0.28,0.21,0.93
0.28,0.21,0.93
0.29,0.21,0.94
0.29,0.21,0.95
0.28,0.22,0.94
0.28,0.22,0.93
0.27,0.21,0.93
0.27,0.21,0.93
0.28,0.21,0.94
0.28,0.22,0.94
0.28,0.22,0.95
0.29,0.22,0.95
0.29,0.22,0.95
0.28,0.22,0.95
0.28,0.22,0.95
0.28,0.22,0.95
0.28,0.23,0.95
0.27,0.23,0.95
0.27,0.22,0.95
0.26,0.22,0.95
0.25,0.23,0.96
0.24,0.23,0.96
0.23,0.23,0.96
0.24,0.23,0.96
0.26,0.23,0.96
0.28,0.24,0.97
0.29,0.24,0.97
0.31,0.24,0.97
0.33,0.24,0.98
0.33,0.24,0.97
0.34,0.25,0.94
0.32,0.25,0.92
0.29,0.25,0.92
0.26,0.24,0.92
0.24,0.24,0.91
0.22,0.22,0.92
0.23,0.22,0.93
0.21,0.23,0.93
0.18,0.23,0.94
0.15,0.22,0.94
0.13,0.21,0.94
0.11,0.21,0.93
0.1,0.2,0.92
0.1,0.2,0.93
0.11,0.2,0.94
0.13,0.2,0.94
0.15,0.2,0.94
0.17,0.21,0.94
0.18,0.21,0.95
0.17,0.22,0.96
0.16,0.22,0.97
0.16,0.22,0.97
0.15,0.22,0.98
0.15,0.22,0.98
0.16,0.22,0.98
0.18,0.22,0.97
0.18,0.22,0.96
0.18,0.21,0.97
0.18,0.22,0.98
0.19,0.21,0.98
0.22,0.21,0.98
0.26,0.22,0.98
0.28,0.22,0.98
0.28,0.23,0.99
0.28,0.24,0.98
0.27,0.24,0.97
0.28,0.24,0.95
0.29,0.25,0.93
0.31,0.26,0.92
0.31,0.26,0.93
0.32,0.27,0.94
0.32,0.27,0.95
0.32,0.27,0.95
0.32,0.27,0.96
0.34,0.27,0.96
0.35,0.28,0.95
0.35,0.29,0.94
0.35,0.29,0.93
0.35,0.29,0.93
0.36,0.3,0.93
0.39,0.3,0.93
0.39,0.31,0.92
0.39,0.31,0.93
0.39,0.32,0.92
0.39,0.33,0.91
0.41,0.33,0.89
0.42,0.33,0.86
0.47,0.33,0.84
0.53,0.34,0.81
0.57,0.36,0.78
0.62,0.37,0.75
0.61,0.38,0.76
0.56,0.39,0.78
0.53,0.38,0.79
0.54,0.39,0.76
0.54,0.4,0.72
0.54,0.4,0.69
0.58,0.41,0.66
0.62,0.41,0.63
0.64,0.42,0.62
0.65,0.43,0.61
0.68,0.45,0.58
0.7,0.46,0.55
0.71,0.49,0.53
0.7,0.5,0.49
0.7,0.51,0.46
0.74,0.53,0.45
0.76,0.54,0.44
0.75,0.54,0.42
0.73,0.54,0.4
0.73,0.55,0.37
0.74,0.58,0.33
0.75,0.59,0.3
0.75,0.6,0.29
0.76,0.61,0.28
0.76,0.62,0.28
0.77,0.62,0.27
0.76,0.61,0.27
0.76,0.6,0.25
0.76,0.6,0.22
0.74,0.61,0.2
0.72,0.62,0.18
0.75,0.62,0.17
0.76,0.61,0.2
0.75,0.62,0.21
0.76,0.65,0.18
0.75,0.65,0.18
0.75,0.66,0.17
0.75,0.67,0.14
0.78,0.66,0.12
0.81,0.65,0.11
0.81,0.64,0.11
0.82,0.63,0.11
0.82,0.63,0.14
0.81,0.64,0.16
0.8,0.65,0.15
0.79,0.65,0.15
0.8,0.65,0.14
0.8,0.65,0.13
0.78,0.65,0.13
0.77,0.66,0.14
0.77,0.66,0.14
0.76,0.65,0.15
0.75,0.66,0.17
0.77,0.65,0.18
0.78,0.63,0.15
0.78,0.63,0.13
0.8,0.63,0.1
0.82,0.63,0.08
0.81,0.61,0.06
0.78,0.63,0.07
0.77,0.63,0.08
0.75,0.62,0.08
0.69,0.63,0.05
0.71,0.62,0.03
0.74,0.61,0.05
0.75,0.63,0.04
0.76,0.63,0.04
0.78,0.64,0.01
0.77,0.65,-0.02
0.72,0.66,-0.02
0.69,0.68,-0.01
0.68,0.68,0.01
0.67,0.68,0.02
0.66,0.68,0.02
0.64,0.69,0.02
0.63,0.7,0.01
0.63,0.71,0
0.63,0.7,0
0.64,0.71,-0.01
0.64,0.7,-0.01
0.62,0.72,-0.01
0.6,0.73,0.01
0.58,0.73,0.01
0.57,0.74,0.02
0.56,0.75,0.02
0.56,0.74,0.03
0.55,0.74,0.01
0.56,0.74,0
0.53,0.74,0
0.51,0.75,0
0.5,0.76,0.01
0.5,0.78,0.02
0.5,0.79,0.02
0.51,0.77,0.02
0.51,0.76,0.02
0.52,0.76,0.02
0.51,0.77,0.03
0.49,0.78,0.03
0.48,0.78,0.03
0.47,0.79,0.02
0.46,0.79,0.02
0.47,0.78,0.02
0.48,0.77,0.04
0.48,0.78,0.05
0.47,0.78,0.07
0.46,0.79,0.07
0.47,0.79,0.06
0.47,0.8,0.05
0.48,0.8,0.04
0.47,0.8,0.03
0.46,0.8,0.03
0.46,0.8,0.04
0.45,0.81,0.06
0.45,0.82,0.07
0.45,0.82,0.06
0.45,0.82,0.05
0.45,0.82,0.05
0.44,0.82,0.04
0.45,0.82,0.04
0.47,0.83,0.03
0.48,0.83,0.02
0.49,0.83,0.02
0.48,0.83,0.02
0.49,0.83,0.02
0.48,0.83,0.03
0.48,0.83,0.03
0.49,0.83,0.03
0.5,0.84,0.02
0.5,0.84,0.02
0.5,0.84,0.01
0.48,0.84,0.01
0.47,0.85,0.01
0.48,0.86,0.01
0.49,0.86,0.01
0.49,0.86,0
0.5,0.85,0
0.5,0.85,0.01
0.5,0.85,0.02
0.49,0.85,0.02
0.49,0.86,0.02
0.49,0.86,0.01
0.49,0.86,0.01
0.49,0.86,0
0.49,0.86,0
0.49,0.85,0.01
0.49,0.85,0.01
0.49,0.85,0.01
0.49,0.85,0.01
0.49,0.86,0.01
0.49,0.86,0
0.48,0.86,-0.01
0.48,0.86,0
0.48,0.85,0
0.48,0.84,0
0.48,0.84,0.01
0.48,0.84,0.01
0.48,0.84,0
0.48,0.83,0
0.47,0.83,0
0.47,0.82,0
0.48,0.83,0
0.49,0.84,0
0.5,0.84,0
0.51,0.85,-0.01
0.5,0.85,-0.02
0.5,0.86,-0.03
0.5,0.86,-0.02
0.49,0.86,-0.02
0.48,0.86,-0.01
0.48,0.87,0.01
0.48,0.87,0.01
0.48,0.87,0.01
0.47,0.86,0.01
0.47,0.87,0.01
0.48,0.87,0.02
0.48,0.86,0.02
0.48,0.86,0.03
0.48,0.86,0.03
0.47,0.85,0.02
0.46,0.85,0.02
0.47,0.85,0.01
0.47,0.85,0.01
0.48,0.84,0.01
0.49,0.84,0.01
0.49,0.84,0.01
0.49,0.84,0.02
0.48,0.83,0.03
0.48,0.83,0.02
0.48,0.83,0.02
0.48,0.84,0.01
0.48,0.84,0.01
0.48,0.84,0.01
0.48,0.84,0.01
0.49,0.85,0.01
0.49,0.85,0.01
0.49,0.86,0.01
0.48,0.86,0.01
0.49,0.86,0.01
0.49,0.86,0.01
0.49,0.85,0.01
0.49,0.85,0.01
0.49,0.85,0.01
0.49,0.85,0.01
0.49,0.85,0.01
0.49,0.85,0.01
0.5,0.86,0
0.5,0.85,0
0.51,0.85,0
0.51,0.85,0
0.5,0.84,0.01
0.5,0.85,0.02
0.49,0.85,0.02
0.49,0.85,0.02
0.49,0.84,0.01
0.49,0.84,0.01
0.49,0.83,0.01
0.49,0.83,0.03
0.5,0.83,0.03
0.49,0.84,0.03
0.48,0.84,0.03
0.49,0.84,0.03
0.49,0.84,0.03
0.49,0.84,0.03
0.49,0.84,0.03
0.48,0.84,0.03
0.47,0.85,0.03
0.46,0.85,0.02
0.47,0.85,0.02
0.48,0.84,0.01
0.49,0.84,0.02
0.5,0.84,0.02
0.5,0.84,0.02
0.5,0.84,0.03
0.5,0.85,0.02
0.49,0.85,0.01
0.5,0.84,0.01
0.5,0.84,0.01
0.5,0.83,0.02
0.51,0.83,0.02
0.51,0.83,0.03
0.52,0.82,0.04
0.52,0.81,0.04
0.53,0.8,0.04
0.53,0.79,0.05
0.54,0.78,0.05
0.55,0.77,0.07
0.55,0.75,0.08
0.57,0.73,0.1
0.59,0.71,0.12
0.6,0.7,0.13
0.62,0.69,0.14
0.63,0.68,0.15
0.62,0.68,0.15
0.59,0.69,0.15
0.57,0.69,0.15
0.56,0.69,0.14
0.56,0.68,0.14
0.56,0.67,0.14
0.56,0.66,0.16
0.56,0.65,0.19
0.56,0.68,0.2
0.59,0.7,0.19
0.62,0.7,0.17
0.64,0.68,0.15
0.66,0.66,0.14
0.66,0.64,0.14
0.66,0.62,0.15
0.64,0.64,0.16
0.62,0.66,0.18
0.61,0.68,0.2
0.59,0.7,0.2
0.59,0.7,0.19
0.59,0.68,0.18
0.61,0.65,0.17
0.63,0.62,0.17
0.65,0.6,0.19
0.68,0.62,0.21
0.7,0.65,0.23
0.7,0.67,0.24
0.7,0.68,0.23
0.69,0.67,0.21
0.7,0.64,0.2
0.71,0.62,0.2
0.71,0.63,0.23
0.67,0.66,0.26
0.65,0.7,0.29
0.63,0.71,0.3
0.62,0.7,0.3
0.63,0.68,0.29
0.66,0.65,0.29
0.68,0.64,0.29
0.71,0.64,0.29
0.72,0.64,0.3
0.72,0.65,0.33
0.72,0.66,0.35
0.7,0.67,0.36
0.69,0.68,0.38
0.69,0.68,0.39
0.68,0.68,0.39
0.68,0.67,0.38
0.69,0.67,0.39
0.69,0.67,0.4
0.69,0.67,0.41
0.66,0.67,0.44
0.63,0.67,0.46
0.58,0.67,0.48
0.56,0.67,0.49
0.57,0.67,0.51
0.56,0.67,0.5
0.55,0.65,0.48
0.56,0.64,0.47
0.57,0.62,0.47
0.57,0.61,0.49
0.56,0.61,0.51
0.56,0.61,0.53
0.56,0.6,0.56
0.56,0.61,0.57
0.53,0.62,0.6
0.51,0.63,0.62
0.48,0.62,0.64
0.45,0.61,0.65
0.43,0.6,0.66
0.41,0.59,0.67
0.39,0.58,0.66
0.41,0.57,0.67
0.41,0.57,0.69
0.41,0.55,0.7
0.41,0.53,0.72
0.41,0.52,0.74
0.38,0.51,0.76
0.37,0.49,0.77
0.36,0.47,0.77
0.33,0.44,0.77
0.34,0.43,0.78
0.36,0.41,0.79
0.39,0.38,0.82
0.42,0.37,0.84
0.41,0.35,0.87
0.37,0.34,0.9
0.33,0.34,0.93
0.31,0.33,0.96
0.29,0.32,0.97
0.29,0.31,0.98
0.28,0.3,0.97
0.28,0.29,0.96
0.28,0.28,0.95
0.27,0.27,0.98
0.27,0.26,0.98
0.37,0.23,1.02
0.54,0.23,1.1
0.54,0.28,1.13
0.32,0.3,1.11
0.17,0.29,1.13
0.18,0.31,1.13
0.22,0.32,1.09
0.25,0.31,1.06
0.28,0.3,1.02
0.29,0.31,0.98
0.3,0.31,0.96
0.3,0.29,0.93
0.3,0.29,0.92
0.27,0.3,0.92
0.23,0.29,0.92
0.2,0.27,0.92
0.19,0.27,0.93
0.17,0.28,0.93
0.15,0.27,0.95
0.18,0.23,0.96
0.23,0.17,0.94
0.27,0.16,0.92
0.26,0.21,0.94
0.2,0.24,0.95
0.21,0.22,0.9
0.23,0.2,0.89
0.22,0.21,0.89
0.23,0.21,0.9
0.24,0.2,0.91
0.25,0.21,0.94
0.26,0.21,0.95
0.27,0.21,0.95
0.29,0.22,0.95
0.31,0.23,0.94
0.33,0.23,0.95
0.34,0.24,0.95
0.34,0.25,0.95
0.34,0.25,0.96
0.33,0.25,0.96
0.32,0.25,0.96
0.32,0.25,0.95
0.31,0.25,0.94
0.31,0.24,0.93
0.31,0.24,0.93
0.32,0.23,0.92
0.33,0.22,0.91
0.34,0.22,0.91
0.35,0.21,0.91
0.36,0.22,0.91
0.35,0.22,0.91
0.34,0.22,0.91
0.34,0.22,0.91
0.35,0.22,0.91
0.35,0.22,0.91
0.35,0.22,0.92
0.36,0.22,0.92
0.37,0.22,0.93
0.38,0.22,0.92
0.37,0.22,0.91
0.37,0.22,0.9
0.37,0.23,0.9
0.35,0.22,0.91
0.35,0.22,0.91
0.35,0.22,0.91
0.36,0.22,0.91
0.37,0.22,0.92
0.37,0.23,0.91
0.37,0.23,0.92
0.37,0.23,0.91
0.37,0.23,0.91
0.37,0.22,0.91
0.36,0.22,0.91
0.36,0.22,0.91
0.36,0.22,0.9
0.36,0.22,0.9
0.36,0.22,0.9
0.36,0.21,0.9
0.36,0.21,0.9
0.37,0.21,0.91
0.37,0.21,0.91
0.37,0.21,0.9
0.37,0.22,0.9
0.37,0.21,0.9
0.36,0.21,0.9
0.36,0.21,0.9
0.37,0.21,0.91
0.37,0.22,0.91
0.36,0.22,0.91
0.36,0.22,0.91
0.35,0.22,0.91
0.35,0.22,0.91
0.36,0.22,0.91
0.36,0.22,0.91
0.36,0.22,0.91
0.36,0.22,0.91
0.36,0.22,0.91
0.35,0.21,0.91
0.35,0.21,0.91
0.36,0.21,0.91
0.36,0.22,0.91
0.36,0.22,0.91
0.36,0.21,0.91
0.36,0.21,0.91
0.36,0.21,0.91
0.36,0.21,0.9
0.37,0.21,0.9
0.37,0.21,0.9
0.37,0.21,0.9
0.36,0.21,0.9
0.36,0.21,0.91
0.35,0.21,0.91
0.35,0.22,0.91
0.35,0.22,0.91
0.36,0.22,0.91
0.36,0.22,0.91
0.37,0.22,0.91
0.36,0.22,0.91
0.36,0.22,0.91
0.36,0.21,0.91
0.36,0.21,0.91
0.36,0.21,0.91
0.36,0.21,0.91
0.36,0.21,0.91
0.36,0.22,0.91
0.35,0.22,0.91
0.35,0.21,0.9
0.36,0.21,0.9
0.36,0.21,0.9
0.37,0.22,0.9
0.37,0.21,0.91
0.36,0.21,0.91
0.36,0.21,0.91
0.36,0.21,0.91
0.36,0.21,0.91
0.36,0.21,0.9
0.36,0.22,0.9
0.36,0.22,0.9
0.36,0.21,0.91
0.36,0.21,0.91
0.35,0.21,0.91
0.36,0.21,0.91
0.36,0.21,0.91
0.36,0.21,0.91
0.35,0.21,0.91
0.35,0.21,0.91
0.35,0.21,0.91
0.35,0.21,0.91
0.35,0.21,0.91
0.35,0.21,0.91
0.35,0.21,0.91
0.35,0.21,0.91
0.35,0.22,0.91
0.35,0.21,0.91
0.36,0.21,0.91
0.36,0.21,0.91
0.36,0.22,0.91
0.36,0.22,0.91
0.36,0.21,0.91
0.36,0.21,0.91
0.35,0.21,0.91
0.35,0.21,0.91
0.35,0.22,0.91
0.35,0.22,0.91
0.35,0.21,0.91
0.35,0.21,0.91
0.35,0.21,0.91
0.35,0.22,0.91
0.36,0.21,0.91
0.35,0.21,0.91
0.35,0.21,0.91
0.35,0.21,0.91
0.35,0.21,0.91
0.35,0.21,0.9
0.35,0.21,0.9
0.35,0.21,0.91
0.36,0.21,0.91
0.36,0.22,0.91
0.35,0.22,0.91
0.35,0.22,0.91
0.34,0.21,0.91
0.34,0.21,0.92
0.34,0.21,0.91
0.35,0.21,0.91
0.35,0.21,0.91
0.35,0.21,0.92
0.35,0.21,0.91
0.35,0.22,0.92
0.35,0.22,0.92
0.35,0.21,0.91
0.35,0.21,0.91
0.35,0.21,0.91
0.35,0.21,0.91
0.35,0.21,0.92
0.35,0.21,0.91
0.35,0.22,0.91
0.35,0.22,0.91
0.35,0.21,0.91
0.35,0.21,0.91
0.35,0.21,0.91
0.35,0.22,0.92
0.35,0.22,0.91
0.35,0.22,0.91
0.35,0.21,0.92
0.36,0.22,0.93
0.36,0.22,0.92
0.35,0.22,0.92
0.34,0.21,0.92
0.33,0.21,0.92
0.34,0.21,0.92
0.33,0.21,0.92
0.32,0.2,0.93
0.3,0.2,0.93
0.24,0.21,0.94
0.2,0.2,0.95
0.22,0.19,0.92
0.26,0.19,0.92
0.27,0.18,0.94
0.27,0.18,0.94
0.29,0.19,0.94
0.3,0.19,0.93
0.31,0.19,0.93
0.32,0.2,0.93
0.31,0.2,0.93
0.3,0.21,0.93
0.3,0.21,0.94
0.3,0.22,0.95
0.31,0.23,0.95
0.29,0.23,0.95
0.28,0.23,0.95
0.28,0.23,0.96
0.3,0.23,0.96
0.3,0.23,0.96
0.3,0.23,0.96
0.29,0.23,0.96
0.28,0.23,0.95
0.27,0.23,0.94
0.25,0.23,0.93
0.23,0.23,0.93
0.22,0.23,0.92
0.21,0.23,0.92
0.19,0.23,0.94
0.18,0.23,0.96
0.19,0.23,0.97
0.21,0.23,0.97
0.23,0.23,0.97
0.23,0.24,0.97
0.23,0.24,0.95
0.24,0.25,0.93
0.25,0.26,0.92
0.26,0.26,0.93
0.27,0.26,0.95
0.28,0.25,0.95
0.28,0.26,0.96
0.27,0.27,0.97
0.24,0.26,0.97
0.21,0.26,0.97
0.19,0.26,0.97
0.19,0.27,0.96
0.16,0.26,0.94
0.13,0.26,0.93
0.09,0.25,0.92
0.09,0.24,0.93
0.09,0.23,0.95
0.09,0.22,0.96
0.08,0.21,0.97
0.08,0.2,0.98
0.08,0.18,0.98
0.1,0.17,0.98
0.13,0.18,0.99
0.16,0.18,1.01
0.19,0.18,1.01
0.2,0.19,1.01
0.19,0.19,1.02
0.18,0.19,1.02
0.2,0.19,1.02
0.22,0.19,1.03
0.23,0.2,1.03
0.24,0.21,1.04
0.24,0.22,1.03
0.25,0.23,1.01
0.27,0.25,1
0.32,0.25,0.97
0.36,0.26,0.94
0.39,0.27,0.93
0.4,0.28,0.93
0.39,0.3,0.91
0.37,0.31,0.9
0.35,0.33,0.88
0.33,0.34,0.88
0.34,0.35,0.89
0.35,0.36,0.89
0.38,0.38,0.87
0.4,0.39,0.84
0.41,0.39,0.82
0.43,0.4,0.79
0.45,0.41,0.77
0.46,0.42,0.76
0.48,0.44,0.75
0.49,0.44,0.74
0.47,0.44,0.74
0.48,0.44,0.74
0.5,0.44,0.72
0.51,0.43,0.65
0.54,0.44,0.6
0.63,0.45,0.56
0.66,0.45,0.54
0.67,0.45,0.54
0.67,0.47,0.55
0.66,0.47,0.56
0.66,0.47,0.55
0.67,0.48,0.51
0.7,0.49,0.48
0.72,0.5,0.46
0.73,0.49,0.45
0.74,0.48,0.45
0.75,0.5,0.44
0.76,0.51,0.4
0.78,0.52,0.37
0.79,0.53,0.35
0.8,0.53,0.34
0.86,0.54,0.32
0.9,0.55,0.31
0.88,0.54,0.33
0.87,0.55,0.31
0.87,0.54,0.28
0.88,0.53,0.26
0.88,0.54,0.24
0.88,0.55,0.22
0.89,0.55,0.22
0.88,0.55,0.22
0.86,0.56,0.21
0.89,0.56,0.2
0.93,0.55,0.2
0.9,0.55,0.2
0.9,0.55,0.21
0.93,0.55,0.22
0.92,0.57,0.22
0.9,0.57,0.2
0.9,0.57,0.17
0.89,0.57,0.15
0.89,0.58,0.14
0.86,0.59,0.13
0.88,0.58,0.13
0.9,0.58,0.15
0.87,0.59,0.17
0.86,0.59,0.16
0.85,0.59,0.17
0.81,0.59,0.18
0.82,0.6,0.17
0.8,0.6,0.15
0.77,0.59,0.16
0.75,0.59,0.14
0.75,0.59,0.11
0.71,0.62,0.1
0.71,0.61,0.12
0.76,0.61,0.16
0.73,0.63,0.15
0.73,0.61,0.14
0.72,0.7,0.12
0.67,0.7,0.11
0.61,0.62,0.08
0.6,0.66,0.07
0.65,0.61,0.11
0.68,0.61,0.09
0.66,0.69,0.06
0.64,0.73,0.05
0.65,0.65,0.05
0.63,0.62,0.03
0.64,0.65,-0.01
0.66,0.59,0
0.65,0.61,0.04
0.66,0.68,0.05
0.65,0.69,0.07
0.64,0.69,0.06
0.62,0.68,0.03
0.6,0.66,0.02
0.61,0.66,0.01
0.62,0.68,0
0.61,0.69,0
0.62,0.71,0
0.62,0.74,-0.01
0.61,0.74,-0.02
0.6,0.7,-0.01
0.6,0.7,0
0.59,0.72,-0.01
0.59,0.73,-0.02
0.6,0.73,-0.02
0.61,0.72,-0.03
0.61,0.73,-0.04
0.6,0.73,-0.04
0.6,0.74,-0.04
0.59,0.71,-0.03
0.56,0.72,-0.02
0.54,0.74,-0.01
0.55,0.75,-0.02
0.56,0.75,-0.03
0.58,0.77,-0.04
0.58,0.75,-0.05
0.57,0.73,-0.05
0.57,0.73,-0.04
0.58,0.72,-0.02
0.57,0.75,-0.01
0.56,0.76,0
0.55,0.74,-0.02
0.54,0.73,-0.03
0.55,0.73,-0.02
0.57,0.73,-0.01
0.56,0.74,-0.01
0.57,0.75,-0.01
0.57,0.76,-0.01
0.56,0.74,-0.02
0.56,0.74,-0.03
0.57,0.76,-0.02
0.57,0.76,0
0.57,0.76,0.01
0.55,0.76,0.01
0.56,0.77,0.01
0.56,0.77,0
0.56,0.77,-0.01
0.56,0.78,-0.01
0.57,0.78,0
0.57,0.77,0
0.57,0.79,0.01
0.58,0.79,0.02
0.57,0.79,0.02
0.56,0.79,0.01
0.57,0.8,0.01
0.57,0.8,0.01
0.57,0.8,0
0.57,0.79,0
0.57,0.79,0
0.57,0.79,0
0.57,0.8,0
0.57,0.8,-0.01
0.57,0.81,-0.01
0.57,0.8,-0.02
0.57,0.8,-0.01
0.57,0.79,-0.01
0.57,0.79,0
0.57,0.79,0
0.56,0.8,0
0.56,0.8,-0.01
0.57,0.8,-0.01
0.57,0.8,-0.02
0.56,0.8,-0.02
0.55,0.8,-0.02
0.55,0.81,-0.01
0.55,0.81,-0.01
0.55,0.81,-0.01
0.55,0.81,-0.01
0.55,0.81,-0.01
0.55,0.81,-0.01
0.55,0.8,-0.01
0.55,0.8,-0.01
0.54,0.8,-0.01
0.54,0.81,-0.01
0.55,0.81,-0.01
0.55,0.82,-0.02
0.55,0.81,-0.02
0.55,0.81,-0.01
0.55,0.81,-0.01
0.56,0.8,-0.01
0.55,0.8,-0.01
0.55,0.8,-0.01
0.55,0.8,-0.01
0.54,0.81,-0.01
0.53,0.81,0
0.54,0.81,-0.01
0.56,0.81,-0.01
0.56,0.8,-0.01
0.56,0.8,-0.02
0.55,0.8,-0.02
0.55,0.81,-0.02
0.55,0.81,-0.02
0.55,0.81,-0.02
0.55,0.81,-0.01
0.55,0.8,-0.01
0.55,0.8,-0.01
0.55,0.81,-0.01
0.56,0.8,-0.01
0.56,0.8,-0.01
0.56,0.8,-0.01
0.56,0.81,-0.01
0.56,0.81,-0.01
0.56,0.81,-0.01
0.56,0.81,0
0.56,0.8,0
0.55,0.8,0
0.55,0.8,0
0.54,0.81,0
0.54,0.81,0.01
0.55,0.82,0
0.56,0.81,0
0.57,0.81,-0.01
0.56,0.81,-0.01
0.56,0.81,-0.01
0.56,0.81,-0.01
0.56,0.81,-0.01
0.55,0.8,-0.01
0.55,0.8,0
0.55,0.8,0
0.55,0.8,0
0.55,0.81,0
0.56,0.81,0
0.56,0.81,-0.01
0.56,0.81,-0.01
0.56,0.8,-0.02
0.55,0.8,-0.01
0.55,0.8,0
0.55,0.8,0
0.54,0.8,0
0.55,0.8,0
0.55,0.81,0
0.55,0.8,0
0.55,0.8,0
0.56,0.8,0
0.56,0.8,0.01
0.56,0.8,0.01
0.55,0.8,0.01
0.55,0.8,0
0.55,0.81,-0.01
0.55,0.81,-0.01
0.55,0.8,0
0.55,0.81,0
0.55,0.81,0
0.56,0.81,0
0.56,0.81,0
0.56,0.82,0
0.56,0.82,-0.01
0.56,0.82,-0.01
0.55,0.82,-0.01
0.55,0.81,-0.01
0.55,0.81,-0.01
0.55,0.8,0
0.55,0.8,0.01
0.56,0.79,0.01
0.57,0.8,0.01
0.56,0.8,0.01
0.56,0.79,0.01
0.56,0.79,0
0.56,0.79,0
0.56,0.78,0.01
0.56,0.78,0.02
0.56,0.78,0.02
0.56,0.78,0.02
0.56,0.79,0.02
0.56,0.79,0.02
0.56,0.78,0.02
0.56,0.78,0.02
0.56,0.78,0.02
0.56,0.77,0.02
0.56,0.77,0.02
0.56,0.78,0.02
0.56,0.79,0.02
0.57,0.79,0.01
0.58,0.79,0.01
0.59,0.78,0.01
0.59,0.77,0
0.58,0.76,0.01
0.57,0.76,0.02
0.57,0.75,0.04
0.56,0.75,0.05
0.57,0.74,0.06
0.57,0.72,0.06
0.57,0.69,0.06
0.58,0.68,0.07
0.59,0.68,0.07
0.59,0.69,0.08
0.59,0.69,0.08
0.6,0.67,0.08
0.61,0.66,0.09
0.61,0.65,0.1
0.6,0.65,0.11
0.59,0.67,0.12
0.58,0.71,0.11
0.57,0.73,0.08
0.57,0.73,0.05
0.58,0.73,0.03
0.59,0.72,0.03
0.6,0.71,0.04
0.61,0.71,0.05
0.63,0.71,0.07
0.64,0.71,0.09
0.65,0.71,0.11
0.66,0.71,0.12
0.66,0.7,0.12
0.67,0.68,0.11
0.67,0.67,0.1
0.69,0.66,0.08
0.7,0.65,0.07
0.71,0.64,0.06
0.72,0.64,0.08
0.72,0.65,0.1
0.72,0.65,0.11
0.72,0.64,0.13
0.73,0.64,0.14
0.73,0.62,0.15
0.72,0.63,0.15
0.7,0.64,0.15
0.69,0.64,0.14
0.69,0.64,0.13
0.71,0.65,0.11
0.72,0.62,0.09
0.73,0.6,0.07
0.77,0.58,0.07
0.8,0.59,0.11
0.78,0.62,0.16
0.74,0.65,0.19
0.72,0.64,0.2
0.69,0.66,0.19
0.69,0.61,0.18
0.69,0.59,0.19
0.71,0.62,0.2
0.76,0.65,0.2
0.79,0.62,0.2
0.78,0.6,0.2
0.78,0.59,0.22
0.8,0.59,0.24
0.77,0.64,0.26
0.73,0.68,0.29
0.74,0.67,0.29
0.77,0.65,0.29
0.76,0.66,0.3
0.75,0.62,0.3
0.72,0.62,0.32
0.68,0.64,0.35
0.67,0.64,0.37
0.71,0.6,0.36
0.74,0.61,0.39
0.71,0.66,0.42
0.65,0.64,0.4
0.6,0.62,0.41
0.61,0.6,0.43
0.67,0.62,0.43
0.61,0.64,0.44
0.46,0.64,0.49
0.52,0.57,0.53
0.68,0.52,0.51
0.7,0.53,0.53
0.68,0.54,0.57
0.67,0.53,0.56
0.63,0.52,0.56
0.62,0.53,0.57
0.79,0.61,0.58
0.62,0.56,0.69
0.39,0.47,0.73
0.58,0.53,0.65
0.54,0.54,0.62
0.52,0.49,0.62
0.53,0.51,0.68
0.54,0.52,0.72
0.39,0.42,0.76
0.48,0.38,0.78
0.49,0.41,0.82
0.44,0.39,0.87
0.44,0.35,0.88
0.55,0.37,0.86
0.52,0.36,0.88
0.36,0.38,0.88
0.41,0.38,0.9
0.49,0.31,0.91
0.41,0.28,0.91
0.37,0.29,0.92
0.34,0.29,0.94
0.29,0.31,0.95
0.29,0.29,0.94
0.31,0.26,0.92
0.32,0.26,0.92
0.32,0.25,0.91
0.31,0.27,0.9
0.28,0.27,0.92
0.24,0.25,0.94
0.25,0.25,0.95
0.27,0.25,0.94
0.26,0.26,0.93
0.26,0.27,0.93
0.26,0.28,0.91
0.26,0.26,0.89
0.29,0.23,0.92
0.33,0.23,0.98
0.33,0.21,0.98
0.29,0.2,0.98
0.26,0.25,1.11
0.23,0.26,1.28
0.16,0.27,1.34
0.21,0.25,1.31
0.38,0.27,1.18
0.38,0.33,1.01
0.29,0.31,0.92
0.23,0.27,0.9
0.21,0.25,0.9
0.18,0.24,0.91
0.17,0.21,0.92
0.16,0.2,0.96
0.15,0.2,0.94
0.19,0.2,0.92
0.23,0.21,0.92
0.25,0.2,0.93
0.27,0.19,0.94
0.28,0.18,0.96
0.27,0.18,0.98
0.27,0.18,1
0.28,0.17,1.01
0.29,0.18,1
0.29,0.19,0.98
0.3,0.2,0.97
0.3,0.19,0.96
0.29,0.19,0.96
0.28,0.19,0.95
0.27,0.19,0.95
0.27,0.19,0.94
0.26,0.19,0.94
0.26,0.19,0.95
0.26,0.19,0.96
0.26,0.19,0.96
0.26,0.19,0.96
0.27,0.19,0.96
0.27,0.19,0.96
0.27,0.19,0.95
0.26,0.19,0.95
0.26,0.19,0.94
0.26,0.19,0.95
0.25,0.19,0.96
0.26,0.19,0.96
0.26,0.19,0.95
0.26,0.19,0.95
0.25,0.19,0.94
0.25,0.19,0.94
0.25,0.19,0.94
0.26,0.19,0.94
0.27,0.19,0.94
0.27,0.19,0.94
0.26,0.2,0.95
0.26,0.2,0.95
0.26,0.2,0.95
0.26,0.2,0.95
0.27,0.2,0.96
0.26,0.2,0.95
0.26,0.2,0.94
0.26,0.19,0.93
0.25,0.19,0.94
0.25,0.19,0.94
0.26,0.19,0.95
0.26,0.19,0.96
0.26,0.19,0.96
0.25,0.19,0.95
0.24,0.2,0.95
0.24,0.2,0.94
0.24,0.2,0.94
0.24,0.2,0.94
0.25,0.2,0.94
0.25,0.19,0.94
0.26,0.19,0.95
0.27,0.2,0.96
0.26,0.2,0.96
0.26,0.2,0.95
0.25,0.2,0.95
0.25,0.2,0.95
0.26,0.19,0.94
0.26,0.19,0.94
0.25,0.19,0.94
0.25,0.19,0.94
0.25,0.19,0.95
0.25,0.19,0.95
0.26,0.19,0.95
0.26,0.19,0.95
0.25,0.19,0.95
0.25,0.19,0.94
0.25,0.19,0.94
0.26,0.2,0.95
0.26,0.2,0.95
0.26,0.2,0.95
0.26,0.2,0.95
0.25,0.2,0.95
0.25,0.2,0.95
0.25,0.2,0.95
0.26,0.2,0.95
0.26,0.2,0.94
0.26,0.2,0.94
0.25,0.2,0.95
0.26,0.19,0.95
0.26,0.2,0.94
0.26,0.2,0.94
0.26,0.19,0.94
0.26,0.19,0.94
0.26,0.19,0.95
0.25,0.19,0.95
0.25,0.19,0.95
0.25,0.19,0.95
0.25,0.19,0.95
0.25,0.19,0.94
0.26,0.19,0.94
0.26,0.19,0.95
0.26,0.19,0.94
0.26,0.19,0.94
0.26,0.19,0.95
0.26,0.19,0.95
0.25,0.19,0.94
0.25,0.19,0.95
0.25,0.19,0.95
0.26,0.19,0.95
0.25,0.19,0.95
0.25,0.19,0.95
0.25,0.19,0.95
0.26,0.19,0.95
0.26,0.19,0.95
0.26,0.19,0.95
0.25,0.19,0.95
0.25,0.19,0.95
0.25,0.19,0.95
0.25,0.19,0.95
0.25,0.19,0.95
0.26,0.19,0.95
0.26,0.19,0.95
0.25,0.19,0.95
0.25,0.2,0.95
0.25,0.2,0.95
0.25,0.19,0.95
0.26,0.19,0.96
0.26,0.19,0.96
0.26,0.19,0.95
0.25,0.19,0.94
0.25,0.19,0.94
0.25,0.19,0.94
0.25,0.19,0.95
0.25,0.19,0.95
0.26,0.19,0.95
0.26,0.19,0.95
0.26,0.19,0.94
0.25,0.19,0.94
0.25,0.19,0.95
0.25,0.19,0.95
0.25,0.19,0.95
0.25,0.19,0.95
0.25,0.19,0.95
0.25,0.19,0.95
0.25,0.19,0.94
0.25,0.19,0.94
0.25,0.19,0.94
0.26,0.19,0.94
0.26,0.19,0.94
0.26,0.19,0.95
0.26,0.19,0.95
0.25,0.19,0.95
0.25,0.19,0.95
0.25,0.19,0.95
0.25,0.19,0.95
0.25,0.19,0.94
0.25,0.19,0.95
0.25,0.19,0.95
0.25,0.19,0.95
0.25,0.19,0.95
0.25,0.19,0.95
0.25,0.19,0.95
0.25,0.19,0.95
0.25,0.19,0.95
0.25,0.19,0.95
0.26,0.2,0.95
0.26,0.19,0.95
0.26,0.19,0.95
0.26,0.19,0.95
0.26,0.19,0.95
0.25,0.19,0.95
0.25,0.19,0.95
0.25,0.19,0.95
0.25,0.19,0.95
0.26,0.19,0.95
0.25,0.19,0.95
0.26,0.19,0.94
0.26,0.19,0.95
0.25,0.19,0.95
0.25,0.18,0.95
0.25,0.19,0.95
0.25,0.19,0.95
0.26,0.19,0.95
0.26,0.19,0.95
0.26,0.19,0.95
0.25,0.19,0.95
0.25,0.19,0.95
0.25,0.19,0.95
0.25,0.19,0.95
0.25,0.19,0.95
0.25,0.19,0.95
0.25,0.19,0.95
0.25,0.19,0.95
0.25,0.19,0.95
0.24,0.18,0.95
0.24,0.18,0.95
0.23,0.18,0.96
0.23,0.19,0.96
0.22,0.2,0.95
0.22,0.19,0.96
0.23,0.19,0.96
0.25,0.19,0.95
0.26,0.18,0.96
0.25,0.18,0.96
0.24,0.18,0.96
0.22,0.18,0.96
0.2,0.18,0.95
0.21,0.18,0.95
0.22,0.17,0.95
0.23,0.17,0.96
0.23,0.18,0.96
0.23,0.18,0.96
0.23,0.18,0.96
0.24,0.17,0.95
0.25,0.17,0.94
0.25,0.17,0.95
0.26,0.16,0.96
0.26,0.17,0.97
0.25,0.18,0.98
0.25,0.18,0.96
0.24,0.18,0.97
0.24,0.19,0.97
0.25,0.19,0.97
0.25,0.2,0.96
0.24,0.2,0.96
0.24,0.2,0.95
0.24,0.2,0.95
0.24,0.2,0.96
0.24,0.2,0.97
0.25,0.19,0.99
0.25,0.18,1
0.26,0.18,1
0.27,0.19,0.98
0.26,0.2,0.95
0.22,0.21,0.94
0.19,0.22,0.95
0.16,0.21,0.95
0.15,0.2,0.94
0.15,0.2,0.95
0.16,0.2,0.95
0.16,0.2,0.95
0.15,0.21,0.96
0.13,0.21,0.95
0.15,0.2,0.95
0.16,0.21,0.95
0.17,0.2,0.98
0.18,0.2,1
0.19,0.2,1.01
0.19,0.2,1.01
0.19,0.21,1
0.19,0.23,0.99
0.19,0.22,0.97
0.16,0.22,0.95
0.15,0.22,0.94
0.15,0.19,0.95
0.12,0.2,0.95
0.12,0.21,0.96
0.12,0.19,0.97
0.11,0.18,0.97
0.12,0.18,0.98
0.13,0.17,0.98
0.11,0.18,0.97
0.1,0.19,0.97
0.08,0.18,0.98
0.09,0.16,0.98
0.11,0.16,0.98
0.12,0.16,0.97
0.11,0.18,0.97
0.11,0.18,0.98
0.1,0.18,0.98
0.11,0.18,0.99
0.1,0.17,1
0.1,0.16,1.03
0.13,0.16,1.05
0.16,0.16,1.04
0.19,0.16,1.04
0.2,0.16,1.05
0.22,0.16,1.03
0.25,0.18,1.01
0.27,0.2,0.99
0.28,0.22,0.97
0.28,0.22,0.95
0.27,0.23,0.94
0.25,0.25,0.95
0.23,0.26,0.97
0.23,0.27,0.97
0.24,0.28,0.97
0.28,0.28,0.96
0.33,0.28,0.94
0.36,0.28,0.92
0.39,0.29,0.89
0.4,0.3,0.88
0.39,0.32,0.87
0.38,0.33,0.87
0.37,0.35,0.88
0.34,0.36,0.89
0.37,0.36,0.87
0.41,0.36,0.86
0.4,0.36,0.87
0.4,0.36,0.84
0.43,0.36,0.81
0.4,0.37,0.8
0.47,0.39,0.78
0.58,0.43,0.73
0.52,0.41,0.71
0.51,0.4,0.69
0.52,0.4,0.64
0.6,0.44,0.59
0.63,0.45,0.56
0.73,0.48,0.5
0.75,0.5,0.45
0.7,0.46,0.43
0.71,0.45,0.43
0.82,0.49,0.42
0.88,0.49,0.41
0.77,0.52,0.41
0.73,0.53,0.4
0.82,0.53,0.39
0.83,0.55,0.37
0.82,0.55,0.33
0.82,0.53,0.3
0.83,0.54,0.28
0.85,0.57,0.26
0.87,0.57,0.24
0.9,0.55,0.23
0.91,0.55,0.24
0.85,0.56,0.23
0.83,0.58,0.24
0.86,0.58,0.23
0.85,0.57,0.19
0.85,0.58,0.17
0.84,0.58,0.16
0.85,0.58,0.15
0.89,0.58,0.13
0.91,0.57,0.13
0.9,0.58,0.13
0.9,0.59,0.12
0.91,0.57,0.1
0.92,0.57,0.1
0.91,0.58,0.11
0.9,0.59,0.11
0.89,0.59,0.12
0.89,0.6,0.13
0.87,0.6,0.14
0.88,0.59,0.13
0.89,0.58,0.11
0.89,0.56,0.09
0.88,0.57,0.09
0.86,0.58,0.1
0.85,0.59,0.1
0.85,0.59,0.12
0.85,0.59,0.13
0.83,0.59,0.13
0.81,0.58,0.13
0.8,0.6,0.12
0.79,0.62,0.1
0.77,0.63,0.09
0.76,0.65,0.08
0.75,0.65,0.07
0.73,0.64,0.06
0.73,0.65,0.07
0.72,0.65,0.07
0.71,0.64,0.07
0.69,0.67,0.06
0.68,0.67,0.05
0.68,0.68,0.05
0.67,0.66,0.04
0.66,0.65,0.03
0.66,0.66,0.03
0.66,0.67,0.02
0.65,0.68,0.02
0.65,0.7,0.04
0.62,0.69,0.03
0.6,0.7,0.04
0.6,0.71,0.05
0.6,0.7,0.05
0.59,0.71,0.05
0.57,0.73,0.04
0.56,0.73,0.01
0.55,0.74,-0.01
0.54,0.76,-0.01
0.54,0.71,0
0.53,0.7,0.01
0.5,0.74,0.04
0.5,0.76,0.08
0.52,0.72,0.07
0.51,0.71,0.05
0.51,0.75,0.03
0.52,0.74,0.01
0.52,0.74,0.01
0.51,0.74,0.02
0.5,0.74,0.04
0.49,0.74,0.06
0.47,0.76,0.06
0.46,0.77,0.05
0.47,0.75,0.06
0.49,0.75,0.06
0.48,0.74,0.05
0.49,0.74,0.05
0.5,0.74,0.05
0.49,0.75,0.06
0.5,0.75,0.06
0.51,0.77,0.06
0.51,0.79,0.07
0.51,0.79,0.07
0.49,0.78,0.07
0.48,0.76,0.07
0.48,0.77,0.08
0.51,0.8,0.09
0.52,0.8,0.09
0.52,0.79,0.08
0.5,0.8,0.07
0.5,0.79,0.07
0.5,0.8,0.07
0.5,0.8,0.08
0.5,0.8,0.08
0.5,0.81,0.09
0.51,0.81,0.09
0.5,0.82,0.1
0.5,0.82,0.09
0.49,0.83,0.09
0.49,0.83,0.08
0.5,0.83,0.07
0.51,0.83,0.07
0.52,0.83,0.07
0.53,0.81,0.08
0.53,0.81,0.08
0.53,0.83,0.08
0.52,0.84,0.07
0.5,0.84,0.07
0.49,0.84,0.06
0.49,0.84,0.05
0.49,0.84,0.05
0.49,0.85,0.05
0.49,0.85,0.04
0.49,0.86,0.04
0.5,0.86,0.03
0.5,0.86,0.03
0.5,0.85,0.03
0.5,0.85,0.04
0.51,0.87,0.03
0.5,0.87,0.03
0.5,0.87,0.03
0.5,0.87,0.03
0.51,0.86,0.03
0.52,0.85,0.02
0.52,0.85,0.02
0.53,0.84,0.02
0.52,0.84,0.02
0.52,0.84,0.01
0.51,0.84,0.01
0.51,0.84,0.01
0.51,0.84,0.01
0.52,0.84,0.02
0.52,0.83,0.02
0.52,0.83,0.02
0.51,0.83,0.02
0.52,0.83,0.02
0.53,0.83,0.02
0.52,0.84,0.01
0.52,0.84,0.01
0.52,0.83,0.01
0.52,0.83,0.01
0.52,0.83,0.02
0.52,0.83,0.02
0.51,0.83,0.02
0.51,0.84,0.03
0.51,0.84,0.03
0.51,0.85,0.02
0.51,0.84,0.02
0.52,0.84,0.03
0.52,0.84,0.03
0.52,0.84,0.02
0.51,0.83,0.02
0.5,0.83,0.03
0.5,0.84,0.03
0.5,0.84,0.04
0.5,0.84,0.03
0.5,0.83,0.03
0.51,0.83,0.03
0.51,0.82,0.03
0.51,0.83,0.03
0.5,0.83,0.03
0.5,0.83,0.03
0.5,0.84,0.02
0.49,0.83,0.02
0.49,0.82,0.02
0.49,0.83,0.02
0.5,0.83,0.03
0.51,0.83,0.04
0.51,0.82,0.04
0.52,0.83,0.03
0.52,0.83,0.03
0.53,0.82,0.03
0.53,0.82,0.03
0.52,0.82,0.04
0.52,0.81,0.04
0.52,0.81,0.05
0.52,0.8,0.06
0.52,0.79,0.06
0.52,0.78,0.06
0.53,0.77,0.07
0.54,0.75,0.07
0.56,0.74,0.08
0.57,0.72,0.1
0.58,0.71,0.11
0.57,0.71,0.12
0.57,0.71,0.12
0.57,0.7,0.12
0.57,0.69,0.12
0.56,0.69,0.12
0.54,0.68,0.12
0.54,0.68,0.12
0.55,0.68,0.13
0.56,0.69,0.14
0.58,0.7,0.14
0.59,0.69,0.14
0.59,0.68,0.14
0.59,0.66,0.14
0.59,0.65,0.14
0.59,0.65,0.14
0.61,0.65,0.14
0.62,0.65,0.13
0.62,0.65,0.13
0.59,0.64,0.13
0.59,0.65,0.14
0.6,0.66,0.14
0.62,0.67,0.13
0.65,0.68,0.12
0.68,0.68,0.1
0.68,0.67,0.1
0.68,0.66,0.09
0.67,0.66,0.09
0.66,0.66,0.1
0.66,0.67,0.11
0.67,0.7,0.1
0.69,0.72,0.1
0.69,0.72,0.09
0.68,0.71,0.08
0.68,0.69,0.07
0.68,0.67,0.07
0.68,0.67,0.08
0.67,0.66,0.1
0.67,0.67,0.11
0.68,0.7,0.11
0.7,0.71,0.1
0.7,0.7,0.09
0.71,0.67,0.08
0.71,0.65,0.08
0.7,0.63,0.1
0.7,0.62,0.12
0.7,0.64,0.14
0.69,0.65,0.14
0.69,0.64,0.14
0.7,0.64,0.14
0.72,0.66,0.14
0.75,0.66,0.14
0.78,0.64,0.14
0.81,0.63,0.13
0.78,0.64,0.14
0.75,0.61,0.15
0.79,0.59,0.16
0.81,0.59,0.18
0.82,0.61,0.21
0.78,0.6,0.23
0.77,0.56,0.22
0.85,0.6,0.24
0.84,0.55,0.26
0.84,0.57,0.29
0.83,0.57,0.32
0.79,0.54,0.31
0.79,0.53,0.31
0.8,0.59,0.33
0.82,0.59,0.34
0.87,0.56,0.34
0.88,0.55,0.35
0.84,0.57,0.35
0.86,0.5,0.34
0.84,0.47,0.39
0.83,0.52,0.41
0.88,0.52,0.41
0.87,0.52,0.46
0.83,0.55,0.48
0.83,0.53,0.5
0.84,0.52,0.53
0.85,0.49,0.49
0.77,0.52,0.47
0.72,0.53,0.51
0.72,0.47,0.56
0.67,0.44,0.53
0.65,0.46,0.55
0.59,0.48,0.56
0.56,0.48,0.52
0.62,0.5,0.58
0.62,0.49,0.58
0.66,0.46,0.56
0.74,0.49,0.59
0.55,0.45,0.63
0.6,0.39,0.66
0.8,0.43,0.62
0.35,0.54,0.63
0.08,0.52,0.72
0.4,0.41,0.73
0.49,0.45,0.72
0.54,0.39,0.67
0.49,0.44,0.6
0.29,0.47,0.7
0.35,0.36,0.77
0.55,0.35,0.72
0.65,0.39,0.71
0.54,0.36,0.9
0.34,0.31,0.92
0.34,0.3,0.91
0.34,0.29,0.9
0.38,0.29,0.88
0.5,0.27,0.86
0.84,0.28,0.84
0.65,0.31,0.95
0.41,0.28,0.97
0.47,0.28,0.89
0.3,0.32,0.93
0.27,0.31,0.96
0.27,0.29,0.98
0.29,0.29,0.97
0.32,0.31,0.95
0.35,0.3,0.92
0.42,0.26,0.9
0.33,0.3,0.92
0.15,0.34,0.92
0.11,0.27,0.91
0.15,0.25,0.94
0.17,0.24,0.96
0.17,0.21,1
0.2,0.22,1.06
0.21,0.23,1.1
0.22,0.23,1.12
0.22,0.22,1.1
0.22,0.21,1.04
0.23,0.23,0.98
0.24,0.24,0.94
0.22,0.24,0.93
0.19,0.22,0.93
0.17,0.21,0.93
0.17,0.21,0.93
0.18,0.21,0.91
0.2,0.21,0.9
0.22,0.2,0.9
0.23,0.2,0.92
0.23,0.2,0.96
0.23,0.2,0.99
0.25,0.19,1.01
0.26,0.2,1.03
0.27,0.22,1.03
0.27,0.24,1.01
0.26,0.25,1
0.25,0.24,0.99
0.24,0.24,0.99
0.24,0.24,0.99
0.26,0.24,1
0.27,0.23,1.01
0.27,0.23,1.01
0.25,0.22,1
0.25,0.21,1.01
0.27,0.21,1.01
0.28,0.2,1.01
0.3,0.2,1.01
0.31,0.2,1
0.3,0.2,1
0.31,0.19,1.01
0.32,0.17,1.01
0.34,0.17,0.99
0.36,0.19,0.96
0.39,0.19,0.94
0.41,0.2,0.92
0.42,0.21,0.91
0.41,0.22,0.9
0.4,0.23,0.89
0.39,0.24,0.9
0.37,0.26,0.9
0.37,0.27,0.91
0.36,0.28,0.91
0.35,0.3,0.9
0.36,0.32,0.89
0.37,0.34,0.87
0.39,0.35,0.86
0.39,0.37,0.85
0.38,0.39,0.84
0.37,0.4,0.83
0.37,0.41,0.84
0.36,0.42,0.84
0.36,0.42,0.84
0.35,0.44,0.83
0.35,0.45,0.83
0.36,0.45,0.81
0.38,0.45,0.81
0.4,0.45,0.8
0.4,0.45,0.8
0.39,0.47,0.78
0.36,0.48,0.78
0.35,0.48,0.78
0.34,0.49,0.78
0.33,0.49,0.78
0.32,0.49,0.79
0.32,0.49,0.79
0.32,0.49,0.79
0.31,0.49,0.77
0.31,0.5,0.75
0.28,0.51,0.73
0.27,0.51,0.72
0.27,0.51,0.71
0.27,0.51,0.72
0.29,0.5,0.73
0.31,0.49,0.73
0.33,0.48,0.74
0.35,0.47,0.74
0.37,0.46,0.73
0.37,0.46,0.73
0.37,0.46,0.73
0.37,0.45,0.74
0.37,0.46,0.76
0.37,0.46,0.77
0.37,0.45,0.78
0.37,0.44,0.78
0.37,0.44,0.77
0.38,0.44,0.77
0.4,0.43,0.76
0.4,0.42,0.75
0.39,0.42,0.75
0.4,0.42,0.74
0.42,0.42,0.74
0.44,0.42,0.75
0.45,0.41,0.77
0.44,0.39,0.79
0.44,0.39,0.79
0.44,0.38,0.8
0.42,0.38,0.79
0.41,0.38,0.78
0.42,0.39,0.76
0.43,0.38,0.75
0.44,0.37,0.75
0.46,0.36,0.75
0.48,0.33,0.76
0.46,0.33,0.77
0.43,0.34,0.77
0.4,0.33,0.76
0.4,0.32,0.75
0.39,0.31,0.74
0.39,0.3,0.74
0.41,0.28,0.75
0.43,0.27,0.76
0.43,0.27,0.77
0.44,0.26,0.79
0.45,0.25,0.8
0.46,0.26,0.84
0.48,0.25,0.85
0.48,0.23,0.86
0.49,0.24,0.9
0.5,0.25,0.92
0.5,0.26,0.93
0.51,0.26,0.93
