Acc_x,Acc_y,Acc_z
-0.04,-0.73,-0.1
-0.03,-0.75,-0.1
-0.02,-0.76,-0.11
-0.01,-0.78,-0.1
0.01,-0.8,-0.1
0.03,-0.82,-0.1
0.07,-0.86,-0.1
0.1,-0.89,-0.1
0.13,-0.91,-0.1
0.16,-0.93,-0.1
0.19,-0.96,-0.11
0.2,-1.01,-0.09
0.2,-1.04,-0.08
0.21,-1.07,-0.06
0.22,-1.09,-0.05
0.23,-1.12,-0.03
0.26,-1.16,-0.02
0.28,-1.21,0.01
0.31,-1.28,0.02
0.33,-1.35,0.03
0.32,-1.4,0.09
0.3,-1.45,0.15
0.3,-1.49,0.23
0.31,-1.52,0.3
0.38,-1.62,0.32
0.4,-1.7,0.36
0.35,-1.71,0.39
0.37,-1.78,0.4
0.42,-1.79,0.41
0.51,-1.74,0.45
0.5,-1.64,0.52
0.42,-1.46,0.59
0.46,-1.3,0.62
0.5,-1.18,0.62
0.61,-1.17,0.54
0.67,-1.17,0.44
0.59,-1.13,0.44
0.55,-1.15,0.43
0.53,-1.2,0.4
0.55,-1.18,0.37
0.52,-1.17,0.35
0.47,-1.17,0.35
0.4,-1.15,0.34
0.37,-1.1,0.34
0.37,-0.99,0.27
0.37,-0.94,0.23
0.39,-0.91,0.21
0.43,-0.9,0.19
0.45,-0.9,0.15
0.47,-0.9,0.13
0.46,-0.9,0.11
0.48,-0.89,0.09
0.5,-0.88,0.07
0.5,-0.88,0.05
0.51,-0.88,0.04
0.52,-0.88,0.04
0.53,-0.89,0.04
0.53,-0.91,0.05
0.55,-0.92,0.06
0.57,-0.93,0.05
0.58,-0.93,0.04
0.59,-0.93,0.03
0.59,-0.92,0.05
0.55,-0.94,0.08
0.53,-0.96,0.11
0.52,-0.99,0.12
0.52,-1.02,0.14
0.51,-1.06,0.15
0.51,-1.09,0.17
0.51,-1.13,0.19
0.49,-1.14,0.21
0.49,-1.15,0.25
0.48,-1.16,0.28
0.43,-1.18,0.31
0.42,-1.18,0.33
0.42,-1.21,0.35
0.4,-1.27,0.36
0.38,-1.35,0.36
0.37,-1.41,0.34
0.29,-1.47,0.34
0.2,-1.52,0.37
0.18,-1.55,0.4
0.19,-1.56,0.41
0.22,-1.57,0.4
0.24,-1.62,0.36
0.22,-1.67,0.33
0.19,-1.68,0.35
0.17,-1.6,0.37
0.18,-1.5,0.31
0.19,-1.35,0.28
0.18,-1.34,0.25
0.13,-1.35,0.23
0.11,-1.33,0.19
0.1,-1.3,0.16
0.04,-1.24,0.14
-0.01,-1.18,0.13
-0.02,-1.11,0.11
-0.02,-1.05,0.1
-0.03,-0.98,0.09
-0.02,-0.91,0.09
-0.01,-0.86,0.07
0,-0.82,0.06
0.01,-0.77,0.04
0,-0.75,0.02
0.01,-0.73,-0.01
0.01,-0.73,-0.02
-0.01,-0.74,-0.03
-0.03,-0.77,-0.03
-0.04,-0.8,-0.04
-0.05,-0.82,-0.04
-0.06,-0.84,-0.04
-0.09,-0.87,-0.05
-0.1,-0.88,-0.06
-0.09,-0.86,-0.07
-0.08,-0.84,-0.08
-0.09,-0.8,-0.09
-0.08,-0.78,-0.1
-0.04,-0.77,-0.1
-0.03,-0.78,-0.11
-0.02,-0.79,-0.12
0,-0.78,-0.12
-0.01,-0.79,-0.11
-0.01,-0.81,-0.1
0,-0.83,-0.09
0.02,-0.87,-0.09
0.04,-0.92,-0.09
0.05,-0.97,-0.09
0.07,-1.03,-0.09
0.09,-1.08,-0.09
0.12,-1.14,-0.09
0.14,-1.18,-0.08
0.14,-1.23,-0.06
0.14,-1.27,-0.04
0.16,-1.29,0.01
0.19,-1.31,0.06
0.21,-1.32,0.09
0.24,-1.34,0.12
0.26,-1.37,0.15
0.25,-1.41,0.19
0.23,-1.45,0.23
0.21,-1.5,0.37
0.27,-1.62,0.37
0.29,-1.66,0.41
0.28,-1.66,0.48
0.34,-1.64,0.55
0.36,-1.56,0.62
0.33,-1.45,0.58
0.4,-1.4,0.55
0.59,-1.32,0.5
0.73,-1.2,0.41
0.63,-1.17,0.4
0.54,-1.17,0.47
0.52,-1.18,0.5
0.51,-1.24,0.47
0.54,-1.24,0.45
0.53,-1.2,0.44
0.51,-1.16,0.42
0.49,-1.12,0.39
0.5,-1.08,0.33
0.51,-1.05,0.29
0.5,-1.02,0.25
0.49,-0.98,0.22
0.5,-0.95,0.18
0.51,-0.92,0.14
0.51,-0.9,0.12
0.51,-0.89,0.1
0.49,-0.88,0.09
0.5,-0.86,0.04
0.5,-0.86,0.02
0.5,-0.85,0.01
0.5,-0.84,0
0.51,-0.84,-0.01
0.52,-0.85,-0.02
0.53,-0.86,-0.02
0.54,-0.87,-0.02
0.56,-0.88,-0.04
0.57,-0.89,-0.05
0.56,-0.9,-0.05
0.55,-0.91,-0.04
0.54,-0.93,-0.04
0.53,-0.95,-0.04
0.53,-0.97,-0.02
0.53,-0.98,0
0.54,-1,0.01
0.53,-1.02,0.04
0.53,-1.05,0.08
0.53,-1.08,0.11
0.55,-1.11,0.13
0.56,-1.13,0.15
0.55,-1.13,0.18
0.54,-1.13,0.22
0.53,-1.15,0.25
0.53,-1.19,0.26
0.53,-1.39,0.23
0.51,-1.52,0.23
0.5,-1.63,0.23
0.49,-1.7,0.25
0.45,-1.71,0.28
0.36,-1.63,0.33
0.29,-1.5,0.36
0.23,-1.35,0.34
0.16,-1.21,0.32
0.16,-1.11,0.29
0.2,-1.13,0.24
0.23,-1.23,0.2
0.23,-1.35,0.18
0.24,-1.44,0.16
0.23,-1.5,0.14
0.17,-1.52,0.12
0.08,-1.49,0.09
-0.01,-1.42,0.08
-0.06,-1.29,0.07
-0.07,-1.18,0.06
-0.08,-1.1,0.04
-0.08,-1.04,0.03
-0.05,-0.99,0
0,-0.94,-0.01
0.03,-0.91,0
0.06,-0.88,-0.01
0.11,-0.85,-0.05
0.12,-0.82,-0.05
0.08,-0.8,-0.03
0.04,-0.81,-0.04
-0.01,-0.81,-0.05
-0.03,-0.81,-0.06
-0.05,-0.81,-0.06
-0.08,-0.81,-0.06
-0.09,-0.82,-0.06
-0.08,-0.83,-0.06
-0.07,-0.84,-0.07
-0.05,-0.84,-0.08
-0.05,-0.84,-0.1
-0.01,-0.86,-0.11
0.01,-0.88,-0.11
0.02,-0.9,-0.12
0.04,-0.93,-0.13
0.06,-0.95,-0.13
0.08,-0.97,-0.14
0.09,-0.98,-0.13
0.11,-0.99,-0.12
0.12,-0.99,-0.11
0.13,-1,-0.1
0.14,-1.02,-0.09
0.15,-1.03,-0.08
0.17,-1.04,-0.05
0.24,-1.07,-0.03
0.26,-1.09,-0.01
0.28,-1.09,0.02
0.3,-1.11,0.04
0.29,-1.17,0.1
0.28,-1.22,0.14
0.29,-1.31,0.16
0.29,-1.4,0.17
0.27,-1.5,0.18
0.25,-1.62,0.2
0.24,-1.69,0.23
0.25,-1.69,0.27
0.3,-1.62,0.31
0.36,-1.51,0.32
0.4,-1.36,0.32
0.41,-1.22,0.33
0.46,-1.09,0.32
0.49,-1,0.31
0.49,-1.01,0.32
0.52,-1.04,0.32
0.58,-1.07,0.29
0.57,-1.14,0.28
0.51,-1.25,0.29
0.48,-1.33,0.28
0.62,-0.89,0.09
0.61,-0.87,0.08
0.59,-0.85,0.09
0.59,-0.83,0.09
0.59,-0.8,0.08
0.58,-0.79,0.07
0.58,-0.78,0.07
0.57,-0.77,0.08
0.56,-0.77,0.08
0.57,-0.78,0.09
0.57,-0.79,0.11
0.57,-0.81,0.12
0.57,-0.85,0.11
0.57,-0.89,0.11
0.54,-0.93,0.12
0.53,-0.97,0.14
0.53,-1.02,0.15
0.53,-1.08,0.19
0.52,-1.1,0.21
0.53,-1.13,0.21
0.54,-1.15,0.23
0.56,-1.15,0.27
0.56,-1.16,0.31
0.57,-1.17,0.34
0.57,-1.19,0.36
0.55,-1.21,0.36
0.53,-1.25,0.37
0.52,-1.29,0.38
0.53,-1.34,0.37
0.52,-1.39,0.35
0.5,-1.48,0.32
0.48,-1.58,0.3
0.48,-1.64,0.29
0.49,-1.67,0.28
0.47,-1.66,0.27
0.41,-1.6,0.27
0.36,-1.48,0.25
0.32,-1.32,0.22
0.3,-1.18,0.2
0.29,-1.07,0.18
0.33,-0.92,0.02
0.32,-1.16,-0.02
0.29,-1.29,-0.05
0.28,-1.4,-0.05
0.25,-1.49,-0.05
0.01,-1.07,-0.07
0,-0.95,-0.09
0.01,-0.84,-0.08
0.03,-0.74,-0.07
0.05,-0.67,-0.07
0.09,-0.6,-0.07
0.11,-0.58,-0.07
0.13,-0.56,-0.07
0.14,-0.56,-0.07
0.14,-0.57,-0.07
0.13,-0.59,-0.07
0.12,-0.61,-0.08
0.1,-0.66,-0.09
0.09,-0.71,-0.09
0.07,-0.77,-0.08
0.06,-0.8,-0.08
0.05,-0.84,-0.06
0.04,-0.85,-0.06
0.04,-0.86,-0.06
0.04,-0.86,-0.06
0.04,-0.87,-0.06
0.16,-1.02,-0.05
0.16,-1.02,-0.05
0.18,-1.06,-0.03
0.21,-1.09,-0.01
0.24,-1.11,0
0.25,-1.14,0.02
0.28,-1.14,0.03
0.3,-1.16,0.05
0.32,-1.18,0.08
0.35,-1.19,0.12
0.38,-1.22,0.17
0.42,-1.52,0.28
0.35,-1.56,0.25
0.35,-1.56,0.25
0.33,-1.59,0.28
0.41,-1.53,0.29
0.41,-1.44,0.3
0.38,-1.32,0.3
0.39,-1.15,0.25
0.41,-0.99,0.19
0.5,-0.85,0.17
0.56,-0.83,0.17
0.5,-0.93,0.18
0.45,-1.1,0.17
0.45,-1.27,0.14
0.52,-1.42,0.12
0.53,-1.56,0.13
0.48,-1.59,0.17
0.43,-1.5,0.19
0.42,-1.39,0.2
0.44,-1.26,0.2
0.47,-1.14,0.18
0.5,-1.01,0.16
0.54,-0.9,0.15
0.55,-0.84,0.14
0.57,-0.8,0.13
0.58,-0.79,0.12
0.57,-0.78,0.11
0.55,-0.78,0.1
0.52,-0.79,0.11
0.5,-0.81,0.14
0.48,-0.86,0.14
0.48,-0.88,0.14
0.5,-0.92,0.14
0.52,-0.95,0.14
0.54,-0.97,0.14
0.55,-0.98,0.14
0.57,-0.99,0.14
0.6,-1,0.14
0.62,-1.01,0.13
0.62,-1.01,0.13
0.61,-1.03,0.15
0.6,-1.05,0.16
0.58,-1.07,0.16
0.56,-1.09,0.15
0.54,-1.11,0.15
0.55,-1.12,0.16
0.56,-1.13,0.18
0.56,-1.13,0.19
0.57,-1.13,0.2
0.59,-1.13,0.2
0.61,-1.15,0.2
0.61,-1.17,0.2
0.58,-1.21,0.2
0.57,-1.26,0.2
0.58,-1.32,0.2
0.55,-1.38,0.2
0.47,-1.45,0.2
0.43,-1.42,0.19
0.39,-1.36,0.18
0.37,-1.33,0.16
0.36,-1.33,0.12
0.35,-1.34,0.07
0.33,-1.34,0.04
0.3,-1.32,0.02
0.28,-1.32,0.02
0.27,-1.33,0.02
0.26,-1.36,0.01
0.25,-1.41,0
0.24,-1.46,-0.01
0.21,-1.48,-0.04
0.18,-1.47,-0.06
0.16,-1.44,-0.08
0.14,-1.36,-0.09
0.12,-1.26,-0.08
0.11,-1.15,-0.07
0.11,-1.04,-0.08
0.11,-0.95,-0.09
0.15,-0.86,-0.14
0.03,-0.92,-0.02
0.12,-1,-0.03
0.25,-1.05,-0.06
0.3,-1.03,-0.09
0.26,-0.99,-0.08
0.2,-0.96,-0.08
0.15,-0.96,-0.08
0.16,-0.94,-0.06
0.19,-0.93,-0.07
0.19,-0.92,-0.08
0.2,-0.93,-0.08
0.23,-0.94,-0.08
0.26,-0.93,-0.08
0.27,-0.93,-0.08
0.27,-0.94,-0.08
0.29,-0.96,-0.07
0.31,-0.97,-0.07
0.33,-0.99,-0.06
0.35,-1.01,-0.05
0.37,-1.06,-0.03
0.39,-1.09,-0.02
0.4,-1.12,-0.01
0.4,-1.16,0.01
0.38,-1.19,0.04
0.4,-1.22,0.07
0.41,-1.24,0.11
0.41,-1.26,0.13
0.4,-1.29,0.14
0.37,-1.29,0.15
0.36,-1.29,0.16
0.38,-1.31,0.15
0.39,-1.31,0.16
0.43,-1.27,0.2
0.41,-1.28,0.21
0.37,-1.27,0.19
0.44,-1.27,0.18
0.45,-1.29,0.2
0.44,-1.34,0.14
0.44,-1.34,0.14
0.46,-1.4,0.13
0.45,-1.43,0.15
0.42,-1.42,0.17
0.45,-0.95,0.09
0.45,-0.95,0.09
0.44,-1.01,0.1
0.42,-1.06,0.11
0.39,-1.09,0.12
0.37,-1.1,0.12
0.36,-1.1,0.11
0.37,-1.09,0.11
0.39,-1.07,0.1
0.41,-1.05,0.1
0.42,-1.03,0.1
0.45,-1,0.1
0.48,-0.98,0.1
0.5,-0.96,0.1
0.51,-0.92,0.11
0.53,-0.89,0.12
0.53,-0.87,0.13
0.53,-0.85,0.15
0.52,-0.84,0.17
0.51,-0.82,0.18
0.5,-0.82,0.18
0.49,-0.82,0.19
0.48,-0.83,0.21
0.49,-0.88,0.22
0.5,-0.92,0.23
0.51,-0.97,0.22
0.51,-1,0.22
0.5,-1.03,0.21
0.49,-1.06,0.22
0.48,-1.1,0.23
0.46,-1.13,0.23
0.46,-1.15,0.22
0.49,-1.17,0.2
0.49,-1.18,0.2
0.51,-1.17,0.23
0.55,-1.18,0.25
0.58,-1.2,0.23
0.58,-1.21,0.24
0.58,-1.23,0.23
0.57,-1.27,0.21
0.5,-1.35,0.19
0.47,-1.42,0.18
0.48,-1.46,0.17
0.43,-1.49,0.17
0.39,-1.5,0.17
0.38,-1.48,0.16
0.39,-1.46,0.14
0.38,-1.39,0.13
0.36,-1.28,0.15
0.37,-1.04,0.16
0.38,-0.98,0.14
0.38,-1,0.1
0.37,-1.07,0.06
0.37,-1.17,0.02
0.36,-1.29,-0.01
0.34,-1.44,-0.02
0.32,-1.56,-0.01
0.18,-1.6,-0.02
0.18,-1.6,-0.02
0.12,-1.46,-0.02
0.08,-1.3,-0.02
0.06,-1.15,-0.03
0.05,-1.01,-0.03
0.05,-0.88,-0.04
0.06,-0.75,-0.05
0.07,-0.65,-0.05
0.09,-0.59,-0.05
0.11,-0.55,-0.06
0.13,-0.54,-0.06
0.14,-0.54,-0.06
0.14,-0.55,-0.05
0.13,-0.57,-0.05
0.13,-0.6,-0.05
0.12,-0.63,-0.06
0.11,-0.66,-0.07
0.09,-0.72,-0.07
0.08,-0.75,-0.07
0.08,-0.78,-0.07
0.09,-0.81,-0.07
0.11,-0.83,-0.07
0.12,-0.84,-0.07
0.13,-0.85,-0.07
0.14,-0.86,-0.07
0.16,-0.86,-0.06
0.17,-0.87,-0.07
0.18,-0.87,-0.07
0.19,-0.88,-0.07
0.2,-0.91,-0.07
0.21,-0.93,-0.07
0.23,-0.96,-0.07
0.24,-0.98,-0.05
0.25,-1,-0.03
0.27,-1.02,-0.02
0.28,-1.05,-0.01
0.3,-1.08,0.01
0.32,-1.13,0.01
0.33,-1.18,0.02
0.33,-1.25,0.04
0.32,-1.32,0.06
0.34,-1.39,0.08
0.34,-1.42,0.12
0.36,-1.55,0.12
0.4,-1.57,0.12
0.38,-1.53,0.15
0.4,-1.51,0.17
0.39,-1.46,0.16
0.6,-1.16,0.17
0.6,-1.16,0.17
0.75,-1.18,0.14
0.67,-1.23,0.19
0.52,-1.33,0.23
0.47,-1.41,0.28
0.47,-1.42,0.3
0.48,-1.4,0.29
0.42,-1.35,0.31
0.37,-1.28,0.34
0.4,-1.21,0.32
0.44,-1.13,0.28
0.43,-1.05,0.26
0.44,-0.99,0.25
0.48,-0.94,0.24
0.49,-0.9,0.23
0.49,-0.86,0.21
0.49,-0.83,0.2
0.48,-0.83,0.19
0.47,-0.84,0.2
0.47,-0.84,0.2
0.48,-0.86,0.2
0.49,-0.88,0.19
0.51,-0.91,0.2
0.53,-0.94,0.21
0.55,-0.97,0.21
0.55,-0.98,0.23
0.55,-0.98,0.24
0.55,-0.99,0.26
0.54,-1,0.27
0.53,-1.01,0.27
0.54,-1.02,0.27
0.54,-1.04,0.26
0.54,-1.06,0.25
0.53,-1.08,0.24
0.53,-1.09,0.24
0.52,-1.11,0.25
0.51,-1.12,0.24
0.5,-1.14,0.23
0.49,-1.15,0.22
0.46,-1.17,0.22
0.45,-1.18,0.22
0.45,-1.21,0.18
0.46,-1.34,0.18
0.45,-1.4,0.19
0.42,-1.45,0.2
0.41,-1.45,0.2
0.38,-1.42,0.19
0.36,-1.35,0.19
0.34,-1.28,0.19
0.36,-1.23,0.17
0.39,-1.21,0.14
0.39,-1.22,0.11
0.39,-1.23,0.09
0.38,-1.25,0.06
0.36,-1.27,0.03
0.34,-1.32,0.01
0.32,-1.4,0.01
0.32,-1.5,0.02
0.31,-1.59,0.02
0.29,-1.62,0.01
0.26,-1.59,0.01
0.21,-1.5,0
0.18,-1.38,-0.01
0.17,-1.25,-0.01
0.18,-1.14,-0.02
0.19,-1.04,-0.03
0.18,-0.96,-0.03
0.17,-0.89,-0.05
0.16,-0.8,-0.06
0.16,-0.77,-0.07
0.14,-0.75,-0.07
0.13,-0.72,-0.06
0.13,-0.71,-0.06
0.13,-0.7,-0.07
0.13,-0.69,-0.07
0.13,-0.68,-0.07
0.13,-0.67,-0.08
0.12,-0.67,-0.09
0.12,-0.69,-0.09
0.12,-0.71,-0.09
0.12,-0.74,-0.1
0.13,-0.79,-0.1
0.13,-0.84,-0.11
0.13,-0.88,-0.11
0.13,-0.91,-0.1
0.13,-0.93,-0.1
0.13,-0.92,-0.09
0.13,-0.89,-0.08
0.14,-0.86,-0.09
0.15,-0.84,-0.08
0.16,-0.81,-0.07
0.18,-0.78,-0.07
0.2,-0.77,-0.06
0.23,-0.77,-0.06
0.26,-0.79,-0.02
0.28,-0.82,0.01
0.3,-0.85,0.03
0.32,-0.88,0.06
0.34,-0.93,0.09
0.35,-0.98,0.1
0.36,-1.04,0.1
0.35,-1.11,0.1
0.34,-1.18,0.1
0.32,-1.25,0.12
0.31,-1.29,0.15
0.32,-1.33,0.18
0.37,-1.39,0.22
0.42,-1.4,0.23
0.42,-1.4,0.24
0.41,-1.44,0.29
0.38,-1.49,0.3
0.46,-1.53,0.26
0.54,-1.58,0.23
0.55,-1.59,0.27
0.56,-1.52,0.35
0.46,-1.42,0.43
0.37,-1.32,0.47
0.39,-1.18,0.47
0.41,-1.08,0.44
0.45,-1.05,0.38
0.47,-1.02,0.25
0.49,-1.08,0.25
0.51,-1.12,0.24
0.49,-1.17,0.22
0.48,-1.2,0.21
0.48,-1.22,0.2
0.47,-1.22,0.2
0.48,-1.19,0.19
0.5,-1.14,0.17
0.5,-1.11,0.15
0.51,-1.07,0.14
0.53,-1.03,0.13
0.52,-1,0.13
0.51,-0.97,0.13
0.52,-0.94,0.13
0.53,-0.93,0.14
0.53,-0.92,0.14
0.53,-0.91,0.13
0.53,-0.91,0.13
0.54,-0.9,0.14
0.55,-0.89,0.17
0.53,-0.89,0.18
0.52,-0.89,0.17
0.53,-0.9,0.17
0.56,-0.91,0.18
0.57,-0.93,0.21
0.54,-0.97,0.26
0.51,-0.99,0.28
0.5,-1.03,0.29
0.49,-1.05,0.29
0.48,-1.07,0.27
0.47,-1.09,0.26
0.46,-1.1,0.26
0.44,-1.11,0.28
0.45,-1.13,0.3
0.49,-1.16,0.32
0.51,-1.18,0.35
0.54,-1.19,0.35
0.58,-1.21,0.33
0.61,-1.24,0.3
0.63,-1.28,0.26
0.63,-1.33,0.24
0.61,-1.36,0.21
0.57,-1.36,0.2
0.54,-1.32,0.19
0.53,-1.26,0.17
0.53,-1.23,0.16
0.52,-1.23,0.14
0.5,-1.23,0.12
0.48,-1.22,0.07
0.43,-1.21,0.05
0.38,-1.19,0.06
0.4,-1.2,0.03
0.42,-1.34,0
0.41,-1.47,-0.02
0.39,-1.57,-0.02
0.35,-1.64,-0.02
0.31,-1.66,-0.02
0.26,-1.6,-0.02
0.22,-1.45,-0.04
0.21,-1.32,-0.05
0.19,-1.21,-0.06
0.18,-1.11,-0.07
0.18,-1.02,-0.08
0.18,-0.94,-0.08
0.17,-0.86,-0.09
0.18,-0.79,-0.08
0.19,-0.73,-0.08
0.19,-0.68,-0.08
0.2,-0.64,-0.08
0.17,-0.61,-0.09
-0.21,-0.61,0.06
-1.05,-0.65,0.5
-1.19,-0.66,0.59
-0.19,-0.53,0.15
0.64,-0.43,-0.09
0.55,-0.64,-0.08
0.1,-0.85,-0.1
-0.05,-0.83,-0.15
0.32,-0.9,-0.16
0.31,-0.92,-0.11
0.19,-0.89,-0.06
0.15,-0.88,-0.03
0.19,-0.89,-0.04
0.23,-0.88,-0.06
0.23,-0.86,-0.07
0.21,-0.86,-0.07
0.21,-0.86,-0.06
0.24,-0.86,-0.06
0.26,-0.87,-0.06
0.28,-0.88,-0.06
0.29,-0.9,-0.06
0.29,-0.93,-0.06
0.31,-0.96,-0.05
0.34,-1.01,-0.04
0.35,-1.05,-0.03
0.35,-1.09,-0.02
0.36,-1.15,-0.01
0.37,-1.22,-0.01
0.38,-1.29,-0.01
0.36,-1.36,0
0.34,-1.44,0
0.37,-1.51,0.01
0.36,-1.59,0.03
0.33,-1.67,0.1
0.38,-1.75,0.1
0.38,-1.74,0.17
0.41,-1.67,0.22
0.49,-1.52,0.24
0.55,-1.37,0.28
0.46,-0.9,0.35
0.46,-0.92,0.37
0.46,-0.93,0.38
0.45,-0.96,0.38
0.42,-1.02,0.37
0.36,-1.29,0.4
0.36,-1.29,0.4
0.36,-1.34,0.41
0.38,-1.34,0.42
0.42,-1.29,0.41
0.43,-1.23,0.39
0.45,-1.15,0.38
0.47,-1.07,0.35
0.48,-1.01,0.34
0.49,-0.97,0.33
0.49,-0.92,0.32
0.49,-0.88,0.31
0.49,-0.86,0.29
0.49,-0.86,0.3
0.49,-0.87,0.31
0.49,-0.88,0.32
0.49,-0.89,0.32
0.49,-0.91,0.32
0.49,-0.93,0.31
0.49,-0.94,0.31
0.49,-0.94,0.31
0.49,-0.94,0.31
0.49,-0.94,0.31
0.49,-0.95,0.32
0.5,-0.96,0.32
0.51,-0.99,0.3
0.51,-1.02,0.3
0.5,-1.04,0.3
0.49,-1.06,0.31
0.5,-1.08,0.31
0.5,-1.11,0.31
0.5,-1.14,0.3
0.49,-1.17,0.28
0.47,-1.19,0.27
0.46,-1.2,0.27
0.46,-1.22,0.27
0.45,-1.24,0.24
0.44,-1.27,0.22
0.43,-1.4,0.2
0.36,-1.43,0.19
0.35,-1.4,0.17
0.35,-1.34,0.15
0.35,-1.28,0.14
0.36,-1.24,0.12
0.37,-1.22,0.09
0.37,-1.22,0.07
0.36,-1.21,0.04
0.34,-1.19,0.03
0.33,-1.16,0.02
0.32,-1.13,0.01
0.32,-1.13,0
0.32,-1.16,0
0.33,-1.22,-0.01
0.35,-1.32,-0.03
0.36,-1.42,-0.04
0.34,-1.51,-0.03
0.3,-1.55,-0.03
0.25,-1.54,-0.03
0.19,-1.46,-0.04
0.16,-1.35,-0.05
0.14,-1.22,-0.06
0.13,-1.11,-0.06
0.12,-1.01,-0.05
0.11,-0.92,-0.05
0.12,-0.84,-0.06
0.17,-0.74,-0.06
0.19,-0.71,-0.06
0.19,-0.68,-0.05
0.2,-0.66,-0.04
0.21,-0.65,-0.04
0.21,-0.64,-0.04
0.21,-0.65,-0.04
0.2,-0.66,-0.05
0.18,-0.68,-0.05
0.17,-0.71,-0.05
0.16,-0.75,-0.05
0.16,-0.78,-0.05
0.15,-0.8,-0.03
0.14,-0.8,-0.02
0.14,-0.8,-0.02
0.15,-0.79,-0.02
0.17,-0.79,-0.02
0.18,-0.79,-0.02
0.19,-0.79,-0.01
0.19,-0.79,-0.01
0.21,-0.79,0
0.21,-0.8,0.01
0.23,-0.81,0.01
0.23,-0.82,0.02
0.24,-0.83,0.02
0.26,-0.85,0.01
0.28,-0.92,0.03
0.29,-0.96,0.04
0.31,-1,0.05
0.33,-1.06,0.06
0.35,-1.12,0.07
0.37,-1.19,0.08
0.36,-1.27,0.1
0.36,-1.33,0.13
0.42,-1.45,0.11
0.47,-1.57,0.12
0.41,-1.62,0.15
0.35,-1.65,0.16
0.4,-1.7,0.19
0.37,-1.74,0.23
0.38,-1.7,0.26
0.45,-1.63,0.32
0.45,-1.55,0.33
0.43,-1.37,0.34
0.42,-1.28,0.25
0.47,-1.22,0.15
0.54,-1.08,0.21
0.62,-1.03,0.21
0.64,-1.08,0.23
0.51,-1.15,0.3
0.41,-1.2,0.33
0.42,-1.22,0.3
0.46,-1.2,0.27
0.47,-1.17,0.24
0.46,-1.13,0.23
0.46,-1.09,0.22
0.47,-1.05,0.21
0.48,-1.02,0.2
0.48,-1.01,0.18
0.48,-1,0.16
0.48,-1,0.16
0.48,-0.99,0.15
0.47,-0.98,0.16
0.47,-0.96,0.15
0.47,-0.94,0.15
0.47,-0.91,0.16
0.47,-0.89,0.18
0.48,-0.87,0.19
0.47,-0.87,0.2
0.47,-0.87,0.19
0.49,-0.88,0.19
0.5,-0.89,0.2
0.49,-0.89,0.21
0.46,-0.9,0.23
0.44,-0.9,0.23
0.43,-0.92,0.24
0.42,-0.94,0.24
0.42,-0.96,0.25
0.44,-1.03,0.25
0.45,-1.08,0.25
0.46,-1.11,0.25
0.48,-1.13,0.26
0.49,-1.15,0.28
0.5,-1.17,0.29
0.49,-1.18,0.32
0.49,-1.18,0.34
0.5,-1.2,0.34
0.48,-1.21,0.34
0.47,-1.23,0.33
0.47,-1.28,0.31
0.47,-1.35,0.29
0.44,-1.45,0.26
0.38,-1.52,0.27
0.32,-1.58,0.29
0.28,-1.6,0.3
0.27,-1.55,0.27
0.28,-1.44,0.25
0.29,-1.33,0.23
0.29,-1.25,0.22
0.31,-1.19,0.2
0.32,-1.15,0.17
0.32,-1.15,0.13
0.31,-1.18,0.1
0.3,-1.19,0.07
0.28,-1.13,0.05
0.23,-1.08,0.03
0.22,-1.04,0.01
0.22,-1.03,-0.02
0.23,-1.03,-0.04
0.23,-1.05,-0.06
0.23,-1.06,-0.06
0.22,-1.06,-0.06
0.22,-1.06,-0.07
0.23,-1.04,-0.07
0.22,-1.01,-0.08
0.2,-0.95,-0.08
0.19,-0.89,-0.09
0.18,-0.83,-0.08
0.17,-0.78,-0.08
0.17,-0.73,-0.08
0.16,-0.69,-0.08
0.16,-0.65,-0.09
0.15,-0.63,-0.09
0.15,-0.61,-0.09
0.15,-0.6,-0.08
0.15,-0.6,-0.08
0.16,-0.6,-0.08
0.17,-0.62,-0.08
0.19,-0.65,-0.08
0.21,-0.67,-0.08
0.22,-0.74,-0.07
0.24,-0.77,-0.06
0.25,-0.8,-0.05
0.26,-0.83,-0.05
0.26,-0.86,-0.04
0.27,-0.89,-0.03
0.27,-0.93,-0.02
0.29,-0.96,-0.01
0.29,-0.99,0.01
0.29,-1.01,0.03
0.29,-1.05,0.04
0.3,-1.09,0.06
0.3,-1.11,0.09
0.31,-1.11,0.12
0.33,-1.13,0.14
0.36,-1.16,0.14
0.37,-1.17,0.14
0.36,-1.17,0.15
0.36,-1.19,0.16
0.37,-1.19,0.16
0.34,-1.19,0.21
0.3,-1.2,0.27
0.36,-1.23,0.24
0.39,-1.23,0.18
0.34,-1.22,0.23
0.29,-1.26,0.32
0.36,-1.32,0.26
0.42,-1.38,0.2
0.35,-1.31,0.23
0.33,-1.33,0.27
0.38,-1.33,0.23
0.46,-1.29,0.19
0.5,-1.28,0.14
0.57,-1.29,0.15
0.47,-1.25,0.22
0.3,-1.24,0.28
0.33,-1.26,0.29
0.4,-1.22,0.28
0.42,-1.16,0.26
0.41,-1.08,0.23
0.39,-0.99,0.21
0.38,-0.91,0.19
0.39,-0.87,0.18
0.38,-0.87,0.18
0.39,-0.9,0.18
0.4,-0.96,0.18
0.41,-1.02,0.17
0.4,-1.09,0.18
0.39,-1.14,0.19
0.38,-1.17,0.2
0.39,-1.16,0.2
0.4,-1.11,0.2
0.42,-1.06,0.19
0.48,-0.97,0.18
0.5,-0.94,0.17
0.51,-0.92,0.18
0.52,-0.9,0.19
0.52,-0.89,0.22
0.51,-0.89,0.24
0.48,-0.89,0.26
0.46,-0.89,0.28
0.44,-0.89,0.28
0.43,-0.89,0.28
0.43,-0.89,0.28
0.45,-0.88,0.29
0.5,-0.88,0.29
0.53,-0.89,0.29
0.54,-0.9,0.29
0.55,-0.93,0.29
0.56,-0.96,0.28
0.57,-0.98,0.26
0.57,-1.01,0.26
0.57,-1.05,0.25
0.57,-1.09,0.24
0.56,-1.12,0.25
0.55,-1.15,0.26
0.56,-1.18,0.25
0.56,-1.2,0.24
0.56,-1.22,0.26
0.55,-1.31,0.26
0.54,-1.38,0.25
0.53,-1.45,0.24
0.51,-1.5,0.24
0.49,-1.53,0.25
0.46,-1.52,0.25
0.44,-1.5,0.24
0.41,-1.49,0.24
0.37,-1.47,0.23
0.39,-1.45,0.18
0.41,-1.47,0.16
0.38,-1.49,0.15
0.34,-1.48,0.15
0.3,-1.41,0.15
0.28,-1.31,0.14
0.27,-1.2,0.14
0.26,-1.14,0.11
0.25,-1.11,0.07
0.24,-1.1,0.04
0.22,-1.09,0.02
0.19,-1.07,0.01
0.17,-1.04,0.01
0.15,-1.01,0.01
0.14,-0.99,0
0.13,-0.96,-0.02
0.13,-0.94,-0.03
0.11,-0.88,-0.04
0.1,-0.84,-0.04
0.1,-0.79,-0.05
0.11,-0.75,-0.05
0.11,-0.7,-0.06
0.12,-0.67,-0.06
0.12,-0.65,-0.06
0.12,-0.63,-0.06
0.13,-0.62,-0.06
0.13,-0.63,-0.07
0.12,-0.63,-0.08
0.12,-0.64,-0.08
0.12,-0.66,-0.06
0.12,-0.69,-0.06
0.13,-0.7,-0.06
0.12,-0.71,-0.06
0.12,-0.72,-0.06
0.13,-0.75,-0.06
0.15,-0.79,-0.07
0.17,-0.83,-0.08
0.18,-0.87,-0.08
0.19,-0.91,-0.08
0.2,-0.95,-0.07
0.22,-0.98,-0.07
0.24,-1,-0.07
0.25,-1.03,-0.07
0.25,-1.07,-0.02
0.27,-1.07,0.01
0.28,-1.08,0.03
0.31,-1.09,0.04
0.33,-1.12,0.05
0.35,-1.15,0.07
0.37,-1.18,0.1
0.41,-1.25,0.14
0.43,-1.3,0.18
0.41,-1.34,0.22
0.42,-1.41,0.23
0.44,-1.61,0.22
0.43,-1.66,0.28
0.38,-1.67,0.37
0.37,-1.63,0.42
0.47,-1.54,0.4
0.53,-1.41,0.39
0.5,-1.3,0.34
0.48,-1.21,0.3
0.49,-1.17,0.26
0.54,-1.2,0.21
0.62,-1.26,0.2
0.68,-1.3,0.22
0.71,-1.34,0.23
0.68,-1.26,0.25
0.63,-1.17,0.25
0.62,-1.1,0.24
0.61,-1.04,0.23
0.57,-0.97,0.26
0.55,-0.92,0.28
0.55,-0.88,0.27
0.55,-0.86,0.28
0.57,-0.84,0.27
0.57,-0.82,0.25
0.58,-0.79,0.27
0.58,-0.79,0.29
0.55,-0.82,0.3
0.56,-0.83,0.31
0.58,-0.85,0.32
0.58,-0.88,0.33
0.56,-0.91,0.34
0.53,-0.94,0.34
0.51,-0.94,0.34
0.5,-0.96,0.33
0.49,-0.96,0.34
0.49,-0.97,0.35
0.49,-0.98,0.36
0.5,-1.01,0.35
0.5,-1.05,0.34
0.5,-1.09,0.33
0.49,-1.12,0.33
0.47,-1.14,0.33
0.46,-1.15,0.33
0.45,-1.15,0.32
0.44,-1.16,0.32
0.43,-1.17,0.3
0.42,-1.19,0.29
0.4,-1.21,0.27
0.39,-1.21,0.27
0.38,-1.21,0.27
0.39,-1.23,0.25
0.4,-1.28,0.23
0.4,-1.32,0.23
0.38,-1.34,0.23
0.36,-1.35,0.22
0.36,-1.36,0.2
0.34,-1.37,0.19
0.33,-1.36,0.18
0.31,-1.31,0.15
0.27,-1.24,0.14
0.26,-1.2,0.12
0.29,-1.23,0.1
0.33,-1.31,0.08
0.34,-1.37,0.05
0.33,-1.4,0.02
0.31,-1.42,-0.01
0.28,-1.4,-0.06
0.21,-1.26,-0.08
0.06,-0.76,-0.08
0.06,-0.71,-0.07
0.07,-0.68,-0.07
0.08,-0.67,-0.08
0.1,-0.68,-0.07
0.13,-0.71,-0.08
0.16,-0.75,-0.09
0.19,-0.8,-0.11
0.19,-0.84,-0.12
0.19,-0.87,-0.11
0.17,-0.89,-0.1
0.16,-0.89,-0.11
0.16,-0.9,-0.11
0.14,-0.88,-0.11
0.11,-0.86,-0.09
0.1,-0.83,-0.08
0.09,-0.79,-0.08
0.09,-0.76,-0.07
0.09,-0.74,-0.07
0.09,-0.74,-0.06
0.12,-0.75,-0.06
0.14,-0.78,-0.05
0.16,-0.81,-0.05
0.18,-0.84,-0.06
0.2,-0.86,-0.06
0.22,-0.88,-0.06
0.24,-0.91,-0.06
0.25,-0.95,-0.05
0.29,-1.09,-0.03
0.3,-1.15,-0.02
0.3,-1.21,-0.03
0.31,-1.25,-0.02
0.3,-1.3,-0.01
0.29,-1.32,0.05
0.34,-1.38,0.05
0.43,-1.45,0.02
0.42,-1.45,0.08
0.37,-1.49,0.13
0.37,-1.53,0.17
0.42,-1.54,0.22
0.56,-1.49,0.29
0.57,-1.34,0.31
0.43,-1.22,0.29
0.23,-1.26,0.44
0.32,-1.37,0.14
0.93,-1.35,-0.02
0.86,-1.28,0.03
0.67,-1.26,0.11
0.66,-1.28,0.12
0.68,-1.31,0.16
0.55,-1.25,0.27
0.49,-1.17,0.31
0.52,-1.12,0.29
0.52,-1.08,0.27
0.48,-1.03,0.28
0.47,-1,0.27
0.48,-0.98,0.28
0.49,-0.95,0.29
0.48,-0.93,0.31
0.48,-0.92,0.33
0.5,-0.9,0.33
0.51,-0.88,0.35
0.51,-0.87,0.39
0.53,-0.87,0.4
0.57,-0.88,0.4
0.6,-0.91,0.39
0.63,-0.94,0.39
0.64,-0.97,0.38
0.64,-1,0.37
0.63,-1.04,0.35
0.61,-1.08,0.34
0.54,-1.09,0.34
0.51,-1.1,0.34
0.5,-1.12,0.33
0.5,-1.12,0.32
0.51,-1.13,0.31
0.5,-1.12,0.3
0.47,-1.12,0.3
0.45,-1.13,0.29
0.43,-1.15,0.29
0.43,-1.16,0.28
0.43,-1.17,0.28
0.42,-1.18,0.28
0.4,-1.2,0.29
0.39,-1.23,0.27
0.4,-1.27,0.25
0.4,-1.32,0.24
0.41,-1.38,0.22
0.42,-1.39,0.2
0.44,-1.38,0.19
0.43,-1.34,0.18
0.39,-1.27,0.17
0.36,-1.21,0.16
0.36,-1.2,0.14
0.37,-1.23,0.11
0.36,-1.28,0.07
0.32,-1.32,0.03
0.28,-1.4,0.02
0.29,-1.48,0.02
0.31,-1.58,0.01
0.32,-1.67,-0.01
0.3,-1.71,-0.03
0.25,-1.65,-0.04
0.2,-1.5,-0.05
0.18,-1.31,-0.07
0.18,-1.12,-0.06
0.18,-0.95,-0.05
0.18,-0.81,-0.03
0.18,-0.7,-0.02
0.21,-0.65,-0.02
0.23,-0.63,-0.05
0.25,-0.64,-0.07
0.25,-0.67,-0.07
0.24,-0.69,-0.07
0.23,-0.7,-0.07
0.21,-0.7,-0.07
0.19,-0.7,-0.07
0.18,-0.69,-0.07
0.16,-0.7,-0.07
0.15,-0.71,-0.06
0.14,-0.71,-0.06
0.14,-0.72,-0.05
0.13,-0.73,-0.05
0.1,-0.72,-0.04
0.09,-0.7,-0.04
0.1,-0.7,-0.04
0.12,-0.7,-0.05
0.13,-0.69,-0.05
0.13,-0.69,-0.04
0.13,-0.7,-0.04
0.14,-0.72,-0.03
0.18,-0.73,-0.02
0.21,-0.75,-0.01
0.24,-0.78,-0.02
0.25,-0.81,-0.03
0.28,-0.85,-0.03
0.3,-0.88,-0.03
0.32,-0.92,-0.04
0.33,-0.96,-0.04
0.34,-0.99,-0.03
0.37,-1.04,0
0.39,-1.09,0.03
0.38,-1.15,0.07
0.38,-1.22,0.09
0.42,-1.34,0.09
0.45,-1.47,0.11
0.42,-1.57,0.14
0.39,-1.64,0.15
0.34,-1.73,0.23
0.46,-1.79,0.24
0.36,-1.77,0.29
0.35,-1.7,0.37
0.4,-1.57,0.44
0.46,-1.4,0.47
0.47,-1.21,0.48
0.45,-1.07,0.44
0.44,-1.05,0.34
0.49,-1.05,0.36
0.56,-1.13,0.41
0.55,-1.25,0.42
0.58,-1.34,0.41
0.64,-1.38,0.4
0.62,-1.37,0.4
0.57,-1.34,0.41
0.57,-1.28,0.41
0.64,-1.22,0.42
0.65,-1.15,0.45
0.6,-1.07,0.45
0.5,-1,0.46
0.57,-0.93,0.47
0.71,-0.84,0.44
0.68,-0.81,0.41
0.64,-0.8,0.4
0.64,-0.79,0.37
0.65,-0.8,0.35
0.61,-0.86,0.3
0.58,-0.87,0.27
0.56,-0.9,0.25
0.54,-0.93,0.23
0.53,-0.95,0.23
0.5,-0.97,0.22
0.5,-1,0.2
0.51,-1.03,0.18
0.5,-1.05,0.15
0.48,-1.05,0.13
0.46,-1.05,0.12
0.45,-1.03,0.12
0.44,-1.03,0.14
0.41,-1.04,0.16
0.4,-1.04,0.2
0.4,-1.05,0.23
0.42,-1.06,0.27
0.45,-1.07,0.34
0.49,-1.09,0.41
0.54,-1.11,0.47
0.59,-1.13,0.51
0.6,-1.14,0.51
0.57,-1.16,0.51
0.55,-1.19,0.51
0.53,-1.23,0.5
0.5,-1.29,0.48
0.46,-1.46,0.48
0.35,-1.54,0.45
0.34,-1.6,0.41
0.33,-1.64,0.36
0.32,-1.63,0.32
0.31,-1.55,0.28
0.31,-1.4,0.25
0.32,-1.24,0.23
0.32,-1.11,0.21
0.34,-1.03,0.17
0.36,-1,0.12
0.36,-1.04,0.07
0.34,-1.13,0.03
0.32,-1.23,0
0.31,-1.34,-0.02
0.3,-1.47,-0.05
0.28,-1.53,-0.06
0.23,-1.51,-0.06
0.17,-1.4,-0.05
0.12,-1.2,-0.05
0.09,-1.01,-0.05
0.08,-0.87,-0.04
0.09,-0.74,-0.03
0.1,-0.62,-0.02
0.11,-0.54,-0.02
0.15,-0.48,-0.03
0.18,-0.44,-0.04
0.19,-0.44,-0.03
0.19,-0.45,-0.02
0.19,-0.47,-0.02
0.19,-0.51,-0.02
0.18,-0.56,-0.03
0.18,-0.61,-0.04
0.17,-0.65,-0.04
0.15,-0.68,-0.04
0.15,-0.71,-0.04
0.16,-0.74,-0.04
0.17,-0.76,-0.04
0.17,-0.77,-0.05
0.18,-0.78,-0.05
0.21,-0.79,-0.06
0.23,-0.8,-0.06
0.24,-0.81,-0.05
0.25,-0.81,-0.05
0.26,-0.81,-0.06
0.29,-0.81,-0.05
0.31,-0.82,-0.03
0.32,-0.83,-0.01
0.36,-0.85,0.04
0.41,-0.88,0.09
0.46,-0.93,0.12
0.47,-0.98,0.15
0.46,-1.09,0.14
0.46,-1.15,0.14
0.43,-1.21,0.17
0.41,-1.29,0.18
0.38,-1.37,0.2
0.34,-1.41,0.23
0.33,-1.44,0.25
0.33,-1.47,0.27
0.39,-1.52,0.27
0.43,-1.54,0.3
0.4,-1.54,0.32
0.39,-1.56,0.29
0.45,-1.56,0.21
0.5,-1.52,0.16
0.49,-1.47,0.18
0.48,-1.45,0.21
0.5,-1.43,0.21
0.55,-1.42,0.19
0.57,-1.37,0.2
0.53,-1.27,0.22
0.49,-1.19,0.21
0.51,-1.1,0.19
0.52,-1.03,0.17
0.8,-1.01,0.17
0.44,-1.04,0.18
0.43,-1.08,0.2
0.44,-1.12,0.22
0.42,-1.16,0.23
0.42,-1.15,0.24
0.43,-1.12,0.24
0.44,-1.08,0.23
0.46,-1.03,0.23
0.47,-0.99,0.23
0.49,-0.96,0.23
0.51,-0.93,0.24
0.52,-0.9,0.25
0.53,-0.89,0.26
0.52,-0.87,0.28
0.51,-0.86,0.29
0.51,-0.86,0.29
0.52,-0.86,0.3
0.52,-0.87,0.32
0.53,-0.89,0.33
0.53,-0.91,0.34
0.53,-0.94,0.35
0.54,-0.96,0.35
0.55,-0.97,0.35
0.56,-0.99,0.36
0.56,-1,0.37
0.56,-1.03,0.36
0.56,-1.05,0.36
0.55,-1.06,0.37
0.54,-1.07,0.37
0.54,-1.1,0.35
0.54,-1.11,0.33
0.54,-1.1,0.34
0.53,-1.11,0.33
0.5,-1.12,0.32
0.48,-1.1,0.32
0.48,-1.11,0.29
0.49,-1.15,0.24
0.5,-1.18,0.2
0.45,-1.24,0.18
0.39,-1.28,0.19
0.36,-1.29,0.23
0.27,-1.27,0.26
0.26,-1.25,0.21
0.33,-1.27,0.12
0.36,-1.32,0.06
0.38,-1.35,0.04
0.37,-1.36,0.03
0.37,-1.36,0.02
0.37,-1.35,0.02
0.37,-1.39,0.01
0.38,-1.47,0.01
0.39,-1.53,0
0.37,-1.57,0
0.33,-1.58,0
0.28,-1.55,-0.01
0.26,-1.41,-0.04
0.22,-1.33,-0.05
0.19,-1.24,-0.05
0.17,-1.16,-0.05
0.18,-1.09,-0.05
0.2,-0.92,-0.06
0.2,-0.92,-0.06
0.2,-0.88,-0.07
0.19,-0.85,-0.07
0.17,-0.83,-0.06
0.16,-0.81,-0.06
0.14,-0.78,-0.06
0.12,-0.76,-0.05
0.09,-0.74,-0.05
0.08,-0.72,-0.05
0.08,-0.72,-0.04
0.07,-0.72,-0.04
0.06,-0.72,-0.04
0.07,-0.72,-0.05
0.09,-0.72,-0.06
0.09,-0.7,-0.06
0.09,-0.68,-0.07
0.1,-0.66,-0.08
0.11,-0.64,-0.08
0.11,-0.64,-0.09
0.15,-0.65,-0.1
0.16,-0.67,-0.1
0.18,-0.69,-0.1
0.19,-0.71,-0.1
0.21,-0.74,-0.1
0.23,-0.77,-0.11
0.24,-0.82,-0.11
0.26,-0.85,-0.12
0.28,-0.9,-0.11
0.31,-0.93,-0.11
0.33,-0.98,-0.1
0.35,-1.04,-0.09
0.36,-1.1,-0.09
0.36,-1.16,-0.08
0.34,-1.21,-0.06
0.32,-1.25,-0.05
0.31,-1.3,-0.03
0.32,-1.37,0
0.36,-1.41,0.02
0.37,-1.45,0.04
0.38,-1.53,0.09
0.39,-1.62,0.12
0.46,-1.68,0.09
0.48,-1.65,0.05
0.37,-1.64,0.12
0.36,-1.61,0.2
0.43,-1.37,0.28
0.33,-1.44,0.3
0.6,-1.43,0.25
0.8,-1.43,0.27
0.8,-1.42,0.25
0.83,-1.31,0.24
0.63,-0.95,0.26
0.63,-0.94,0.27
0.63,-0.94,0.27
0.62,-0.95,0.28
0.62,-0.94,0.28
0.63,-0.98,0.26
0.62,-0.99,0.25
0.58,-1.01,0.25
0.54,-1.03,0.25
0.51,-1.05,0.25
0.48,-1.07,0.24
0.46,-1.09,0.23
0.45,-1.1,0.21
0.44,-1.12,0.2
0.43,-1.13,0.2
0.42,-1.13,0.2
0.41,-1.13,0.21
0.41,-1.13,0.2
0.42,-1.15,0.19
0.44,-1.18,0.19
0.46,-1.32,0.16
0.46,-1.32,0.16
0.46,-1.38,0.16
0.44,-1.41,0.15
0.39,-1.4,0.13
0.36,-1.32,0.12
0.35,-1.24,0.11
0.36,-1.21,0.09
0.4,-1.23,0.07
0.43,-1.27,0.07
0.43,-1.3,0.06
0.38,-1.27,0.05
0.34,-1.26,0.04
0.34,-1.25,0.01
0.34,-1.31,0
0.34,-1.39,0
0.31,-1.45,0
0.27,-1.49,-0.02
0.25,-1.48,-0.03
0.23,-1.43,-0.05
0.2,-1.32,-0.05
0.17,-1.19,-0.06
0.16,-1.06,-0.07
0.16,-0.96,-0.07
0.16,-0.89,-0.07
0.17,-0.85,-0.07
0.18,-0.84,-0.08
0.18,-0.86,-0.1
0.18,-0.88,-0.1
0.19,-0.88,-0.08
0.19,-0.86,-0.09
0.17,-0.84,-0.08
0.15,-0.82,-0.08
0.15,-0.78,-0.08
0.16,-0.76,-0.08
0.13,-0.73,-0.08
0.1,-0.72,-0.08
0.08,-0.71,-0.08
0.07,-0.7,-0.08
0.08,-0.7,-0.08
0.08,-0.7,-0.08
0.08,-0.71,-0.06
0.05,-0.73,0
-0.01,-0.77,0.03
0.1,-0.81,-0.01
0.27,-0.84,-0.03
0.29,-0.87,-0.01
0.22,-0.9,0.03
0.28,-0.93,-0.04
0.4,-0.92,-0.15
0.32,-0.9,-0.12
0.23,-0.92,-0.09
0.25,-0.96,-0.06
0.28,-0.98,-0.02
0.3,-1,0
0.32,-1.02,0.01
0.33,-1.03,0.02
0.34,-1.04,0.03
0.35,-1.05,0.05
0.36,-1.07,0.06
0.36,-1.09,0.06
0.36,-1.13,0.06
0.36,-1.25,0.08
0.34,-1.32,0.1
0.36,-1.4,0.09
0.37,-1.46,0.1
0.37,-1.48,0.09
0.32,-1.5,0.1
0.33,-1.49,0.11
0.37,-1.46,0.11
0.44,-1.39,0.13
0.49,-1.26,0.12
0.44,-1.13,0.11
0.62,-1.36,0.02
0.62,-1.36,0.02
0.55,-1.43,0.06
0.44,-1.46,0.14
0.39,-1.45,0.18
0.42,-1.38,0.18
0.47,-1.29,0.17
0.48,-1.22,0.16
0.47,-1.15,0.16
0.52,-1.08,0.15
0.54,-1.01,0.16
0.53,-0.95,0.15
0.57,-0.93,0.14
0.56,-0.93,0.13
0.54,-0.93,0.13
0.53,-0.93,0.14
0.51,-0.92,0.16
0.5,-0.91,0.17
0.49,-0.9,0.19
0.48,-0.89,0.21
0.47,-0.89,0.24
0.47,-0.89,0.26
0.47,-0.9,0.26
0.48,-0.9,0.25
0.49,-0.9,0.26
0.51,-0.91,0.26
0.51,-0.92,0.28
0.52,-0.93,0.29
0.52,-0.95,0.32
0.53,-0.99,0.32
0.53,-1.03,0.3
0.55,-1.07,0.29
0.54,-1.11,0.28
0.53,-1.14,0.26
0.53,-1.16,0.25
0.52,-1.18,0.24
0.5,-1.2,0.23
0.49,-1.21,0.22
0.49,-1.28,0.21
0.48,-1.35,0.2
0.45,-1.41,0.17
0.41,-1.44,0.15
0.37,-1.45,0.14
0.36,-1.4,0.11
0.34,-1.35,0.08
0.28,-1.31,0.09
0.19,-1.25,0.09
0.21,-1.19,0.04
0.26,-1.18,-0.02
0.26,-1.2,-0.04
0.28,-1.23,-0.05
0.28,-1.27,-0.06
0.26,-1.28,-0.06
0.24,-1.24,-0.06
0.22,-1.19,-0.06
0.23,-1.13,-0.06
0.26,-1.1,-0.07
0.29,-1.11,-0.08
0.29,-1.14,-0.08
0.29,-1.16,-0.09
0.27,-1.18,-0.09
0.26,-1.2,-0.1
0.24,-1.22,-0.09
0.23,-1.23,-0.08
0.2,-1.21,-0.07
0.18,-1.16,-0.07
0.16,-1.11,-0.08
0.15,-1.04,-0.07
0.13,-0.97,-0.07
0.12,-0.91,-0.07
0.13,-0.87,-0.07
0.13,-0.83,-0.07
0.12,-0.81,-0.07
0.12,-0.79,-0.06
0.12,-0.78,-0.06
0.11,-0.78,-0.06
0.1,-0.76,-0.04
0.05,-0.78,-0.01
-0.06,-0.78,0.01
-0.21,-0.74,0.01
-0.3,-0.72,0.05
-0.17,-0.76,0.05
0.1,-0.8,-0.02
0.22,-0.83,-0.05
0.19,-0.87,-0.04
0.13,-0.89,-0.02
0.12,-0.89,-0.02
0.16,-0.89,-0.03
0.19,-0.91,-0.04
0.17,-0.94,-0.02
0.18,-0.99,-0.01
0.21,-1.01,-0.01
0.23,-1.02,-0.01
0.25,-1.03,0
0.25,-1.03,0.01
0.26,-1.02,0.02
0.27,-1.03,0.03
0.28,-1.03,0.03
0.29,-1.04,0.04
0.28,-1.05,0.06
0.29,-1.08,0.07
0.31,-1.09,0.09
0.33,-1.16,0.1
0.38,-1.27,0.1
0.38,-1.32,0.09
0.41,-1.52,0.08
0.41,-1.52,0.08
0.32,-1.49,0.1
0.26,-1.42,0.13
0.29,-1.33,0.13
0.34,-1.23,0.12
0.37,-1.08,0.14
0.37,-0.98,0.13
0.45,-0.92,0.04
0.59,-0.98,0.03
0.58,-1.06,0.05
0.53,-1.16,0.08
0.45,-1.26,0.12
0.43,-1.33,0.15
0.43,-1.33,0.18
0.4,-1.31,0.2
0.36,-1.28,0.21
0.34,-1.21,0.21
0.35,-1.14,0.21
0.37,-1.05,0.21
0.38,-0.97,0.21
0.41,-0.92,0.21
0.44,-0.88,0.21
0.47,-0.84,0.2
0.5,-0.82,0.2
0.52,-0.81,0.2
0.53,-0.81,0.21
0.52,-0.82,0.21
0.5,-0.83,0.23
0.49,-0.86,0.24
0.48,-0.89,0.26
0.46,-0.92,0.27
0.45,-0.94,0.28
0.43,-0.96,0.29
0.42,-0.99,0.29
0.43,-0.99,0.29
0.43,-0.99,0.29
0.43,-0.99,0.29
0.44,-0.99,0.29
0.45,-1,0.28
0.45,-1.01,0.27
0.44,-1.03,0.27
0.44,-1.06,0.25
0.44,-1.08,0.23
0.42,-1.09,0.23
0.42,-1.1,0.23
0.42,-1.1,0.23
0.42,-1.09,0.24
0.4,-1.09,0.27
0.42,-1.1,0.27
0.46,-1.13,0.25
0.43,-1.18,0.23
0.39,-1.23,0.25
0.39,-1.32,0.25
0.39,-1.39,0.24
0.38,-1.42,0.24
0.34,-1.44,0.24
0.3,-1.41,0.24
0.3,-1.35,0.21
0.28,-1.28,0.22
0.25,-1.17,0.2
0.28,-0.97,0.19
0.3,-0.9,0.16
0.33,-0.9,0.11
0.36,-0.96,0.07
0.37,-1.05,0.04
0.37,-1.16,0.01
0.36,-1.27,0
0.34,-1.37,-0.01
0.32,-1.44,-0.03
0.28,-1.48,-0.05
0.23,-1.49,-0.07
0.2,-1.46,-0.08
0.2,-1.44,-0.08
0.21,-1.41,-0.09
0.2,-1.34,-0.09
0.17,-1.26,-0.1
0.16,-1.15,-0.11
0.16,-1.03,-0.11
0.15,-0.91,-0.1
0.14,-0.82,-0.1
0.14,-0.75,-0.09
0.15,-0.69,-0.09
0.16,-0.66,-0.09
0.16,-0.63,-0.09
0.16,-0.63,-0.09
0.16,-0.64,-0.09
0.15,-0.67,-0.09
0.36,-0.83,-0.18
0.26,-0.84,-0.18
0.18,-0.84,-0.15
0.17,-0.86,-0.11
0.19,-0.87,-0.08
0.22,-0.89,-0.02
0.22,-0.89,-0.02
0.22,-0.9,0
0.24,-0.9,0.02
0.26,-0.9,0.05
0.27,-0.9,0.06
0.28,-0.91,0.07
0.29,-0.94,0.06
0.29,-0.99,0.06
0.29,-1.04,0.06
0.3,-1.12,0.06
0.32,-1.3,0.08
0.33,-1.39,0.09
0.37,-1.43,0.08
0.38,-1.44,0.1
0.37,-1.43,0.12
0.4,-1.4,0.13
0.45,-1.35,0.14
0.49,-1.33,0.19
0.51,-1.31,0.28
0.53,-1.3,0.28
0.56,-1.34,0.21
0.61,-1.34,0.22
0.74,-1.3,0.18
0.78,-1.2,0.09
0.69,-1.08,0.1
0.64,-1,0.12
0.51,-0.97,0.15
0.35,-1,0.24
0.36,-1.03,0.28
0.41,-1.08,0.28
0.42,-1.11,0.28
0.4,-1.16,0.28
0.38,-1.18,0.29
0.4,-1.18,0.28
0.43,-1.16,0.26
0.45,-1.12,0.25
0.45,-1.03,0.23
0.46,-1,0.23
0.47,-0.98,0.23
0.47,-0.97,0.23
0.47,-0.95,0.23
0.47,-0.95,0.23
0.48,-0.94,0.23
0.46,-0.94,0.24
0.45,-0.93,0.25
0.43,-0.92,0.25
0.42,-0.91,0.26
0.41,-0.9,0.27
0.41,-0.89,0.28
0.42,-0.89,0.27
0.42,-0.9,0.28
0.42,-0.92,0.29
0.42,-0.94,0.3
0.41,-0.96,0.31
0.41,-0.98,0.31
0.41,-1,0.32
0.44,-1.03,0.32
0.45,-1.06,0.31
0.45,-1.08,0.29
0.45,-1.09,0.27
0.46,-1.09,0.27
0.49,-1.09,0.26
0.51,-1.07,0.23
0.51,-1.06,0.21
0.52,-1.07,0.21
0.52,-1.11,0.19
0.51,-1.16,0.17
0.5,-1.24,0.15
0.51,-1.32,0.13
0.5,-1.39,0.14
0.46,-1.44,0.16
0.43,-1.45,0.17
0.45,-1.42,0.15
0.45,-1.38,0.12
0.43,-1.35,0.11
0.41,-1.31,0.11
0.4,-1.24,0.1
0.41,-1.16,0.09
0.4,-1.09,0.08
0.38,-1.04,0.07
0.35,-1,0.08
0.34,-0.97,0.07
0.35,-0.97,0.04
0.34,-1,0.01
0.31,-1.03,-0.01
0.29,-1.05,-0.01
0.27,-1.06,-0.02
0.24,-1.06,-0.04
0.21,-1.03,-0.06
0.17,-1.01,-0.07
0.17,-1,-0.08
0.17,-0.99,-0.08
0.16,-0.98,-0.08
0.16,-0.97,-0.08
0.08,-0.95,-0.04
0.02,-0.94,-0.01
0,-0.9,-0.1
-0.08,-0.78,-0.18
-0.16,-0.67,-0.19
-0.17,-0.65,-0.14
-0.11,-0.68,-0.06
-0.06,-0.71,0
0.02,-0.73,0.01
0.1,-0.75,0.01
0.12,-0.77,0.01
0.14,-0.78,0
0.16,-0.79,-0.02
0.19,-0.8,-0.03
0.19,-0.82,-0.04
0.18,-0.85,-0.05
0.18,-0.88,-0.04
0.19,-0.91,-0.04
0.2,-0.94,-0.03
0.21,-0.97,-0.03
0.22,-1,-0.03
0.24,-1.03,-0.03
0.25,-1.05,-0.02
0.25,-1.06,-0.01
0.26,-1.06,-0.01
0.27,-1.07,-0.01
0.26,-1.08,0
0.26,-1.08,0.02
0.27,-1.09,0.04
0.29,-1.1,0.06
0.29,-1.11,0.08
0.3,-1.13,0.09
0.29,-1.14,0.13
0.3,-1.18,0.15
0.34,-1.24,0.14
0.35,-1.28,0.15
0.32,-1.32,0.15
0.28,-1.35,0.16
0.3,-1.37,0.17
0.34,-1.39,0.18
0.41,-1.48,0.22
0.38,-1.49,0.23
0.28,-1.4,0.26
0.32,-1.38,0.24
0.44,-1.32,0.19
0.47,-1.24,0.2
0.65,-1.04,0.07
0.53,-0.95,0.08
0.4,-0.92,0.13
0.38,-0.97,0.18
0.41,-1.03,0.21
0.48,-1.1,0.24
0.52,-1.16,0.23
0.54,-1.21,0.21
0.54,-1.23,0.19
0.57,-1.23,0.14
0.62,-1.19,0.08
0.65,-1.14,0.05
0.67,-1.08,0.04
0.68,-1.02,0.04
0.69,-0.98,0.04
0.67,-0.94,0.04
0.66,-0.92,0.03
0.66,-0.89,0.03
0.67,-0.86,0.04
0.67,-0.84,0.04
0.67,-0.83,0.05
0.65,-0.82,0.06
0.63,-0.82,0.07
0.63,-0.81,0.07
0.63,-0.81,0.06
0.63,-0.82,0.06
0.62,-0.83,0.1
0.61,-0.86,0.12
0.62,-0.88,0.14
0.61,-0.9,0.15
0.6,-0.93,0.14
0.61,-0.96,0.14
0.61,-0.99,0.13
0.6,-1.03,0.13
0.58,-1.05,0.14
0.57,-1.06,0.16
0.57,-1.07,0.17
0.57,-1.08,0.19
0.57,-1.1,0.21
0.56,-1.12,0.2
0.56,-1.13,0.17
0.57,-1.14,0.14
0.53,-1.13,0.16
0.53,-1.18,0.13
0.58,-1.24,0.06
0.53,-1.24,0.04
0.47,-1.24,0.04
0.44,-1.22,0.03
0.39,-1.21,0.03
0.38,-1.23,0.02
0.4,-1.27,-0.01
0.37,-1.28,-0.02
0.34,-1.25,-0.03
0.32,-1.29,-0.08
0.32,-1.26,-0.07
0.3,-1.27,-0.06
0.29,-1.28,-0.04
0.3,-1.27,-0.03
0.32,-1.27,-0.04
0.3,-1.23,-0.05
0.26,-1.18,-0.06
0.22,-1.14,-0.07
0.19,-1.12,-0.07
0.17,-1.1,-0.07
0.15,-1.1,-0.07
0.11,-1.1,-0.08
0.11,-1.08,-0.07
0.11,-1.03,-0.06
0.12,-0.98,-0.06
0.13,-0.93,-0.07
0.14,-0.88,-0.07
0.15,-0.84,-0.08
0.17,-0.82,-0.1
0.17,-0.82,-0.12
0.16,-0.8,-0.12
0.15,-0.79,-0.13
0.13,-0.79,-0.14
0.12,-0.79,-0.14
0.11,-0.8,-0.16
0.12,-0.82,-0.16
0.13,-0.83,-0.15
0.14,-0.85,-0.13
0.14,-0.88,-0.12
0.14,-0.89,-0.11
0.13,-0.9,-0.1
0.15,-0.9,-0.1
0.17,-0.91,-0.09
0.16,-0.92,-0.07
0.16,-0.95,-0.04
0.17,-0.97,-0.01
0.18,-0.96,0
0.18,-0.96,0.02
0.18,-0.97,0.05
0.17,-0.97,0.06
0.18,-0.97,0.07
0.18,-0.97,0.08
0.18,-0.99,0.09
0.19,-1.02,0.11
0.18,-1.06,0.13
0.18,-1.09,0.15
0.2,-1.12,0.15
0.21,-1.17,0.15
0.2,-1.24,0.18
0.25,-1.34,0.14
0.32,-1.43,0.1
0.23,-1.47,0.13
0.21,-1.45,0.15
0.26,-1.39,0.13
0.32,-1.26,0.11
0.35,-1.09,0.12
0.36,-0.95,0.13
0.4,-0.86,0.12
0.48,-0.96,0.07
0.55,-1.14,0.03
0.61,-1.33,0
0.61,-1.49,0.03
0.57,-1.6,0.11
0.44,-1.56,0.18
0.38,-1.44,0.2
0.41,-1.35,0.21
0.43,-1.22,0.21
0.42,-1.1,0.21
0.45,-1.01,0.2
0.5,-0.95,0.18
0.52,-0.93,0.17
0.53,-0.94,0.15
0.54,-0.95,0.13
0.54,-0.96,0.11
0.53,-0.96,0.11
0.52,-0.94,0.13
0.51,-0.94,0.15
0.5,-0.94,0.17
0.55,-0.91,0.22
0.54,-0.94,0.21
0.52,-0.98,0.21
0.51,-1.02,0.21
0.5,-1.06,0.2
0.5,-1.09,0.2
0.49,-1.12,0.2
0.49,-1.12,0.21
0.49,-1.11,0.22
0.5,-1.09,0.23
0.33,-1.33,0.15
0.32,-1.36,0.12
0.3,-1.41,0.09
0.27,-1.43,0.08
0.26,-1.44,0.06
0.26,-1.47,0.05
0.26,-1.52,0.04
0.24,-1.58,0.04
0.22,-1.61,0.06
0.23,-1.61,0.05
0.22,-1.58,0.03
0.17,-1.51,0.02
0.13,-1.42,0
0.11,-1.32,-0.02
0.1,-1.22,-0.04
0.09,-1.16,-0.05
0.1,-1.13,-0.06
0.14,-1.1,-0.06
0.15,-1.09,-0.07
0.15,-1.08,-0.08
0.17,-1.06,-0.07
0.18,-1.04,-0.1
0.18,-1,-0.1
0.19,-0.97,-0.1
0.18,-0.95,-0.09
0.17,-0.94,-0.1
0.15,-0.94,-0.11
0.12,-0.93,-0.12
0.09,-0.92,-0.12
0.09,-0.89,-0.12
0.06,-0.87,-0.12
0.05,-0.84,-0.13
0.03,-0.82,-0.12
-0.01,-0.83,-0.11
0,-0.82,-0.11
0.03,-0.79,-0.11
0.05,-0.78,-0.11
0.05,-0.79,-0.11
0.06,-0.79,-0.1
0.06,-0.8,-0.08
0.08,-0.81,-0.08
0.11,-0.82,-0.09
0.12,-0.82,-0.09
0.12,-0.82,-0.09
0.14,-0.83,-0.08
0.16,-0.84,-0.08
0.18,-0.85,-0.07
0.2,-0.87,-0.07
0.22,-0.92,-0.06
0.23,-0.95,-0.04
0.25,-0.98,-0.03
0.26,-1.01,-0.01
0.25,-1.09,-0.01
0.26,-1.08,0.02
0.28,-1.04,0.04
0.29,-1.09,0.02
0.29,-1.14,0.02
0.29,-1.2,0.03
0.29,-1.28,0.03
0.27,-1.37,0.06
0.24,-1.46,0.07
0.29,-1.52,0.07
0.31,-1.56,0.07
0.31,-1.53,0.05
0.31,-1.4,0.06
0.28,-1.32,0.07
0.31,-1.26,0.08
0.35,-1.15,0.09
0.43,-1.09,0.09
0.48,-1.1,0.06
0.48,-1.16,0.1
0.49,-1.25,0.11
0.52,-1.4,0.08
0.58,-1.56,0.08
0.64,-1.62,0.14
0.55,-1.58,0.2
0.45,-1.52,0.19
0.41,-1.42,0.2
0.44,-1.34,0.2
0.46,-1.24,0.22
0.45,-1.14,0.24
0.48,-1.07,0.23
0.5,-1.02,0.24
0.52,-0.97,0.23
0.52,-0.95,0.21
0.52,-0.93,0.19
0.53,-0.91,0.18
0.52,-0.9,0.18
0.46,-0.89,0.19
0.44,-0.91,0.22
0.5,-0.89,0.25
0.51,-0.89,0.27
0.5,-0.91,0.29
0.52,-0.9,0.29
0.55,-0.9,0.3
0.55,-0.9,0.32
0.55,-0.9,0.34
0.56,-0.91,0.35
0.56,-0.92,0.36
0.55,-0.92,0.37
0.54,-0.93,0.36
0.52,-0.97,0.36
0.5,-0.99,0.35
0.49,-1.01,0.35
0.48,-1.04,0.34
0.47,-1.06,0.34
0.45,-1.08,0.35
0.43,-1.11,0.36
0.42,-1.15,0.35
0.42,-1.18,0.33
0.41,-1.21,0.32
0.39,-1.23,0.31
0.38,-1.26,0.29
0.38,-1.29,0.28
0.37,-1.33,0.26
0.35,-1.4,0.23
0.37,-1.51,0.2
0.38,-1.62,0.17
0.21,-0.93,0.04
0.26,-0.92,0.01
0.29,-1.01,-0.01
0.31,-1.14,-0.03
0.35,-1.32,-0.05
0.39,-1.53,-0.04
0.38,-1.71,-0.02
0.34,-1.8,-0.02
0.23,-1.74,-0.03
0.13,-1.63,-0.04
0.08,-1.51,-0.05
0.03,-1.35,-0.09
0,-1.18,-0.1
-0.02,-1.03,-0.09
-0.03,-0.91,-0.09
-0.02,-0.83,-0.08
0.03,-0.79,-0.09
0.07,-0.77,-0.11
0.1,-0.73,-0.11
0.11,-0.68,-0.11
0.13,-0.64,-0.1
0.17,-0.59,-0.09
0.2,-0.57,-0.09
0.21,-0.57,-0.09
0.24,-0.56,-0.09
0.23,-0.59,-0.09
0.2,-0.63,-0.1
0.17,-0.68,-0.1
0.12,-0.73,-0.11
0.09,-0.73,-0.12
-0.03,-0.73,-0.02
-0.14,-0.77,0.17
-0.06,-0.82,0.22
0.17,-0.84,0.12
0.31,-0.85,-0.01
0.36,-0.85,-0.15
0.36,-0.84,-0.22
0.26,-0.84,-0.17
0.21,-0.88,-0.13
0.21,-0.93,-0.11
0.24,-0.94,-0.07
0.27,-0.97,-0.01
0.26,-0.99,0.01
0.28,-1.03,0.02
0.29,-1.07,0.04
0.31,-1.12,0.06
0.34,-1.12,0.09
0.34,-1.09,0.1
0.33,-1.09,0.09
0.33,-1.1,0.1
0.31,-1.12,0.11
0.29,-1.17,0.12
0.29,-1.23,0.16
0.3,-1.32,0.16
0.34,-1.49,0.14
0.33,-1.52,0.17
0.3,-1.54,0.18
0.34,-1.47,0.19
0.39,-1.38,0.2
0.46,-1.26,0.18
0.46,-1.13,0.15
0.4,-1.09,0.15
0.44,-1.14,0.17
0.5,-1.2,0.2
0.52,-1.29,0.21
0.56,-1.39,0.18
0.65,-1.43,0.15
0.66,-1.41,0.17
0.62,-1.36,0.19
0.55,-1.3,0.25
0.44,-1.23,0.3
0.4,-1.17,0.27
0.45,-1.11,0.23
0.46,-1.07,0.23
0.47,-1.05,0.22
0.46,-1.02,0.22
0.47,-0.99,0.23
0.49,-0.97,0.23
0.48,-0.95,0.23
0.47,-0.94,0.22
0.47,-0.91,0.22
0.46,-0.91,0.23
0.46,-0.91,0.24
0.46,-0.92,0.25
0.46,-0.92,0.26
0.47,-0.93,0.26
0.49,-0.93,0.26
0.5,-0.94,0.26
0.51,-0.95,0.26
0.52,-0.95,0.25
0.52,-0.95,0.25
0.51,-0.96,0.25
0.5,-0.96,0.26
0.49,-0.98,0.26
0.48,-1,0.27
0.47,-1.02,0.27
0.47,-1.04,0.27
0.47,-1.06,0.27
0.48,-1.08,0.28
0.48,-1.09,0.27
0.47,-1.11,0.27
0.46,-1.12,0.26
0.45,-1.12,0.26
0.44,-1.12,0.25
0.43,-1.12,0.25
0.41,-1.12,0.26
0.42,-1.23,0.23
0.41,-1.31,0.2
0.43,-1.38,0.16
0.38,-1.43,0.16
0.31,-1.42,0.15
0.28,-1.37,0.13
0.25,-1.33,0.14
0.23,-1.32,0.14
0.26,-1.3,0.11
0.27,-1.25,0.09
0.23,-1.19,0.09
0.23,-1.15,0.07
0.24,-1.17,0.03
0.26,-1.23,0
0.28,-1.28,-0.02
0.3,-1.35,-0.04
0.3,-1.42,-0.05
0.28,-1.4,-0.03
0.25,-1.37,-0.02
0.22,-1.32,-0.04
0.19,-1.21,-0.05
0.16,-1.12,-0.05
0.14,-1.04,-0.04
0.13,-0.97,-0.03
0.14,-0.92,-0.04
0.15,-0.9,-0.05
0.16,-0.88,-0.05
0.17,-0.86,-0.04
0.18,-0.85,-0.04
0.19,-0.84,-0.04
0.21,-0.82,-0.04
0.23,-0.81,-0.05
0.23,-0.8,-0.05
0.21,-0.8,-0.06
0.19,-0.8,-0.06
0.18,-0.79,-0.05
0.22,-0.87,-0.03
0.22,-0.88,-0.02
0.22,-0.88,-0.02
0.24,-0.89,-0.02
0.25,-0.9,-0.02
0.26,-0.91,0
0.29,-0.96,0.01
0.3,-0.99,0.02
0.3,-1.01,0.04
0.31,-1.03,0.05
0.31,-1.05,0.07
0.31,-1.07,0.07
0.31,-1.09,0.07
0.3,-1.12,0.08
0.27,-1.15,0.09
0.26,-1.18,0.1
0.23,-1.23,0.12
0.29,-1.3,0.12
0.35,-1.36,0.06
0.33,-1.37,0.05
0.31,-1.39,0.09
0.3,-1.42,0.1
0.32,-1.43,0.12
0.35,-1.42,0.13
0.38,-1.38,0.11
0.41,-1.32,0.12
0.42,-1.22,0.11
0.38,-1.11,0.11
0.38,-1.02,0.13
0.41,-1.23,0.18
0.39,-1.23,0.2
0.4,-1.22,0.21
0.38,-1.19,0.2
0.37,-1.15,0.21
0.37,-1.11,0.21
0.38,-1.06,0.21
0.4,-1.02,0.21
0.42,-0.98,0.21
0.44,-0.95,0.2
0.45,-0.93,0.19
0.45,-0.92,0.19
0.45,-0.91,0.19
0.44,-0.9,0.2
0.43,-0.9,0.2
0.42,-0.89,0.21
0.42,-0.89,0.21
0.43,-0.89,0.22
0.43,-0.89,0.23
0.45,-0.9,0.23
0.46,-0.92,0.22
0.47,-0.93,0.22
0.48,-0.96,0.22
0.48,-0.97,0.22
0.48,-0.98,0.22
0.47,-0.98,0.22
0.46,-0.99,0.22
0.46,-1,0.22
0.46,-1.01,0.22
0.46,-1.02,0.22
0.46,-1.04,0.21
0.46,-1.06,0.21
0.45,-1.07,0.21
0.43,-1.08,0.21
0.43,-1.08,0.22
0.42,-1.09,0.22
0.41,-1.11,0.21
0.42,-1.13,0.21
0.44,-1.17,0.19
0.44,-1.24,0.19
0.41,-1.3,0.2
0.35,-1.36,0.19
0.37,-1.39,0.16
0.38,-1.36,0.14
0.29,-1.3,0.15
0.23,-1.26,0.18
0.24,-1.21,0.19
0.24,-1.15,0.17
0.25,-1.19,0.13
0.3,-1.24,0.12
0.32,-1.25,0.11
0.32,-1.29,0.09
0.28,-1.3,0.09
0.27,-1.25,0.09
0.28,-1.18,0.08
0.3,-1.16,0.08
0.31,-1.16,0.07
0.32,-1.17,0.05
0.3,-1.17,0.03
0.27,-1.16,0.03
0.24,-1.15,0.02
0.22,-1.12,0
0.2,-1.09,-0.01
0.18,-1.07,-0.02
0.18,-1.07,-0.03
0.18,-1.07,-0.03
0.18,-1.05,-0.03
0.18,-1.03,-0.03
0.18,-0.99,-0.04
0.19,-0.95,-0.04
0.19,-0.9,-0.05
0.2,-0.86,-0.06
0.2,-0.83,-0.06
0.2,-0.8,-0.07
0.2,-0.78,-0.08
0.2,-0.77,-0.09
0.19,-0.76,-0.09
0.19,-0.75,-0.09
0.18,-0.75,-0.09
0.18,-0.75,-0.09
0.18,-0.75,-0.09
0.19,-0.76,-0.09
0.19,-0.77,-0.09
0.2,-0.78,-0.08
0.21,-0.79,-0.08
0.21,-0.81,-0.07
0.22,-0.83,-0.07
0.23,-0.85,-0.06
0.23,-0.86,-0.06
0.25,-0.9,-0.02
0.25,-0.9,-0.02
0.26,-0.92,0
0.26,-0.93,0.02
0.28,-0.93,0.03
0.29,-0.95,0.05
0.33,-0.99,0.14
0.34,-1.02,0.17
0.35,-1.05,0.21
0.36,-1.09,0.22
0.37,-1.12,0.22
0.34,-1.15,0.23
0.3,-1.16,0.24
0.3,-1.18,0.3
0.33,-1.22,0.31
0.35,-1.24,0.29
0.38,-1.28,0.29
0.39,-1.37,0.29
0.4,-1.44,0.33
0.4,-1.4,0.36
0.35,-1.25,0.41
0.41,-1.18,0.44
0.48,-1.13,0.4
0.49,-1.12,0.39
0.48,-1.18,0.42
0.46,-1.2,0.41
0.45,-1.23,0.39
0.5,-1.23,0.35
0.58,-1.17,0.32
0.53,-1.12,0.31
0.43,-1.09,0.32
0.41,-1.06,0.33
0.45,-1.03,0.31
0.47,-1.02,0.28
0.41,-1,0.27
0.41,-1,0.25
0.42,-0.99,0.25
0.41,-0.98,0.24
0.4,-0.97,0.23
0.4,-0.96,0.22
0.42,-0.94,0.21
0.43,-0.93,0.21
0.43,-0.93,0.2
0.43,-0.92,0.2
0.44,-0.93,0.19
0.45,-0.93,0.18
0.46,-0.93,0.18
0.46,-0.93,0.17
0.47,-0.93,0.17
0.47,-0.92,0.16
0.47,-0.92,0.16
0.47,-0.91,0.16
0.46,-0.91,0.16
0.45,-0.9,0.16
0.44,-0.9,0.16
0.42,-0.89,0.15
0.41,-0.89,0.15
0.39,-0.89,0.15
0.39,-0.89,0.14
0.38,-0.9,0.13
0.38,-0.91,0.11
0.38,-0.93,0.1
0.37,-0.94,0.1
0.36,-0.97,0.08
0.36,-1.01,0.07
0.36,-1.05,0.05
0.36,-1.07,0.03
0.36,-1.08,0.03
0.36,-1.08,0.02
0.38,-1.07,0.02
0.4,-1.05,0.01
0.41,-1.02,-0.01
0.4,-0.98,-0.02
0.4,-0.95,-0.05
0.43,-0.96,-0.09
0.45,-1.03,-0.14
0.45,-1.13,-0.18
0.45,-1.24,-0.21
0.46,-1.35,-0.22
0.48,-1.48,-0.21
0.47,-1.56,-0.21
0.43,-1.59,-0.21
0.38,-1.58,-0.21
0.35,-1.5,-0.22
0.34,-1.42,-0.23
0.35,-1.36,-0.26
0.35,-1.19,-0.22
0.3,-1.14,-0.19
0.33,-1.07,-0.18
0.35,-1.05,-0.2
0.36,-1.05,-0.22
0.37,-1.03,-0.23
0.38,-1.01,-0.22
0.38,-1,-0.2
0.4,-0.99,-0.2
0.43,-0.97,-0.19
0.44,-0.95,-0.19
0.44,-0.92,-0.18
0.45,-0.87,-0.17
0.44,-0.83,-0.15
0.44,-0.8,-0.14
0.44,-0.78,-0.13
0.43,-0.75,-0.12
0.44,-0.73,-0.12
0.45,-0.72,-0.11
0.47,-0.71,-0.1
0.48,-0.71,-0.09
0.44,-0.7,-0.05
0.43,-0.7,0
0.47,-0.7,0.01
0.5,-0.7,0.01
0.48,-0.69,0.02
0.46,-0.67,0.05
0.5,-0.65,0.07
0.52,-0.65,0.07
0.56,-0.66,0.09
0.56,-0.68,0.1
0.57,-0.7,0.11
0.59,-0.71,0.12
0.57,-0.7,0.14
0.56,-0.71,0.16
0.55,-0.72,0.18
0.55,-0.73,0.19
0.56,-0.76,0.19
0.57,-0.8,0.17
0.58,-0.85,0.15
0.58,-0.91,0.15
0.56,-0.95,0.16
0.55,-0.95,0.17
0.55,-0.94,0.18
0.57,-0.93,0.2
0.59,-0.93,0.22
0.59,-0.95,0.23
0.6,-0.99,0.24
0.61,-1.01,0.23
0.63,-1.04,0.21
0.64,-1.05,0.2
0.65,-1.05,0.18
0.66,-1.03,0.13
0.63,-0.95,0.13
0.59,-0.92,0.13
0.55,-0.9,0.13
0.51,-0.89,0.14
0.49,-0.92,0.14
0.48,-0.95,0.13
0.48,-0.99,0.13
0.48,-1.02,0.12
0.48,-1.04,0.12
0.49,-1.05,0.1
0.51,-1.06,0.08
0.51,-1.05,0.07
0.49,-1.02,0.07
0.48,-0.98,0.07
0.47,-0.93,0.08
0.46,-0.89,0.08
0.46,-0.85,0.07
0.46,-0.81,0.07
0.47,-0.78,0.06
0.49,-0.75,0.04
0.52,-0.73,0.01
0.55,-0.7,-0.01
0.58,-0.68,-0.04
0.61,-0.66,-0.06
0.63,-0.65,-0.08
0.65,-0.64,-0.12
0.68,-0.63,-0.14
0.69,-0.62,-0.16
0.69,-0.59,-0.15
0.69,-0.56,-0.12
0.7,-0.55,-0.1
0.7,-0.55,-0.08
0.69,-0.59,-0.07
0.67,-0.6,-0.07
0.67,-0.6,-0.07
0.7,-0.59,-0.09
0.71,-0.6,-0.11
0.71,-0.6,-0.12
0.73,-0.61,-0.13
0.75,-0.6,-0.13
0.77,-0.59,-0.14
0.79,-0.58,-0.15
0.8,-0.58,-0.16
0.81,-0.58,-0.17
0.82,-0.58,-0.18
0.83,-0.57,-0.18
0.82,-0.55,-0.18
0.82,-0.57,-0.19
0.82,-0.6,-0.19
0.78,-0.63,-0.19
0.76,-0.67,-0.21
0.77,-0.74,-0.24
0.71,-0.98,-0.26
0.69,-1.07,-0.25
0.67,-1.13,-0.25
0.66,-1.15,-0.23
0.61,-1.16,-0.23
0.56,-1.11,-0.22
0.53,-0.98,-0.19
0.46,-0.85,-0.17
0.39,-0.77,-0.13
0.35,-0.75,-0.11
0.35,-0.8,-0.09
0.38,-0.89,-0.08
0.41,-1,-0.07
0.43,-1.11,-0.06
0.44,-1.2,-0.06
0.43,-1.25,-0.07
0.42,-1.28,-0.08
0.39,-1.26,-0.11
0.35,-1.2,-0.12
0.3,-1.13,-0.11
0.26,-1.08,-0.09
0.23,-1.03,-0.06
0.21,-0.98,-0.05
0.19,-0.96,-0.04
0.17,-0.95,-0.03
0.18,-0.95,-0.01
0.21,-0.94,-0.02
0.28,-0.89,-0.01
0.28,-0.89,-0.02
0.26,-0.93,-0.05
0.28,-0.95,-0.06
0.28,-0.99,-0.05
0.29,-1.01,-0.05
0.27,-1.03,-0.05
0.25,-1.05,-0.02
0.24,-1.07,-0.01
0.25,-1.07,-0.02
0.25,-1.05,-0.01
0.24,-1.02,-0.01
0.24,-0.99,-0.03
0.24,-0.97,-0.02
0.26,-0.96,-0.03
0.28,-0.93,-0.02
0.28,-0.92,0
0.3,-0.93,0.02
0.31,-0.91,0.03
0.3,-0.87,0.01
0.27,-0.88,0.01
0.26,-0.9,0.02
0.28,-0.96,0.02
0.27,-1.07,0.02
0.28,-1.17,0.01
0.28,-1.25,0.01
0.25,-1.22,0.03
0.22,-1.14,0.06
0.21,-1.02,0.08
0.24,-0.94,0.09
0.28,-0.91,0.11
0.31,-0.9,0.14
0.35,-0.93,0.16
0.38,-0.97,0.17
0.41,-1.01,0.17
0.43,-1.04,0.16
0.44,-1.06,0.17
0.44,-1.07,0.18
0.44,-1.07,0.2
0.43,-1.06,0.22
0.41,-1.04,0.24
0.4,-0.99,0.26
0.39,-0.93,0.28
0.39,-0.88,0.3
0.4,-0.83,0.3
0.4,-0.79,0.3
0.41,-0.76,0.31
0.43,-0.75,0.31
0.44,-0.74,0.31
0.46,-0.73,0.3
0.47,-0.73,0.29
0.48,-0.72,0.28
0.48,-0.74,0.29
0.47,-0.76,0.3
0.47,-0.78,0.3
0.47,-0.8,0.31
0.47,-0.82,0.32
0.47,-0.84,0.33
0.47,-0.84,0.35
0.48,-0.84,0.36
0.49,-0.84,0.36
0.48,-0.82,0.36
0.46,-0.8,0.35
0.46,-0.77,0.34
0.45,-0.75,0.35
0.42,-0.73,0.35
0.4,-0.72,0.35
0.4,-0.72,0.35
0.39,-0.72,0.35
0.38,-0.73,0.34
0.36,-0.73,0.33
0.34,-0.75,0.32
0.34,-0.77,0.31
0.34,-0.79,0.3
0.33,-0.8,0.28
0.33,-0.83,0.28
0.33,-0.87,0.29
0.33,-0.89,0.28
0.31,-0.93,0.27
0.31,-0.93,0.27
0.29,-0.91,0.27
0.28,-0.9,0.26
0.27,-0.89,0.26
0.27,-0.89,0.25
0.28,-0.9,0.24
0.27,-0.93,0.26
0.27,-0.94,0.26
0.26,-0.95,0.23
0.24,-0.95,0.22
0.24,-0.95,0.21
0.23,-0.97,0.19
0.22,-1.01,0.18
0.21,-1.04,0.17
0.21,-1.05,0.16
0.2,-1.06,0.14
0.18,-1.06,0.13
0.17,-1.03,0.12
0.15,-0.98,0.1
0.14,-0.93,0.08
0.13,-0.9,0.06
0.14,-0.89,0.04
0.17,-0.9,0.02
0.19,-0.92,0.01
0.2,-0.92,-0.01
0.16,-0.9,-0.01
0.15,-0.89,-0.04
0.15,-0.88,-0.07
0.17,-0.86,-0.1
0.2,-0.85,-0.12
0.25,-0.84,-0.11
0.29,-0.82,-0.08
0.3,-0.8,-0.05
0.29,-0.78,-0.05
0.29,-0.77,-0.06
0.29,-0.77,-0.08
0.3,-0.78,-0.09
0.35,-0.81,-0.07
0.44,-0.84,-0.04
0.55,-0.86,0.01
0.6,-0.86,0.05
0.59,-0.84,0.09
0.53,-0.82,0.09
0.49,-0.82,0.08
0.51,-0.83,0.09
0.6,-0.85,0.1
0.7,-0.88,0.13
0.78,-0.92,0.17
0.79,-0.96,0.22
0.77,-0.96,0.24
0.75,-0.96,0.23
0.75,-0.94,0.24
0.73,-0.92,0.25
0.73,-0.91,0.23
0.74,-0.89,0.2
0.79,-0.89,0.2
0.84,-0.89,0.22
0.86,-0.91,0.25
0.88,-0.93,0.3
0.9,-0.95,0.33
0.89,-0.96,0.34
0.89,-0.96,0.33
0.89,-0.96,0.32
0.9,-0.96,0.32
0.91,-0.95,0.32
0.93,-0.95,0.32
0.95,-1,0.39
0.89,-1.04,0.58
0.83,-0.97,0.74
0.78,-0.87,0.75
0.73,-0.77,0.68
0.72,-0.68,0.57
0.71,-0.61,0.47
0.67,-0.55,0.42
0.61,-0.5,0.4
0.55,-0.44,0.39
0.52,-0.42,0.38
0.5,-0.45,0.43
0.6,-0.5,0.49
0.67,-0.57,0.55
0.75,-0.67,0.62
0.83,-0.8,0.73
0.94,-0.93,0.88
1.02,-1.02,0.99
0.96,-1.04,0.99
0.82,-0.94,0.89
0.71,-0.77,0.75
0.62,-0.6,0.59
0.52,-0.49,0.45
0.44,-0.41,0.37
0.39,-0.34,0.33
0.35,-0.3,0.32
0.32,-0.28,0.33
0.32,-0.28,0.36
0.33,-0.29,0.41
0.35,-0.31,0.45
0.36,-0.32,0.5
0.38,-0.34,0.53
0.42,-0.34,0.54
0.44,-0.34,0.54
0.46,-0.35,0.54
0.49,-0.36,0.53
0.51,-0.38,0.49
0.58,-0.5,0.64
0.98,-0.73,0.97
1.01,-0.96,1.11
1.02,-1.05,1.02
1.1,-1.03,0.81
1.13,-0.91,0.56
1.03,-0.75,0.37
0.84,-0.63,0.26
0.68,-0.58,0.2
0.58,-0.58,0.19
0.51,-0.58,0.21
0.47,-0.56,0.25
0.44,-0.55,0.29
0.43,-0.56,0.34
0.45,-0.58,0.4
0.52,-0.6,0.45
0.58,-0.65,0.51
0.65,-0.7,0.56
0.7,-0.74,0.58
0.74,-0.77,0.57
0.75,-0.77,0.53
0.73,-0.75,0.48
0.69,-0.72,0.42
0.64,-0.69,0.37
0.59,-0.67,0.33
0.57,-0.66,0.32
0.57,-0.66,0.34
0.59,-0.68,0.38
0.62,-0.69,0.43
0.64,-0.69,0.46
0.66,-0.7,0.49
0.66,-0.7,0.5
0.65,-0.69,0.5
0.63,-0.69,0.48
0.61,-0.69,0.46
0.6,-0.68,0.44
0.59,-0.68,0.43
0.59,-0.68,0.43
0.59,-0.67,0.44
0.6,-0.67,0.45
0.62,-0.67,0.46
0.64,-0.67,0.47
0.65,-0.67,0.48
0.66,-0.66,0.49
0.67,-0.66,0.48
0.67,-0.65,0.47
0.67,-0.64,0.46
