Acc_x,Acc_y,Acc_z
0,0,0
0,0,0
0,0,0
0.24,0.49,0.83
0.25,0.49,0.84
0.25,0.49,0.84
0.25,0.49,0.84
0.25,0.49,0.83
0.25,0.49,0.83
0.25,0.49,0.83
0.25,0.49,0.83
0.25,0.49,0.83
0.25,0.49,0.83
0.25,0.48,0.83
0.25,0.48,0.83
0.25,0.49,0.83
0.26,0.49,0.83
0.25,0.49,0.83
0.25,0.49,0.83
0.25,0.49,0.83
0.25,0.49,0.83
0.25,0.49,0.83
0.25,0.49,0.83
0.25,0.49,0.83
0.25,0.49,0.83
0.25,0.49,0.83
0.25,0.49,0.83
0.25,0.49,0.83
0.25,0.48,0.83
0.25,0.48,0.84
0.25,0.48,0.83
0.25,0.48,0.83
0.25,0.48,0.83
0.25,0.49,0.83
0.24,0.49,0.83
0.25,0.49,0.83
0.25,0.49,0.83
0.25,0.49,0.83
0.25,0.49,0.83
0.26,0.49,0.83
0.26,0.49,0.83
0.25,0.49,0.83
0.25,0.49,0.83
0.26,0.49,0.83
0.25,0.49,0.83
0.25,0.49,0.83
0.25,0.49,0.83
0.25,0.49,0.83
0.25,0.49,0.83
0.26,0.48,0.83
0.26,0.49,0.83
0.25,0.49,0.83
0.25,0.49,0.83
0.25,0.49,0.83
0.25,0.49,0.83
0.25,0.49,0.83
0.25,0.49,0.84
0.25,0.49,0.84
0.25,0.49,0.84
0.25,0.49,0.84
0.25,0.49,0.84
0.25,0.49,0.84
0.25,0.49,0.84
0.24,0.49,0.84
0.24,0.49,0.83
0.25,0.49,0.83
0.24,0.5,0.83
0.25,0.49,0.84
0.26,0.49,0.84
0.26,0.49,0.83
0.26,0.48,0.83
0.26,0.48,0.84
0.25,0.48,0.84
0.25,0.48,0.84
0.26,0.48,0.84
0.26,0.48,0.84
0.27,0.47,0.84
0.28,0.47,0.84
0.27,0.47,0.82
0.28,0.47,0.81
0.29,0.47,0.82
0.29,0.47,0.85
0.31,0.46,0.89
0.34,0.46,0.93
0.35,0.45,0.93
0.33,0.45,0.89
0.31,0.44,0.86
0.3,0.39,0.83
0.3,0.33,0.83
0.34,0.24,0.83
0.39,0.23,0.83
0.46,0.25,0.84
0.54,0.3,0.88
0.58,0.34,0.95
0.61,0.34,1.03
0.67,0.32,1.1
0.72,0.3,1.15
0.73,0.26,1.17
0.73,0.23,1.17
0.73,0.19,1.18
0.74,0.15,1.19
0.75,0.12,1.19
0.74,0.11,1.17
0.72,0.1,1.14
0.68,0.08,1.09
0.64,0.07,1.04
0.6,0.06,0.98
0.56,0.05,0.91
0.54,0.04,0.86
0.52,0.04,0.82
0.51,0.03,0.79
0.52,0.01,0.78
0.51,-0.01,0.78
0.5,-0.03,0.78
0.47,-0.03,0.72
0.34,-0.03,0.66
0.31,-0.06,0.62
0.37,-0.09,0.62
0.43,-0.11,0.64
0.48,-0.11,0.68
0.5,-0.11,0.71
0.48,-0.12,0.74
0.47,-0.12,0.74
0.44,-0.11,0.74
0.41,-0.1,0.73
0.37,-0.08,0.7
0.35,-0.07,0.68
0.33,-0.06,0.65
0.31,-0.06,0.63
0.31,-0.07,0.65
0.38,-0.08,0.7
0.46,-0.11,0.78
0.51,-0.13,0.85
0.52,-0.15,0.88
0.53,-0.14,0.87
0.56,-0.14,0.84
0.58,-0.15,0.83
0.57,-0.18,0.82
0.57,-0.22,0.81
0.55,-0.27,0.77
0.49,-0.33,0.71
0.42,-0.38,0.54
0.39,-0.39,0.44
0.4,-0.42,0.24
0.44,-0.57,0.01
0.44,-0.78,-0.15
0.27,-0.92,-0.32
-0.04,-1.01,-0.59
-0.23,-1.02,-0.96
-0.06,-0.8,-1.18
0.61,-0.41,-1.59
1.41,-0.26,-2.03
1.42,-0.42,-1.98
1.31,-0.41,-1.91
1.75,-0.15,-1.94
2.04,-0.24,-1.89
1.87,-0.64,-1.76
1.7,-1.05,-1.61
1.59,-1.6,-1.43
1.39,-1.84,-1.37
1.35,-1.87,-1.34
0.97,-2,-0.65
0.59,-2.23,0.69
0.88,-2.37,1.46
1.3,-2.07,1.04
1.32,-1.5,0.04
0.78,-1.27,-0.25
0.95,-2.28,0.47
0.84,-2.68,0.66
0.97,-2.21,0.7
0.85,-1.95,0.93
0.96,-1.85,0.89
1.01,-1.4,0.66
0.66,-1.1,0.71
0.51,-1,0.82
0.44,-0.88,0.85
0.36,-0.83,0.87
0.38,-0.87,0.82
0.4,-0.92,0.66
0.48,-0.95,0.43
0.49,-0.96,0.21
0.37,-0.94,0.06
0.22,-0.9,0.04
0.12,-0.84,0.13
0.13,-0.84,0.18
0.23,-0.84,0.17
0.3,-0.84,0.14
0.29,-0.87,0.1
0.18,-0.88,0.11
0.08,-0.86,0.06
0.04,-0.84,-0.03
0.06,-0.87,-0.03
0.1,-0.89,0
0.1,-0.82,0.07
-0.09,-0.8,0.08
-0.19,-0.82,0.06
-0.3,-0.85,0.05
-0.36,-0.88,0.03
-0.34,-0.92,0
-0.31,-0.93,-0.02
-0.3,-0.95,-0.03
-0.29,-0.99,-0.06
-0.25,-1.05,-0.08
-0.16,-1.14,-0.12
-0.1,-1.26,-0.17
-0.12,-1.39,-0.18
-0.09,-1.47,-0.19
-0.02,-1.48,-0.26
0.06,-1.47,-0.29
0.08,-1.45,-0.22
0.06,-1.45,-0.15
0.07,-1.52,-0.16
0.07,-1.58,-0.24
0.07,-1.53,-0.3
0.06,-1.5,-0.35
0.08,-1.45,-0.37
0.14,-1.38,-0.28
0.23,-1.39,-0.22
0.28,-1.51,-0.23
0.26,-1.61,-0.29
0.28,-1.54,-0.35
0.29,-1.5,-0.35
0.3,-1.45,-0.31
0.33,-1.37,-0.25
0.36,-1.33,-0.18
0.34,-1.28,-0.15
0.33,-1.25,-0.11
0.34,-1.27,-0.04
0.38,-1.31,-0.02
0.4,-1.3,-0.05
0.4,-1.26,-0.12
0.39,-1.18,-0.18
0.37,-1.1,-0.19
0.34,-1.02,-0.17
0.31,-0.96,-0.13
0.31,-0.91,-0.1
0.33,-0.86,-0.05
0.34,-0.81,0
0.34,-0.77,0.03
0.35,-0.75,0.01
0.34,-0.75,-0.04
0.31,-0.74,-0.08
0.29,-0.71,-0.11
0.27,-0.7,-0.12
0.25,-0.69,-0.11
0.23,-0.73,-0.13
0.19,-0.75,-0.16
0.16,-0.75,-0.18
0.12,-0.74,-0.18
0.1,-0.74,-0.18
0.1,-0.76,-0.17
0.12,-0.79,-0.16
0.12,-0.83,-0.16
0.11,-0.86,-0.16
0.09,-0.89,-0.16
0.07,-0.92,-0.18
0.04,-0.96,-0.19
0.02,-1,-0.2
0.01,-1.04,-0.2
-0.01,-1.07,-0.19
-0.02,-1.1,-0.16
-0.02,-1.12,-0.12
-0.01,-1.12,-0.09
0,-1.1,-0.06
0,-1.05,-0.05
-0.02,-1.01,-0.05
-0.04,-0.98,-0.04
-0.07,-0.96,-0.01
-0.08,-0.95,0.03
-0.08,-0.96,0.06
-0.09,-1.01,0.06
-0.11,-1.08,0.03
-0.15,-1.12,0.02
-0.15,-1.08,0.06
-0.16,-0.99,0.12
-0.18,-0.87,0.2
-0.19,-0.78,0.28
-0.2,-0.73,0.31
-0.21,-0.73,0.32
-0.22,-0.78,0.3
-0.21,-0.86,0.28
-0.17,-0.95,0.28
-0.13,-1.04,0.27
-0.11,-1.1,0.26
-0.1,-1.14,0.24
-0.08,-1.17,0.24
-0.05,-1.18,0.24
-0.02,-1.15,0.25
0.05,-0.83,0.36
0.05,-0.83,0.36
0.06,-0.8,0.37
0.06,-0.77,0.36
0.08,-0.75,0.32
0.1,-0.73,0.18
0.13,-0.74,0.15
0.15,-0.75,0.14
0.15,-0.77,0.12
0.11,-0.8,0.12
0.07,-0.83,0.11
0.04,-0.84,0.08
0.04,-0.86,0.06
0.08,-0.89,0.06
0.11,-0.94,0.06
0.14,-1.03,0.08
0.17,-1.1,0.11
0.18,-1.17,0.14
0.17,-1.24,0.14
0.16,-1.29,0.12
0.18,-1.35,0.08
0.19,-1.42,0.04
0.21,-1.49,0.01
0.22,-1.59,-0.05
0.23,-1.68,-0.12
0.22,-1.75,-0.19
0.19,-1.74,-0.26
0.14,-1.64,-0.31
0.11,-1.49,-0.34
0.14,-1.34,-0.32
0.16,-1.2,-0.25
0.14,-1.07,-0.06
0.09,-0.89,0.02
0.06,-0.86,0.07
0.06,-0.84,0.1
0.07,-0.8,0.1
0.08,-0.76,0.07
0.09,-0.73,0.03
0.1,-0.71,-0.01
0.08,-0.71,-0.05
0.06,-0.71,-0.06
0.03,-0.7,-0.06
0,-0.71,-0.05
0.02,-0.73,-0.02
0.01,-0.76,0
0,-0.79,0.02
-0.03,-0.82,0.04
-0.06,-0.86,0.1
-0.03,-0.91,0.12
0.04,-0.97,0.11
0.07,-1.04,0.13
0.08,-1.1,0.15
0.1,-1.14,0.15
0.12,-1.17,0.15
0.14,-1.2,0.15
0.16,-1.23,0.15
0.16,-1.21,0.16
0.14,-1.16,0.18
0.17,-1.06,0.19
0.17,-0.99,0.18
0.14,-0.94,0.17
0.13,-0.89,0.17
0.12,-0.85,0.16
0.15,-0.84,0.16
0.18,-0.84,0.17
0.22,-0.87,0.18
0.25,-0.9,0.18
0.26,-0.93,0.17
0.28,-0.95,0.15
0.3,-0.97,0.14
0.31,-0.99,0.13
0.32,-1,0.13
0.32,-1.01,0.12
0.32,-1.04,0.13
0.31,-1.05,0.13
0.31,-1.04,0.12
0.31,-1,0.1
0.3,-0.94,0.08
0.3,-0.88,0.06
0.29,-0.84,0.05
0.29,-0.83,0.06
0.33,-0.89,0.08
0.38,-0.99,0.12
0.42,-1.11,0.2
0.42,-1.36,0.2
0.41,-1.43,0.21
0.38,-1.47,0.19
0.34,-1.47,0.18
0.32,-1.42,0.2
0.33,-1.32,0.23
0.37,-1.23,0.27
0.41,-1.17,0.29
0.41,-1.14,0.29
0.4,-1.12,0.28
0.4,-1.11,0.26
0.4,-1.11,0.25
0.4,-1.11,0.23
0.4,-1.09,0.22
0.39,-1.09,0.2
0.38,-1.11,0.2
0.38,-1.12,0.2
0.36,-1.14,0.24
0.33,-1.15,0.28
0.33,-1.16,0.29
0.33,-1.15,0.27
0.33,-1.15,0.25
0.32,-1.14,0.24
0.3,-1.14,0.23
0.29,-1.13,0.22
0.28,-1.11,0.26
0.29,-1.06,0.28
0.29,-1.03,0.27
0.29,-1.02,0.26
0.28,-1.02,0.24
0.27,-1.02,0.22
0.26,-1,0.21
0.26,-0.98,0.2
0.25,-0.97,0.19
0.23,-0.93,0.18
0.23,-0.87,0.19
0.21,-0.78,0.2
0.2,-0.69,0.19
0.19,-0.63,0.18
0.19,-0.58,0.16
0.21,-0.56,0.13
0.23,-0.57,0.1
0.24,-0.6,0.08
0.26,-0.67,0.05
0.27,-0.77,0.02
0.29,-0.87,0.01
0.3,-0.95,0
0.29,-1,-0.01
0.27,-1.02,0
0.24,-1.02,0.02
0.22,-1.01,0.04
0.25,-1.02,0.04
0.37,-1.03,0
0.4,-1.01,-0.01
0.4,-0.97,0
0.4,-0.92,0.01
0.42,-0.87,0.01
0.43,-0.83,0.01
0.43,-0.79,0
0.43,-0.77,-0.01
0.44,-0.76,-0.03
0.45,-0.78,-0.04
0.45,-0.8,-0.04
0.44,-0.84,-0.03
0.44,-0.89,-0.01
0.43,-0.93,0
0.42,-0.97,0.01
0.41,-1.02,0.03
0.4,-1.06,0.04
0.38,-1.11,0.06
0.37,-1.17,0.07
0.38,-1.21,0.06
0.39,-1.24,0.06
0.4,-1.24,0.07
0.4,-1.26,0.1
0.44,-1.31,0.12
0.46,-1.32,0.16
0.43,-1.35,0.15
0.43,-1.31,0.08
0.38,-1.25,0.04
0.34,-1.22,0.07
0.3,-1.28,0.13
0.33,-1.39,0.15
0.42,-1.42,0.19
0.44,-1.39,0.22
0.38,-1.39,0.22
0.32,-1.37,0.2
0.3,-1.27,0.21
0.27,-1.18,0.22
0.22,-1.14,0.28
0.22,-1.15,0.36
0.22,-1.24,0.4
0.19,-1.41,0.42
0.16,-1.57,0.46
0.13,-1.65,0.51
0.13,-1.63,0.54
0.06,-1.58,0.54
-0.02,-1.49,0.5
-0.02,-1.38,0.49
0,-1.28,0.5
0.04,-1.19,0.49
0.1,-1.09,0.48
0.15,-1,0.43
0.15,-0.97,0.38
0.15,-0.92,0.29
0.23,-0.91,0.2
0.29,-0.9,0.18
0.29,-0.92,0.24
0.29,-0.95,0.23
0.33,-0.91,0.22
0.37,-0.88,0.2
0.38,-0.87,0.18
0.37,-0.85,0.16
0.38,-0.84,0.15
0.39,-0.8,0.15
0.42,-0.75,0.13
0.46,-0.71,0.1
0.5,-0.68,0.08
0.52,-0.65,0.07
0.52,-0.64,0.05
0.52,-0.63,0.03
0.52,-0.62,0.02
0.52,-0.63,0.01
0.52,-0.64,0.01
0.49,-0.66,0.02
0.47,-0.68,0.03
0.47,-0.72,0.01
0.47,-0.75,-0.01
0.48,-0.78,-0.04
0.48,-0.81,-0.08
0.49,-0.93,-0.14
0.48,-0.97,-0.1
0.48,-1,-0.03
0.51,-1.04,0
0.55,-1.08,0.01
0.56,-1.15,0.03
0.58,-1.21,0.03
0.6,-1.25,0.03
0.61,-1.28,0.04
0.63,-1.32,0.05
0.68,-1.39,0.06
0.72,-1.45,0.09
0.71,-1.51,0.13
0.7,-1.56,0.17
0.69,-1.59,0.23
0.71,-1.62,0.28
0.74,-1.69,0.3
0.8,-1.76,0.34
0.84,-1.82,0.37
0.86,-1.9,0.4
0.86,-1.98,0.42
0.86,-2.07,0.44
0.88,-2.19,0.45
0.89,-2.31,0.48
0.87,-2.43,0.52
0.79,-2.48,0.55
0.74,-2.21,0.53
0.78,-2.08,0.53
0.81,-2.15,0.5
0.69,-2.33,0.39
0.63,-2.36,0.36
0.58,-2.26,0.35
0.58,-2.11,0.27
0.62,-1.88,0.23
0.58,-1.68,0.22
0.53,-1.52,0.22
0.48,-1.4,0.17
0.39,-1.31,0.1
0.3,-1.21,0.06
0.22,-1.09,0.03
0.14,-0.96,-0.01
0.1,-0.83,-0.02
0.07,-0.73,-0.01
0.07,-0.65,-0.01
0.08,-0.59,-0.03
0.08,-0.55,-0.06
0.06,-0.53,-0.07
0.06,-0.54,-0.1
0.04,-0.57,-0.14
0,-0.6,-0.15
-0.04,-0.62,-0.16
-0.05,-0.64,-0.15
-0.06,-0.64,-0.1
-0.04,-0.6,-0.08
-0.03,-0.6,-0.08
-0.05,-0.58,-0.1
-0.07,-0.55,-0.12
-0.07,-0.54,-0.12
-0.07,-0.53,-0.11
-0.05,-0.51,-0.1
-0.03,-0.49,-0.1
0,-0.46,-0.09
0.02,-0.45,-0.08
0.03,-0.45,-0.08
0.06,-0.45,-0.07
0.09,-0.45,-0.07
0.11,-0.47,-0.05
0.13,-0.5,-0.04
0.15,-0.54,-0.03
0.19,-0.57,-0.03
0.23,-0.61,-0.03
0.25,-0.65,-0.03
0.27,-0.68,-0.02
0.3,-0.7,0
0.33,-0.74,0.01
0.35,-0.78,0.03
0.37,-0.83,0.03
0.37,-0.89,0.02
0.36,-0.94,-0.04
0.37,-1.05,-0.04
0.43,-1.11,0
0.49,-1.18,0.08
0.58,-1.25,0.21
0.67,-1.32,0.29
0.7,-1.39,0.28
0.65,-1.48,0.21
0.56,-1.6,0.12
0.49,-1.71,0.06
0.43,-1.83,0.05
0.41,-1.92,0.08
0.47,-1.98,0.13
0.57,-2,0.18
0.72,-1.99,0.25
0.83,-2.03,0.29
0.88,-2.12,0.26
0.86,-2.14,0.26
0.8,-2.14,0.24
0.77,-2.12,0.19
0.72,-1.9,0.18
0.65,-1.68,0.22
0.7,-1.58,0.29
0.75,-1.42,0.3
0.7,-1.33,0.27
0.66,-1.42,0.26
0.62,-1.64,0.34
0.6,-1.87,0.32
0.57,-1.83,0.31
0.58,-1.73,0.32
0.48,-1.7,0.31
0.36,-1.65,0.29
0.36,-1.49,0.29
0.36,-1.36,0.27
0.38,-1.27,0.25
0.4,-1.17,0.23
0.42,-1.09,0.2
0.44,-1.02,0.16
0.46,-0.97,0.14
0.47,-0.93,0.12
0.47,-0.9,0.11
0.47,-0.87,0.09
0.46,-0.83,0.08
0.44,-0.8,0.09
0.43,-0.77,0.1
0.43,-0.75,0.1
0.44,-0.72,0.09
0.44,-0.69,0.09
0.43,-0.67,0.08
0.43,-0.65,0.09
0.43,-0.64,0.11
0.45,-0.63,0.11
0.47,-0.64,0.1
0.51,-0.66,0.09
0.52,-0.67,0.07
0.5,-0.68,0.05
0.48,-0.69,0.05
0.46,-0.72,0.07
0.45,-0.73,0.1
0.45,-0.75,0.11
0.46,-0.77,0.12
0.47,-0.79,0.12
0.49,-0.83,0.1
0.5,-0.88,0.07
0.5,-0.94,0.05
0.5,-1,0.04
0.5,-1.03,0.05
0.5,-1.07,0.06
0.49,-1.11,0.06
0.5,-1.15,0.06
0.52,-1.2,0.06
0.55,-1.25,0.04
0.59,-1.28,0.04
0.62,-1.31,0.04
0.64,-1.35,0.03
0.64,-1.42,0.03
0.66,-1.48,0.05
0.71,-1.55,0.08
0.72,-1.6,0.14
0.65,-1.71,0.15
0.64,-1.75,0.17
0.64,-1.79,0.19
0.68,-1.83,0.23
0.73,-1.85,0.27
0.77,-1.87,0.29
0.81,-1.91,0.31
0.84,-1.96,0.32
0.83,-2.05,0.32
0.79,-2.16,0.29
0.73,-2.23,0.29
0.69,-2.19,0.33
0.69,-2.04,0.36
0.75,-1.88,0.4
0.85,-1.8,0.39
0.85,-1.88,0.37
0.79,-2.07,0.37
0.76,-2.19,0.32
0.72,-2.18,0.23
0.63,-2.03,0.18
0.55,-1.76,0.19
0.52,-1.53,0.21
0.54,-1.39,0.23
0.59,-1.27,0.25
0.59,-1.18,0.23
0.52,-1.11,0.15
0.35,-0.91,0.11
0.29,-0.81,0.1
0.26,-0.72,0.08
0.24,-0.64,0.06
0.21,-0.58,0.03
0.19,-0.54,0.01
0.17,-0.52,-0.02
0.14,-0.51,-0.02
0.1,-0.51,-0.04
0.07,-0.51,-0.07
0.04,-0.5,-0.1
0.02,-0.51,-0.13
-0.01,-0.51,-0.14
-0.05,-0.51,-0.15
-0.08,-0.53,-0.14
-0.11,-0.53,-0.14
-0.12,-0.53,-0.14
-0.12,-0.55,-0.15
-0.13,-0.58,-0.16
-0.14,-0.59,-0.16
-0.15,-0.59,-0.15
-0.14,-0.58,-0.15
-0.12,-0.56,-0.14
-0.09,-0.54,-0.14
-0.06,-0.53,-0.14
-0.02,-0.53,-0.11
0.1,-0.54,-0.05
0.13,-0.56,-0.02
0.16,-0.57,-0.02
0.16,-0.59,-0.01
0.15,-0.61,-0.01
0.14,-0.63,-0.03
0.15,-0.66,-0.05
0.16,-0.7,-0.06
0.18,-0.75,-0.02
0.23,-0.79,0.02
0.28,-0.84,0.02
0.31,-0.91,0
0.31,-0.99,-0.04
0.3,-1.05,-0.08
0.3,-1.08,-0.08
0.34,-1.13,-0.01
0.42,-1.19,0.12
0.54,-1.25,0.22
0.64,-1.33,0.24
0.67,-1.4,0.19
0.65,-1.48,0.13
0.61,-1.56,0.08
0.56,-1.63,0.05
0.5,-1.7,0.01
0.46,-1.82,0.02
0.52,-1.96,0.04
0.64,-2.18,0.11
0.62,-2.24,0.17
0.71,-2.23,0.19
0.85,-2.13,0.17
0.78,-2.02,0.18
0.73,-2.17,0.18
0.83,-2.46,0.05
0.91,-2.55,0.01
0.87,-2.52,0.12
0.81,-2.51,0.14
0.77,-2.39,0.13
0.76,-2.08,0.17
0.76,-1.84,0.19
0.81,-1.7,0.17
0.77,-1.57,0.16
0.67,-1.48,0.15
0.64,-1.38,0.09
0.66,-1.31,0.09
0.68,-1.26,0.14
0.67,-1.23,0.14
0.67,-1.22,0.12
0.66,-1.19,0.09
0.66,-1.15,0.07
0.66,-1.1,0.04
0.66,-1.03,0.03
0.63,-0.97,0.02
0.62,-0.85,0.02
0.61,-0.81,0.01
0.6,-0.77,-0.01
0.62,-0.74,-0.01
0.64,-0.72,-0.01
0.64,-0.69,-0.03
0.65,-0.68,-0.06
0.65,-0.66,-0.07
0.64,-0.64,-0.08
0.63,-0.64,-0.09
0.63,-0.65,-0.08
0.63,-0.68,-0.08
0.61,-0.7,-0.1
0.59,-0.71,-0.12
0.58,-0.72,-0.16
0.57,-0.75,-0.19
0.56,-0.76,-0.19
0.54,-0.78,-0.19
0.54,-0.81,-0.17
0.55,-0.86,-0.17
0.57,-0.92,-0.16
0.57,-0.97,-0.16
0.58,-1.03,-0.17
0.59,-1.07,-0.17
0.58,-1.11,-0.17
0.6,-1.13,-0.16
0.63,-1.25,-0.13
0.63,-1.32,-0.09
0.64,-1.38,-0.07
0.65,-1.43,-0.05
0.68,-1.47,-0.04
0.71,-1.51,-0.02
0.74,-1.57,0
0.78,-1.62,0.02
0.79,-1.67,0.04
0.77,-1.74,0.05
0.74,-1.81,0.06
0.73,-1.88,0.07
0.72,-1.94,0.1
0.73,-1.98,0.14
0.78,-2.04,0.19
0.83,-2.12,0.24
0.86,-2.22,0.26
0.87,-2.31,0.25
0.84,-2.37,0.23
0.77,-2.37,0.25
0.71,-2.25,0.3
0.65,-2.05,0.36
0.69,-1.84,0.38
0.75,-1.71,0.38
0.75,-1.76,0.34
0.79,-1.94,0.27
0.78,-2.36,0.11
0.58,-2.38,0.08
0.44,-2.18,0.08
0.34,-1.82,0.11
0.3,-1.48,0.17
0.32,-1.26,0.18
0.34,-1.15,0.14
0.35,-1.08,0.08
0.28,-1.02,0.03
0.16,-0.96,0.01
0.1,-0.88,0
0.09,-0.8,-0.02
0.07,-0.71,-0.03
0.04,-0.65,-0.06
0.02,-0.6,-0.07
0.01,-0.56,-0.08
0,-0.54,-0.09
-0.01,-0.52,-0.09
-0.02,-0.51,-0.09
-0.03,-0.49,-0.1
-0.05,-0.48,-0.12
-0.08,-0.49,-0.13
-0.11,-0.5,-0.13
-0.13,-0.5,-0.11
-0.14,-0.5,-0.1
-0.15,-0.53,-0.11
-0.16,-0.59,-0.15
-0.19,-0.6,-0.15
-0.18,-0.59,-0.15
-0.14,-0.57,-0.13
-0.09,-0.54,-0.11
-0.02,-0.53,-0.09
0.04,-0.54,-0.08
0.09,-0.55,-0.07
0.13,-0.55,-0.06
0.17,-0.54,-0.04
0.2,-0.54,-0.02
0.22,-0.54,-0.01
0.23,-0.54,-0.01
0.23,-0.55,-0.01
0.25,-0.56,-0.02
0.28,-0.58,-0.04
0.32,-0.61,-0.01
0.37,-0.64,0.06
0.45,-0.68,0.07
0.51,-0.73,0.02
0.52,-0.77,-0.04
0.5,-0.83,-0.07
0.51,-0.91,-0.09
0.54,-0.99,-0.08
0.59,-1.08,-0.05
0.65,-1.14,0
0.75,-1.16,0.14
0.91,-1.23,0.14
0.95,-1.31,0.1
0.95,-1.4,0.09
0.91,-1.49,0.12
0.79,-1.59,0.18
0.67,-1.69,0.22
0.57,-1.79,0.25
0.49,-1.88,0.28
0.45,-1.96,0.28
0.49,-1.98,0.29
0.49,-1.95,0.34
0.6,-1.98,0.26
0.95,-2.12,0.12
1.11,-2.1,-0.07
0.99,-2.02,-0.12
0.82,-2.12,-0.03
0.94,-2.04,0.02
0.98,-1.78,0.14
0.73,-1.57,0.2
0.66,-1.38,0.21
0.6,-1.3,0.21
0.51,-1.37,0.19
0.5,-1.46,0.16
0.51,-1.45,0.14
0.47,-1.43,0.16
0.43,-1.46,0.14
0.37,-1.43,0.13
0.32,-1.37,0.14
0.3,-1.32,0.16
0.32,-1.28,0.17
0.32,-1.25,0.15
0.33,-1.2,0.14
0.35,-1.15,0.12
0.39,-1.1,0.1
0.41,-1.06,0.09
0.42,-1.02,0.08
0.44,-0.99,0.07
0.47,-0.97,0.04
0.48,-0.91,0.04
0.45,-0.87,0.04
0.42,-0.85,0.05
0.41,-0.82,0.06
0.41,-0.79,0.09
0.42,-0.76,0.1
0.42,-0.74,0.1
0.42,-0.73,0.09
0.43,-0.72,0.08
0.44,-0.72,0.1
0.44,-0.72,0.12
0.43,-0.72,0.14
0.42,-0.71,0.16
0.41,-0.71,0.15
0.38,-0.71,0.14
0.37,-0.72,0.13
0.39,-0.74,0.13
0.41,-0.75,0.13
0.43,-0.78,0.12
0.45,-0.82,0.1
0.45,-0.85,0.08
0.46,-0.88,0.06
0.48,-0.92,0.04
0.49,-0.95,0.04
0.5,-0.99,0.05
0.52,-1.04,0.04
0.54,-1.08,0.05
0.55,-1.11,0.06
0.56,-1.14,0.05
0.59,-1.18,0.03
0.63,-1.23,0.03
0.65,-1.28,0.04
0.66,-1.34,0.05
0.66,-1.39,0.06
0.66,-1.43,0.08
0.67,-1.45,0.09
0.67,-1.5,0.1
0.67,-1.56,0.11
0.68,-1.61,0.12
0.69,-1.66,0.15
0.65,-1.76,0.16
0.66,-1.78,0.17
0.69,-1.81,0.17
0.71,-1.83,0.2
0.75,-1.85,0.23
0.8,-1.87,0.23
0.81,-1.91,0.24
0.82,-1.98,0.23
0.82,-2.03,0.23
0.8,-2.02,0.25
0.81,-2,0.22
0.79,-1.97,0.21
0.69,-1.9,0.25
0.66,-1.72,0.34
0.7,-1.54,0.37
0.7,-1.42,0.33
0.74,-1.35,0.28
0.83,-1.39,0.21
0.88,-1.53,0.13
0.85,-1.68,0.09
0.79,-1.78,0.05
0.7,-1.75,0.04
0.59,-1.6,0.05
0.51,-1.38,0.07
0.47,-1.18,0.1
0.46,-0.9,0.1
0.39,-0.83,0.06
0.33,-0.77,0.01
0.3,-0.71,-0.02
0.3,-0.67,-0.02
0.29,-0.63,-0.03
0.25,-0.59,-0.03
0.19,-0.57,-0.04
0.16,-0.54,-0.05
0.11,-0.53,-0.07
0.06,-0.51,-0.08
0.03,-0.49,-0.08
0,-0.47,-0.08
-0.02,-0.45,-0.08
-0.04,-0.45,-0.07
-0.03,-0.45,-0.05
-0.02,-0.45,-0.03
-0.03,-0.45,-0.04
-0.06,-0.44,-0.06
-0.08,-0.43,-0.06
-0.07,-0.43,-0.04
-0.06,-0.46,-0.05
-0.03,-0.49,-0.07
-0.02,-0.5,-0.07
-0.01,-0.49,-0.07
0.02,-0.49,-0.07
0.08,-0.5,-0.06
0.18,-0.53,0
0.21,-0.54,0.03
0.25,-0.55,0.07
0.26,-0.56,0.1
0.27,-0.57,0.15
0.29,-0.56,0.21
0.29,-0.56,0.21
0.26,-0.57,0.19
0.26,-0.55,0.17
0.38,-0.52,0.16
0.56,-0.51,0.13
0.69,-0.55,0.1
0.77,-0.63,0.07
0.8,-0.7,0.05
0.79,-0.78,0.07
0.78,-0.85,0.11
0.77,-0.91,0.09
0.76,-0.97,0.01
0.76,-1.02,-0.08
0.79,-1.06,-0.14
0.84,-1.11,-0.17
0.89,-1.17,-0.17
0.89,-1.22,-0.13
0.88,-1.24,-0.08
0.88,-1.23,-0.07
0.83,-1.22,-0.09
0.77,-1.23,-0.06
0.7,-1.28,-0.06
0.71,-1.33,-0.07
0.71,-1.38,-0.07
0.7,-1.42,-0.06
0.71,-1.42,-0.03
0.71,-1.44,0
0.71,-1.5,0.01
0.72,-1.59,0.01
0.73,-1.67,0.01
0.74,-1.73,0.03
0.73,-1.76,0.04
0.69,-1.72,0.06
0.64,-1.59,0.08
0.61,-1.43,0.1
0.6,-1.33,0.12
0.57,-1.3,0.14
0.6,-1.33,0.16
0.65,-1.44,0.14
0.69,-1.51,0.13
0.67,-1.5,0.13
0.6,-1.51,0.13
0.54,-1.52,0.13
0.45,-1.5,0.16
0.4,-1.43,0.19
0.38,-1.37,0.2
0.4,-1.28,0.22
0.35,-1.24,0.22
0.37,-1.17,0.19
0.39,-1.11,0.17
0.4,-1.07,0.19
0.39,-1.04,0.21
0.37,-1.02,0.22
0.35,-0.97,0.22
0.34,-0.94,0.22
0.33,-0.95,0.22
0.32,-0.96,0.25
0.31,-0.95,0.27
0.34,-0.93,0.27
0.37,-0.91,0.26
0.37,-0.89,0.25
0.35,-0.88,0.25
0.33,-0.88,0.24
0.32,-0.88,0.23
0.32,-0.88,0.24
0.33,-0.87,0.25
0.35,-0.88,0.24
0.36,-0.87,0.24
0.37,-0.85,0.23
0.39,-0.83,0.22
0.4,-0.8,0.21
0.41,-0.76,0.2
0.43,-0.73,0.14
0.49,-0.72,0.12
0.52,-0.72,0.11
0.55,-0.73,0.09
0.59,-0.76,0.06
0.62,-0.8,0.03
0.64,-0.86,0
0.66,-0.93,-0.04
0.7,-1.01,-0.08
0.74,-1.06,-0.1
0.77,-1.09,-0.1
0.82,-1.12,-0.1
0.88,-1.16,-0.1
0.91,-1.21,-0.1
0.92,-1.27,-0.09
0.93,-1.32,-0.1
0.92,-1.39,-0.12
0.91,-1.45,-0.1
0.89,-1.51,-0.08
0.84,-1.6,-0.06
0.79,-1.68,-0.05
0.75,-1.74,-0.04
0.75,-1.81,-0.03
0.77,-1.88,-0.02
0.79,-1.95,0.01
0.8,-2,0.04
0.82,-2.08,0.1
0.96,-2.13,0.08
0.97,-2.18,0.06
1,-2.23,0.02
1.04,-2.3,-0.02
1.02,-2.35,-0.03
0.97,-2.32,-0.02
0.91,-2.19,-0.01
0.76,-2.03,0.04
0.61,-1.92,0.14
0.68,-1.85,0.2
0.77,-1.84,0.19
0.72,-1.8,0.17
0.63,-1.71,0.11
0.57,-1.57,0.06
0.51,-1.4,0.05
0.44,-1.24,0.06
0.38,-1.08,0.08
0.34,-0.94,0.1
0.31,-0.85,0.11
0.28,-0.8,0.11
0.24,-0.77,0.09
0.18,-0.74,0.06
0.14,-0.7,0.02
0.13,-0.65,0
0.12,-0.61,-0.01
0.13,-0.59,-0.03
0.09,-0.57,-0.03
0.06,-0.57,-0.02
0.05,-0.55,-0.01
0.03,-0.53,-0.01
0,-0.52,-0.03
-0.03,-0.51,-0.04
-0.05,-0.48,-0.05
-0.06,-0.46,-0.06
-0.06,-0.44,-0.06
-0.06,-0.43,-0.06
-0.06,-0.43,-0.07
-0.06,-0.43,-0.07
-0.07,-0.43,-0.09
-0.07,-0.43,-0.1
-0.06,-0.42,-0.11
-0.05,-0.42,-0.1
-0.02,-0.44,-0.07
0.02,-0.45,-0.05
0.05,-0.48,-0.04
0.07,-0.52,-0.03
0.11,-0.56,-0.03
0.14,-0.6,-0.03
0.17,-0.64,-0.04
0.18,-0.68,-0.06
0.19,-0.71,-0.08
0.21,-0.74,-0.08
0.24,-0.81,-0.08
0.25,-0.86,-0.07
0.26,-0.91,-0.04
0.28,-0.96,-0.01
0.31,-1,0.01
0.35,-1.05,0
0.39,-1.09,-0.03
0.43,-1.14,-0.05
0.45,-1.2,-0.08
0.48,-1.28,-0.08
0.51,-1.37,-0.06
0.54,-1.47,-0.01
0.57,-1.57,0.02
0.6,-1.68,0.06
0.61,-1.78,0.12
0.6,-1.86,0.13
0.58,-1.92,0.09
0.57,-1.99,0.06
0.55,-2.06,0.04
0.53,-2.1,0.05
0.57,-2.1,0.11
0.62,-2.2,0.13
0.75,-2.32,0.13
0.87,-2.36,0.17
0.84,-2.39,0.2
0.76,-2.39,0.19
0.49,-2.14,0.17
0.63,-1.92,0.05
0.82,-1.64,0.02
0.73,-1.46,0.08
0.59,-1.51,0.08
0.64,-1.62,0.08
0.74,-1.73,0.08
0.71,-1.82,0.11
0.59,-1.82,0.13
0.43,-1.42,0.14
0.43,-1.42,0.14
0.44,-1.29,0.14
0.45,-1.2,0.15
0.44,-1.14,0.18
0.57,-0.86,0.11
0.55,-0.86,0.12
0.55,-0.86,0.12
0.52,-0.86,0.14
0.51,-0.86,0.15
0.5,-0.86,0.16
0.49,-0.82,0.18
0.5,-0.8,0.18
0.53,-0.77,0.18
0.56,-0.74,0.18
0.58,-0.71,0.2
0.59,-0.7,0.22
0.6,-0.69,0.23
0.57,-0.68,0.24
0.51,-0.68,0.24
0.46,-0.68,0.23
0.43,-0.68,0.21
0.4,-0.7,0.18
0.36,-0.72,0.17
0.33,-0.74,0.15
0.32,-0.76,0.12
0.34,-0.79,0.08
0.35,-0.83,0.03
0.37,-0.87,0
0.39,-0.93,-0.01
0.41,-0.99,-0.01
0.42,-1.05,-0.02
0.42,-1.11,-0.03
0.42,-1.15,-0.04
0.43,-1.19,-0.06
0.44,-1.22,-0.06
0.46,-1.25,-0.05
0.52,-1.33,-0.06
0.57,-1.37,-0.07
0.6,-1.42,-0.07
0.61,-1.47,-0.06
0.65,-1.51,-0.01
0.68,-1.54,0.01
0.68,-1.59,0.01
0.68,-1.64,0.02
0.7,-1.68,0.03
0.7,-1.73,0.06
0.66,-1.78,0.09
0.63,-1.82,0.11
0.63,-1.84,0.14
0.68,-1.85,0.17
0.73,-1.86,0.21
0.76,-1.85,0.25
0.79,-1.86,0.24
0.82,-1.9,0.19
0.79,-1.96,0.17
0.76,-2.03,0.19
0.77,-2.05,0.21
0.73,-2.05,0.2
0.71,-1.92,0.21
0.7,-1.68,0.23
0.64,-1.49,0.26
0.68,-1.33,0.25
0.84,-1.43,0.2
0.8,-1.62,0.12
0.69,-1.79,0.05
0.59,-1.86,0.01
0.53,-1.79,0.02
0.45,-1.57,0.07
0.37,-1.28,0.12
0.37,-1.05,0.15
0.46,-0.87,0.16
0.5,-0.77,0.14
0.49,-0.76,0.09
0.5,-0.72,0.07
0.48,-0.66,0.05
0.41,-0.62,0.01
0.35,-0.58,-0.01
0.29,-0.55,-0.04
0.23,-0.53,-0.04
0.21,-0.5,0
0.2,-0.49,0.03
0.2,-0.49,0.03
0.18,-0.48,0.02
0.14,-0.48,0
0.12,-0.46,-0.01
0.1,-0.45,-0.02
0.09,-0.44,-0.02
0.09,-0.42,-0.01
0.09,-0.41,0
0.11,-0.39,0.03
0.14,-0.38,0.03
0.14,-0.39,0.02
0.13,-0.4,0.01
0.15,-0.42,0
0.17,-0.44,-0.02
0.17,-0.47,-0.02
0.17,-0.48,-0.03
0.2,-0.5,-0.04
0.2,-0.52,-0.03
0.2,-0.54,0.01
0.18,-0.56,0.03
0.16,-0.58,0.02
0.13,-0.6,-0.01
0.1,-0.6,-0.03
0.1,-0.57,-0.06
0.13,-0.55,-0.08
0.17,-0.54,-0.04
0.23,-0.56,0.04
0.29,-0.58,0.11
0.32,-0.61,0.11
0.32,-0.66,0.04
0.28,-0.73,-0.05
0.26,-0.81,-0.12
0.27,-0.88,-0.18
0.44,-1.04,-0.16
0.57,-1.12,-0.09
0.69,-1.21,-0.06
0.77,-1.3,-0.09
0.78,-1.38,-0.1
0.77,-1.47,-0.1
0.77,-1.55,-0.11
0.71,-1.63,-0.16
0.67,-1.7,-0.15
0.68,-1.77,-0.07
0.66,-1.84,0.01
0.59,-1.89,0.1
0.52,-1.98,0.11
0.51,-2.1,0.05
0.51,-2.19,0.02
0.51,-2.3,0.03
0.62,-2.43,0.05
0.74,-2.49,0.06
0.81,-2.45,0.1
0.8,-2.38,0.13
0.72,-2.21,0.15
0.65,-1.95,0.17
0.62,-1.75,0.16
0.6,-1.64,0.15
0.62,-1.6,0.13
0.65,-1.63,0.12
0.7,-1.88,0.13
0.72,-1.98,0.16
0.71,-2.04,0.17
0.66,-2.04,0.15
0.58,-1.97,0.14
0.52,-1.86,0.14
0.47,-1.7,0.16
0.46,-1.5,0.22
0.51,-1.31,0.25
0.58,-1.17,0.23
0.64,-1.08,0.2
0.7,-1,0.14
0.76,-0.92,0.09
0.79,-0.84,0.05
0.79,-0.79,0.03
0.71,-0.75,0.06
0.65,-0.72,0.11
0.61,-0.69,0.13
0.56,-0.67,0.14
0.55,-0.64,0.12
0.55,-0.63,0.1
0.53,-0.62,0.1
0.53,-0.62,0.1
0.54,-0.62,0.09
0.56,-0.62,0.07
0.57,-0.61,0.06
0.58,-0.64,0.07
0.54,-0.67,0.08
0.49,-0.69,0.09
0.44,-0.7,0.1
0.42,-0.71,0.12
0.45,-1.02,0.11
0.45,-1.02,0.11
0.47,-1.06,0.09
0.48,-1.1,0.07
0.48,-1.16,0.04
0.46,-1.2,-0.01
0.42,-1.25,-0.05
0.37,-1.34,-0.01
0.39,-1.45,0.11
0.44,-1.52,0.19
0.48,-1.52,0.22
0.51,-1.49,0.19
0.53,-1.48,0.15
0.51,-1.47,0.12
0.5,-1.51,0.07
0.52,-1.57,0.08
0.55,-1.6,0.15
0.61,-1.61,0.23
0.68,-1.61,0.23
0.71,-1.65,0.18
0.71,-1.7,0.15
0.72,-1.77,0.14
0.72,-1.83,0.15
0.74,-1.87,0.19
0.79,-1.86,0.26
0.79,-1.87,0.28
0.76,-1.87,0.2
0.76,-1.76,0.16
0.8,-1.62,0.21
0.88,-1.5,0.28
0.95,-1.42,0.3
0.96,-1.39,0.28
0.94,-1.43,0.24
0.9,-1.51,0.19
0.84,-1.58,0.16
0.76,-1.65,0.12
0.69,-1.69,0.06
0.63,-1.71,0
0.57,-1.71,-0.04
0.53,-1.69,-0.02
0.53,-1.58,0.01
0.54,-1.44,0.06
0.48,-1.25,0.13
0.43,-1.08,0.17
0.41,-0.94,0.16
0.4,-0.82,0.12
0.35,-0.71,0.07
0.29,-0.61,0.03
0.2,-0.55,0.03
0.14,-0.51,0.03
0.1,-0.52,0.02
0.08,-0.55,0.02
0.07,-0.58,0.03
0.07,-0.6,0.02
0.06,-0.61,0.01
0.04,-0.64,-0.01
0.04,-0.63,-0.04
0,-0.64,-0.07
-0.05,-0.65,-0.1
-0.06,-0.64,-0.11
-0.05,-0.63,-0.1
-0.03,-0.6,-0.09
-0.01,-0.56,-0.07
0.01,-0.53,-0.05
0.05,-0.51,-0.04
0.07,-0.48,-0.05
0.08,-0.44,-0.06
0.12,-0.43,-0.05
0.13,-0.45,-0.04
0.13,-0.48,-0.04
0.14,-0.52,-0.04
0.13,-0.55,-0.03
0.14,-0.58,0.01
0.16,-0.61,0.04
0.18,-0.63,0.05
0.19,-0.66,0.04
0.18,-0.7,0
0.18,-0.75,-0.05
0.2,-0.81,-0.09
0.23,-0.86,-0.11
0.28,-0.91,-0.08
0.37,-0.95,0.01
0.46,-0.98,0.07
0.53,-1.02,0.07
0.55,-1.04,0
0.54,-1.06,-0.08
0.54,-1.11,-0.17
0.55,-1.16,-0.24
0.58,-1.22,-0.26
0.65,-1.28,-0.19
0.78,-1.33,-0.06
0.93,-1.36,0.03
1.04,-1.38,-0.02
1.15,-1.41,-0.04
1.09,-1.44,-0.02
1.06,-1.47,0.01
1.02,-1.5,0.08
0.88,-1.57,0.19
0.81,-1.64,0.3
0.8,-1.72,0.37
0.88,-1.78,0.37
1.03,-1.79,0.37
1.05,-1.7,0.32
0.81,-1.64,0.1
0.64,-1.54,0
0.49,-1.42,0.08
0.59,-1.37,0.12
0.85,-1.31,0.21
0.75,-1.41,0.2
0.53,-1.61,0.19
0.43,-1.71,0.22
0.43,-1.7,0.2
0.43,-1.65,0.15
0.39,-1.53,0.11
0.29,-1.39,0.16
0.23,-1.33,0.21
0.26,-1.29,0.25
0.28,-1.2,0.26
0.31,-1.13,0.23
0.39,-1.04,0.22
0.4,-0.98,0.19
0.39,-0.93,0.17
0.38,-0.91,0.16
0.37,-0.93,0.17
0.35,-0.96,0.19
0.32,-0.98,0.2
0.29,-0.99,0.22
0.27,-0.99,0.22
0.28,-0.99,0.21
0.29,-0.99,0.19
0.32,-0.97,0.17
0.35,-0.95,0.16
0.38,-0.92,0.15
0.4,-0.89,0.17
0.41,-0.86,0.19
0.42,-0.83,0.19
0.44,-0.8,0.18
0.43,-0.78,0.18
0.42,-0.77,0.18
0.42,-0.77,0.17
0.44,-0.77,0.16
0.45,-0.76,0.15
0.46,-0.76,0.13
0.48,-0.75,0.11
0.51,-0.76,0.07
0.56,-0.78,0.07
0.57,-0.8,0.06
0.58,-0.82,0.04
0.6,-0.84,0.03
0.62,-0.86,0.02
0.66,-0.89,0.02
0.72,-0.93,0.01
0.77,-0.97,0.02
0.79,-1.03,0.03
0.81,-1.08,0.01
0.82,-1.15,0
0.81,-1.21,0.02
0.79,-1.27,0.03
0.78,-1.33,0.02
0.77,-1.37,0.01
0.79,-1.43,0.01
0.81,-1.5,0.03
0.8,-1.59,0.04
0.78,-1.64,0.06
0.78,-1.68,0.07
0.77,-1.72,0.09
0.75,-1.77,0.11
0.73,-1.82,0.13
0.73,-1.88,0.14
0.72,-1.96,0.15
0.7,-2.06,0.18
0.69,-2.26,0.15
0.68,-2.34,0.13
0.65,-2.37,0.14
0.64,-2.26,0.2
0.64,-2.06,0.24
0.66,-1.83,0.23
0.71,-1.67,0.21
0.75,-1.63,0.2
0.79,-1.67,0.2
0.82,-1.76,0.19
0.8,-1.81,0.14
0.73,-1.78,0.11
0.63,-1.71,0.09
0.56,-1.62,0.07
0.53,-1.51,0.07
0.53,-1.4,0.1
0.57,-1.29,0.12
0.6,-1.19,0.13
0.61,-1.1,0.11
0.58,-1.02,0.08
0.55,-0.95,0.05
0.51,-0.88,0.02
0.45,-0.83,-0.01
0.39,-0.78,-0.02
0.34,-0.72,-0.01
0.3,-0.68,-0.02
0.23,-0.59,-0.02
0.22,-0.55,-0.02
0.19,-0.51,-0.03
0.17,-0.49,-0.03
0.15,-0.48,-0.03
0.12,-0.49,-0.06
0.09,-0.5,-0.09
0.05,-0.51,-0.08
0.01,-0.52,-0.06
0,-0.52,-0.04
-0.01,-0.51,0
-0.02,-0.52,-0.01
-0.03,-0.53,-0.07
-0.05,-0.53,-0.06
-0.08,-0.56,-0.04
-0.07,-0.56,-0.05
-0.06,-0.51,-0.04
-0.04,-0.43,-0.04
-0.01,-0.39,-0.04
0.06,-0.38,-0.04
0.13,-0.37,-0.02
0.19,-0.37,-0.01
0.22,-0.38,0.01
0.23,-0.41,0
0.23,-0.45,-0.04
0.2,-0.47,-0.07
0.13,-0.5,-0.02
0.18,-0.49,0.11
0.28,-0.5,0.18
0.36,-0.55,0.17
0.39,-0.61,0.12
0.39,-0.7,0.05
0.38,-0.82,-0.03
0.37,-0.94,-0.09
0.37,-1.01,-0.17
0.38,-1.06,-0.25
0.44,-1.09,-0.23
0.6,-1.15,-0.11
0.84,-1.2,0.04
0.99,-1.24,0.09
0.98,-1.28,0.02
0.93,-1.35,-0.07
0.88,-1.42,-0.15
0.76,-1.48,-0.22
0.64,-1.52,-0.24
0.58,-1.54,-0.17
0.59,-1.58,-0.05
0.68,-1.65,0.03
0.75,-1.79,0.03
0.8,-1.96,0.04
0.81,-2.1,0.06
0.76,-2.2,0.08
0.71,-2.23,0.09
0.73,-2.1,0.11
0.69,-1.95,0.16
0.7,-1.98,0.17
0.76,-2.1,0.17
0.8,-2.23,0.18
0.83,-2.35,0.18
0.86,-2.36,0.19
0.9,-2.26,0.19
0.9,-2.05,0.22
0.87,-1.81,0.29
0.82,-1.65,0.32
0.77,-1.52,0.32
0.73,-1.38,0.32
0.7,-1.26,0.32
0.7,-1.15,0.3
0.71,-1.08,0.3
0.69,-1.06,0.29
0.67,-1.03,0.27
0.7,-1,0.24
0.71,-0.97,0.2
0.7,-0.95,0.17
0.68,-0.93,0.17
0.66,-0.91,0.17
0.65,-0.9,0.16
0.64,-0.89,0.16
0.62,-0.85,0.16
0.6,-0.82,0.14
0.59,-0.79,0.14
0.58,-0.77,0.13
0.57,-0.75,0.11
0.57,-0.73,0.12
0.57,-0.73,0.12
0.57,-0.73,0.12
0.57,-0.74,0.11
0.56,-0.75,0.1
0.54,-0.76,0.1
0.5,-0.78,0.09
0.46,-0.79,0.06
0.52,-1.2,-0.1
0.52,-1.24,-0.08
0.56,-1.26,-0.04
0.58,-1.28,-0.02
0.61,-1.31,-0.01
0.65,-1.36,0
0.68,-1.41,0.01
0.69,-1.44,0.02
0.68,-1.47,0.04
0.68,-1.49,0.06
0.7,-1.52,0.07
0.72,-1.57,0.08
0.72,-1.64,0.1
0.71,-1.72,0.11
0.69,-1.82,0.1
0.67,-1.92,0.08
0.65,-1.98,0.08
0.64,-1.99,0.09
0.66,-1.97,0.11
0.68,-1.92,0.15
0.7,-1.83,0.2
0.72,-1.72,0.24
0.7,-1.59,0.24
0.68,-1.45,0.22
0.67,-1.38,0.19
0.66,-1.39,0.15
0.67,-1.46,0.13
0.65,-1.64,0.15
0.52,-1.64,0.16
0.43,-1.56,0.18
0.41,-1.42,0.19
0.43,-1.26,0.19
0.47,-1.1,0.2
0.51,-0.96,0.19
0.54,-0.84,0.15
0.55,-0.76,0.13
0.56,-0.7,0.11
0.57,-0.66,0.1
0.53,-0.63,0.08
0.48,-0.61,0.05
0.42,-0.62,0.01
0.38,-0.65,-0.02
0.34,-0.7,-0.04
0.31,-0.74,-0.05
0.28,-0.76,-0.06
0.27,-0.77,-0.07
0.26,-0.77,-0.06
0.25,-0.76,-0.06
0.25,-0.75,-0.06
0.23,-0.72,-0.06
0.21,-0.68,-0.06
0.2,-0.63,-0.05
0.21,-0.56,-0.01
0.23,-0.51,0
0.23,-0.44,0.01
0.22,-0.4,0.03
0.22,-0.39,0.03
0.22,-0.39,0.02
0.21,-0.39,0.02
0.22,-0.39,0.03
0.23,-0.41,0.04
0.23,-0.44,0.05
0.24,-0.46,0.07
0.24,-0.49,0.09
0.26,-0.52,0.1
0.28,-0.54,0.11
0.29,-0.55,0.09
0.28,-0.56,0.05
0.28,-0.58,0.03
0.3,-0.61,0.04
0.35,-0.64,0.05
0.4,-0.67,0.05
0.43,-0.69,0.09
0.47,-0.69,0.19
0.54,-0.68,0.24
0.62,-0.68,0.2
0.64,-0.7,0.13
0.61,-0.72,0.04
0.54,-0.75,-0.04
0.52,-0.79,-0.1
0.65,-0.84,-0.1
0.74,-0.88,-0.05
0.85,-0.9,0.07
0.99,-0.94,0.11
1.07,-1,0
1.04,-1.07,-0.09
0.96,-1.13,-0.11
0.89,-1.2,-0.06
0.83,-1.27,0
0.78,-1.36,0.05
0.74,-1.47,0.07
0.7,-1.54,0.07
0.67,-1.55,0.08
0.66,-1.54,0.09
0.66,-1.55,0.08
0.67,-1.56,0.09
0.67,-1.55,0.11
0.66,-1.51,0.09
0.66,-1.44,0.09
0.63,-1.36,0.09
0.58,-1.36,0.07
0.56,-1.39,0.05
0.57,-1.41,0.05
0.53,-1.43,0.09
0.44,-1.43,0.13
0.35,-1.46,-0.01
0.59,-1.44,0
0.46,-1.29,0.06
0.25,-1.29,0.09
0.25,-1.34,0.13
0.33,-1.34,0.17
0.34,-1.3,0.21
0.3,-1.32,0.21
0.25,-1.31,0.19
0.19,-1.29,0.18
0.12,-1.29,0.19
0.1,-1.25,0.22
0.13,-1.22,0.24
0.16,-1.21,0.23
0.17,-1.21,0.22
0.18,-1.18,0.21
0.2,-1.14,0.21
0.23,-1.12,0.21
0.25,-1.11,0.2
0.27,-1.08,0.19
0.28,-1.06,0.19
0.3,-1.05,0.17
0.32,-1.03,0.17
0.33,-1.01,0.18
0.35,-0.99,0.19
0.36,-0.96,0.2
0.37,-0.92,0.2
0.36,-0.85,0.2
0.33,-0.83,0.21
0.31,-0.81,0.21
0.32,-0.81,0.21
0.34,-0.8,0.21
0.35,-0.79,0.22
0.36,-0.77,0.22
0.37,-0.77,0.22
0.38,-0.76,0.22
0.37,-0.75,0.23
0.36,-0.75,0.24
0.35,-0.76,0.25
0.34,-0.76,0.25
0.34,-0.77,0.23
0.33,-0.78,0.21
0.32,-0.8,0.22
0.33,-0.82,0.23
0.35,-0.83,0.22
0.36,-0.85,0.21
0.38,-0.86,0.2
0.39,-0.86,0.19
0.4,-0.87,0.17
0.4,-0.88,0.14
0.4,-0.89,0.13
0.41,-0.92,0.13
0.43,-0.96,0.19
0.51,-1.01,0.18
0.53,-1.04,0.15
0.52,-1.08,0.12
0.52,-1.1,0.1
0.54,-1.14,0.09
0.55,-1.18,0.09
0.56,-1.22,0.09
0.58,-1.24,0.08
0.62,-1.25,0.09
0.66,-1.27,0.11
0.7,-1.3,0.11
0.72,-1.34,0.11
0.72,-1.39,0.1
0.74,-1.42,0.07
0.75,-1.45,0.06
0.76,-1.49,0.1
0.78,-1.51,0.14
0.79,-1.55,0.16
0.78,-1.61,0.15
0.78,-1.69,0.13
0.79,-1.77,0.09
0.81,-1.85,0.06
0.85,-1.92,0.02
0.86,-1.92,0.06
0.82,-1.87,0.16
0.79,-1.79,0.17
0.68,-1.54,0.21
0.69,-1.43,0.25
0.73,-1.38,0.27
0.79,-1.42,0.28
0.87,-1.53,0.23
0.91,-1.69,0.17
0.88,-1.85,0.12
0.8,-1.94,0.09
0.71,-1.89,0.09
0.65,-1.68,0.12
0.64,-1.42,0.18
0.68,-1.22,0.21
0.71,-1.1,0.22
0.74,-1,0.2
0.72,-0.9,0.14
0.65,-0.83,0.1
0.57,-0.77,0.06
0.51,-0.7,0.03
0.45,-0.65,0.04
0.41,-0.59,0.08
0.38,-0.55,0.11
0.36,-0.52,0.1
0.34,-0.49,0.1
0.32,-0.49,0.1
0.32,-0.47,0.09
0.3,-0.43,0.08
0.26,-0.42,0.07
0.23,-0.42,0.06
0.19,-0.41,0.06
0.17,-0.41,0.07
0.15,-0.41,0.05
0.12,-0.43,0.03
0.1,-0.45,0.01
0.08,-0.46,0
0.07,-0.45,-0.01
0.08,-0.44,-0.02
0.09,-0.44,-0.02
0.09,-0.46,-0.02
0.1,-0.48,-0.03
0.1,-0.48,-0.04
0.1,-0.46,-0.05
0.12,-0.43,-0.06
0.15,-0.39,-0.04
0.2,-0.37,-0.02
0.24,-0.37,-0.02
0.25,-0.38,-0.04
0.25,-0.41,-0.07
0.24,-0.45,-0.09
0.24,-0.48,-0.11
0.22,-0.5,-0.12
0.21,-0.52,-0.08
0.22,-0.55,0.01
0.26,-0.61,0.12
0.37,-0.63,0.06
0.38,-0.64,-0.05
0.36,-0.69,-0.12
0.37,-0.75,-0.12
0.42,-0.81,-0.08
0.5,-0.88,0.02
0.6,-0.93,0.16
0.72,-0.97,0.25
0.77,-1.03,0.23
0.74,-1.13,0.15
0.68,-1.23,0.09
0.64,-1.31,0.09
0.59,-1.4,0.12
0.54,-1.49,0.17
0.53,-1.55,0.2
0.54,-1.6,0.2
0.59,-1.66,0.18
0.65,-1.73,0.14
0.71,-1.79,0.12
0.76,-1.86,0.12
0.79,-1.91,0.13
0.82,-2.05,0.14
0.96,-2.12,0.14
1.02,-2.11,0.17
0.9,-2.24,0.17
0.86,-2.38,-0.08
0.86,-2.25,-0.03
0.95,-2.01,0.05
0.88,-1.94,0.03
0.7,-1.76,0
0.55,-1.44,0.14
0.56,-1.15,0.3
0.54,-1.14,0.33
0.44,-1.26,0.27
0.4,-1.28,0.21
0.47,-1.31,0.18
0.52,-1.36,0.16
0.51,-1.4,0.12
0.47,-1.42,0.11
0.43,-1.42,0.12
0.41,-1.36,0.15
0.4,-1.27,0.17
0.35,-1.23,0.18
0.31,-1.18,0.17
0.33,-1.1,0.15
0.36,-1.02,0.13
0.39,-0.96,0.13
0.41,-0.92,0.14
0.41,-0.89,0.15
0.43,-0.84,0.14
0.47,-0.79,0.12
0.5,-0.73,0.07
0.52,-0.73,0.08
0.54,-0.73,0.11
0.54,-0.73,0.15
0.54,-0.72,0.17
0.54,-0.71,0.17
0.53,-0.69,0.16
0.52,-0.69,0.17
0.5,-0.7,0.19
0.48,-0.71,0.18
0.46,-0.73,0.17
0.43,-0.76,0.18
0.4,-0.78,0.18
0.39,-0.79,0.17
0.37,-0.79,0.16
0.34,-0.8,0.16
0.33,-0.83,0.17
0.34,-0.87,0.17
0.35,-0.9,0.16
0.37,-0.91,0.15
0.39,-0.93,0.13
0.38,-0.97,0.11
0.37,-0.98,0.1
0.38,-0.97,0.09
0.38,-0.97,0.08
0.37,-0.98,0.06
0.36,-0.97,0.06
0.39,-0.95,0.06
0.49,-0.96,0.02
0.56,-0.99,0.01
0.62,-1.04,0.02
0.7,-1.09,0.02
0.78,-1.16,0.04
0.86,-1.22,0.06
0.9,-1.29,0.08
0.9,-1.37,0.11
0.88,-1.42,0.13
0.85,-1.46,0.1
0.81,-1.53,0.06
0.8,-1.59,0.08
0.81,-1.61,0.14
0.85,-1.6,0.19
0.9,-1.59,0.2
0.94,-1.6,0.21
0.95,-1.62,0.22
0.95,-1.68,0.21
0.96,-1.75,0.23
0.92,-1.83,0.32
1.03,-1.81,0.4
0.94,-1.78,0.31
0.75,-1.88,0.22
0.87,-1.92,0.22
0.92,-1.83,0.32
0.81,-1.4,0.36
0.87,-1.18,0.35
0.94,-1.02,0.31
0.99,-1,0.24
1.03,-1.1,0.15
1,-1.24,0.08
0.9,-1.33,0.05
0.76,-1.33,0.04
0.64,-1.29,0.03
0.56,-1.17,0.04
0.51,-1.01,0.07
0.48,-0.84,0.09
0.5,-0.73,0.08
0.55,-0.7,0.05
0.62,-0.65,0.02
0.62,-0.61,0.01
0.61,-0.6,0
0.58,-0.57,-0.01
0.52,-0.57,-0.01
0.46,-0.56,-0.01
0.39,-0.53,-0.02
0.34,-0.52,-0.02
0.32,-0.53,-0.04
0.3,-0.53,-0.05
0.26,-0.53,-0.05
0.24,-0.5,-0.04
0.21,-0.44,-0.03
0.22,-0.42,-0.03
0.24,-0.41,-0.03
0.24,-0.42,-0.03
0.25,-0.41,0.01
0.23,-0.39,0.01
0.19,-0.41,-0.03
0.18,-0.42,-0.02
0.21,-0.41,-0.01
0.26,-0.41,-0.01
0.3,-0.4,0
0.32,-0.38,0
0.33,-0.35,0
0.34,-0.34,0.02
0.35,-0.33,0.03
0.37,-0.33,0.01
0.36,-0.37,-0.03
0.32,-0.41,-0.06
0.28,-0.44,-0.08
0.28,-0.48,-0.1
0.34,-0.51,-0.12
0.41,-0.53,-0.13
0.44,-0.52,-0.12
0.42,-0.49,-0.08
0.3,-0.46,-0.05
0.24,-0.51,0
0.23,-0.58,0.07
0.23,-0.66,0.16
0.23,-0.73,0.21
0.27,-0.79,0.18
0.32,-0.89,0.1
0.37,-1,0.05
0.47,-1.08,0.04
0.62,-1.16,0.11
0.77,-1.27,0.19
0.86,-1.33,0.26
0.84,-1.39,0.35
0.78,-1.48,0.37
0.69,-1.57,0.31
0.56,-1.68,0.25
0.44,-1.8,0.22
0.4,-1.92,0.22
0.44,-2.03,0.24
0.53,-2.1,0.27
0.62,-2.15,0.29
0.66,-2.21,0.28
0.78,-2.25,0.27
0.98,-2.22,0.31
0.95,-2.22,0.36
0.84,-2.26,0.37
0.71,-2.13,0.37
0.56,-1.93,0.38
0.52,-1.76,0.37
0.6,-1.69,0.35
0.63,-1.67,0.35
0.56,-1.65,0.34
0.52,-1.63,0.32
0.48,-1.59,0.35
0.42,-1.53,0.37
0.39,-1.47,0.39
0.39,-1.44,0.38
0.39,-1.38,0.35
0.4,-1.3,0.35
0.42,-1.27,0.33
0.45,-1.25,0.29
0.48,-1.21,0.27
0.5,-1.17,0.23
0.53,-1.13,0.2
0.57,-1.09,0.18
0.6,-1.05,0.17
0.61,-1.01,0.15
0.61,-0.96,0.14
0.6,-0.91,0.15
0.6,-0.86,0.15
0.6,-0.81,0.17
0.61,-0.77,0.18
0.61,-0.72,0.17
0.6,-0.7,0.16
0.59,-0.68,0.16
0.6,-0.67,0.17
0.58,-0.67,0.18
0.55,-0.68,0.2
0.53,-0.7,0.21
0.49,-0.72,0.21
0.45,-0.74,0.21
0.44,-0.75,0.2
0.44,-0.78,0.19
0.44,-0.81,0.17
0.45,-0.84,0.16
0.46,-0.86,0.14
0.47,-0.88,0.11
0.48,-0.91,0.09
0.49,-0.93,0.07
0.49,-0.98,0.06
0.48,-1.04,0.05
0.5,-1.08,0.04
0.53,-1.13,0.03
0.55,-1.19,0.02
0.58,-1.24,0.01
0.59,-1.27,-0.01
0.62,-1.28,-0.02
0.64,-1.29,-0.05
0.72,-1.4,-0.01
0.7,-1.48,0.01
0.62,-1.57,0.01
0.55,-1.64,0.02
0.5,-1.67,0.04
0.49,-1.67,0.07
0.51,-1.68,0.12
0.56,-1.67,0.16
0.59,-1.68,0.19
0.6,-1.7,0.2
0.6,-1.73,0.2
0.61,-1.76,0.21
0.62,-1.8,0.26
0.66,-1.85,0.27
0.69,-1.92,0.27
0.66,-2.01,0.3
0.65,-2.06,0.32
0.66,-2.07,0.33
0.67,-2.02,0.32
0.69,-1.96,0.31
0.72,-1.95,0.29
0.74,-1.96,0.27
0.72,-1.94,0.28
0.65,-1.85,0.31
0.63,-1.66,0.34
0.68,-1.44,0.35
0.77,-1.12,0.34
0.82,-1.11,0.31
0.84,-1.18,0.25
0.75,-1.26,0.19
0.62,-1.24,0.16
0.55,-1.12,0.16
0.49,-1,0.12
0.42,-0.89,0.09
0.38,-0.77,0.1
0.38,-0.66,0.12
0.41,-0.59,0.1
0.43,-0.58,0.07
0.42,-0.59,0.03
0.4,-0.59,0.02
0.38,-0.56,0.02
0.35,-0.54,0.01
0.33,-0.51,0.01
0.32,-0.47,0.02
0.31,-0.44,0.04
0.3,-0.43,0.05
0.3,-0.4,0.05
0.28,-0.39,0.03
0.24,-0.39,0.02
0.21,-0.4,0.01
0.19,-0.39,0.01
0.17,-0.37,0.01
0.13,-0.37,0
0.13,-0.34,0.04
0.13,-0.33,0.03
0.13,-0.34,0.01
0.11,-0.34,0.01
0.09,-0.33,0.01
0.11,-0.34,-0.02
0.15,-0.35,-0.03
0.17,-0.37,-0.02
0.19,-0.38,0.01
0.2,-0.4,0.05
0.23,-0.41,0.1
0.28,-0.42,0.12
0.32,-0.44,0.12
0.35,-0.46,0.1
0.36,-0.48,0.08
0.36,-0.51,0.06
0.35,-0.53,0.02
0.34,-0.55,0.01
0.34,-0.55,0.05
0.38,-0.55,0.11
0.47,-0.56,0.14
0.51,-0.6,0.1
0.52,-0.66,0.04
0.53,-0.71,-0.03
0.53,-0.76,-0.06
0.5,-0.86,-0.05
0.53,-0.9,0.09
0.61,-0.96,0.22
0.72,-1.01,0.21
0.76,-1.03,0.09
0.78,-1.08,0.01
0.82,-1.15,0.04
0.87,-1.21,0.08
0.85,-1.28,0.12
0.81,-1.35,0.15
0.79,-1.43,0.16
0.81,-1.48,0.19
0.86,-1.52,0.23
0.88,-1.55,0.24
0.91,-1.56,0.27
0.92,-1.54,0.28
0.88,-1.53,0.28
0.83,-1.53,0.31
0.74,-1.57,0.38
0.64,-1.57,0.47
0.65,-1.63,0.53
0.83,-1.71,0.36
0.94,-1.81,0.15
0.67,-1.84,0.14
0.69,-1.74,0.16
0.98,-1.68,0.16
0.83,-1.56,0.04
0.56,-1.44,0.01
0.52,-1.35,0.02
0.5,-1.28,0.05
0.47,-1.27,0.08
0.44,-1.33,0.11
0.4,-1.39,0.13
0.35,-1.42,0.12
0.3,-1.42,0.13
0.25,-1.41,0.14
0.19,-1.35,0.13
0.13,-1.29,0.12
0.12,-1.26,0.13
0.12,-1.23,0.18
0.15,-1.22,0.18
0.18,-1.18,0.18
0.22,-1.16,0.19
0.25,-1.16,0.18
0.27,-1.14,0.17
0.29,-1.1,0.15
0.27,-1.02,0.16
0.24,-1.02,0.15
0.22,-1.03,0.17
0.21,-1.01,0.21
0.22,-0.94,0.24
0.2,-0.91,0.26
0.19,-0.88,0.24
0.16,-0.84,0.23
0.16,-0.79,0.22
0.15,-0.77,0.23
0.13,-0.77,0.25
0.11,-0.78,0.27
0.09,-0.77,0.27
0.1,-0.76,0.27
0.12,-0.76,0.28
0.1,-0.79,0.28
0.09,-0.82,0.28
0.09,-0.83,0.28
0.11,-0.84,0.28
0.14,-0.84,0.28
0.15,-0.84,0.27
0.16,-0.84,0.28
0.18,-0.84,0.28
0.2,-0.84,0.28
0.19,-0.85,0.28
0.2,-0.86,0.27
0.21,-0.86,0.25
0.22,-0.87,0.25
0.23,-0.89,0.25
0.25,-0.9,0.26
0.29,-0.9,0.26
0.32,-0.91,0.25
0.38,-0.94,0.21
0.45,-1.01,0.21
0.46,-1.06,0.14
0.53,-1.01,0.09
0.57,-1.04,0.11
0.54,-1.13,0.08
0.51,-1.16,0.09
0.54,-1.18,0.09
0.58,-1.23,0.1
0.59,-1.29,0.11
0.6,-1.36,0.11
0.6,-1.42,0.11
0.6,-1.46,0.1
0.59,-1.5,0.1
0.56,-1.54,0.1
0.55,-1.57,0.08
0.54,-1.58,0.07
0.54,-1.59,0.09
0.57,-1.6,0.11
0.6,-1.63,0.11
0.63,-1.67,0.09
0.65,-1.73,0.1
0.68,-1.78,0.1
0.7,-1.83,0.08
0.68,-1.87,0.07
0.68,-1.88,0.1
0.68,-1.88,0.15
0.71,-1.88,0.15
0.78,-1.86,0.15
0.8,-1.84,0.15
0.72,-1.78,0.16
0.73,-1.67,0.19
0.82,-1.61,0.2
0.84,-1.59,0.18
0.84,-1.58,0.15
0.82,-1.56,0.1
0.77,-1.51,0.06
0.72,-1.39,0.05
0.67,-1.25,0.04
0.64,-1.14,0.04
0.59,-1.06,0.02
0.54,-0.96,0.02
0.5,-0.89,-0.01
0.46,-0.86,-0.05
0.42,-0.82,-0.07
0.37,-0.79,-0.07
0.35,-0.75,-0.05
0.31,-0.72,-0.05
0.28,-0.7,-0.05
0.27,-0.65,-0.03
0.27,-0.61,-0.01
0.28,-0.61,-0.01
0.27,-0.62,-0.05
0.2,-0.62,-0.07
0.18,-0.59,-0.08
0.18,-0.57,-0.08
0.19,-0.55,-0.03
0.21,-0.52,0.03
0.23,-0.49,0.07
0.27,-0.47,0.08
0.33,-0.44,0.09
0.37,-0.41,0.08
0.37,-0.39,0.07
0.37,-0.37,0.05
0.36,-0.36,0.03
0.36,-0.33,0.01
0.35,-0.31,0.01
0.34,-0.29,0.03
0.33,-0.25,0.05
0.35,-0.24,0.08
0.4,-0.24,0.09
0.44,-0.25,0.1
0.44,-0.25,0.12
0.47,-0.27,0.12
0.51,-0.29,0.1
0.53,-0.31,0.06
0.53,-0.34,0.01
0.53,-0.37,-0.01
0.55,-0.41,0.02
0.7,-0.45,0.03
0.76,-0.46,0.04
0.75,-0.46,0.04
0.7,-0.45,0.04
0.66,-0.44,0.04
0.65,-0.43,0.03
0.65,-0.42,0
0.63,-0.43,-0.05
0.62,-0.45,-0.09
0.61,-0.46,-0.14
0.63,-0.48,-0.16
0.66,-0.48,-0.08
0.72,-0.42,0.06
0.8,-0.33,0.16
0.86,-0.3,0.17
0.86,-0.34,0.13
0.81,-0.39,0.08
0.73,-0.44,0.03
0.68,-0.5,-0.02
0.64,-0.57,-0.05
0.59,-0.66,-0.06
0.59,-0.75,-0.07
0.68,-0.85,-0.06
0.87,-0.94,-0.01
1.07,-0.98,0.03
1.2,-1.01,-0.02
1.21,-1.09,-0.13
1.14,-1.14,-0.18
1.01,-1.23,-0.17
0.93,-1.3,-0.16
0.89,-1.31,-0.17
0.83,-1.3,-0.13
0.77,-1.34,-0.04
0.72,-1.44,0.08
0.72,-1.54,0.15
0.73,-1.56,0.15
0.75,-1.48,0.09
0.77,-1.35,0.03
0.77,-1.23,0.03
0.74,-1.22,-0.01
0.81,-1.25,-0.01
0.79,-1.27,0.09
0.69,-1.4,0.1
0.79,-1.49,-0.07
0.85,-1.3,-0.03
0.74,-1.3,0.11
0.67,-1.55,0.04
0.57,-1.61,0.02
0.45,-1.49,0.05
0.52,-1.34,0.05
0.6,-1.27,0.03
0.58,-1.27,0.12
0.49,-1.25,0.12
0.52,-1.19,0.09
0.54,-1.13,0.06
0.54,-1.09,0.05
0.5,-1.06,0.05
0.45,-1.04,0.02
0.45,-1.04,0.04
0.45,-1.02,0.08
0.43,-1,0.09
0.4,-1.03,0.13
0.35,-1.02,0.15
0.36,-0.98,0.12
0.39,-0.95,0.11
0.39,-0.93,0.11
0.4,-0.9,0.12
0.43,-0.88,0.12
0.46,-0.85,0.12
0.48,-0.83,0.12
0.49,-0.82,0.13
0.51,-0.81,0.12
0.52,-0.8,0.12
0.54,-0.78,0.12
0.55,-0.77,0.14
0.57,-0.77,0.14
0.58,-0.78,0.13
0.57,-0.78,0.09
0.55,-0.79,0.08
0.54,-0.81,0.08
0.54,-0.82,0.09
0.55,-0.84,0.08
0.56,-0.88,0.06
0.57,-0.9,0.04
0.56,-0.92,0.04
0.56,-0.94,0.03
0.57,-0.96,0.01
0.58,-0.97,0
0.59,-0.99,-0.01
0.61,-1.01,-0.02
0.61,-1.05,-0.03
0.62,-1.1,-0.04
0.64,-1.15,-0.04
0.66,-1.2,-0.03
0.69,-1.24,-0.02
0.69,-1.27,-0.02
0.68,-1.31,-0.03
0.66,-1.33,-0.03
0.65,-1.36,-0.02
0.67,-1.41,-0.01
0.69,-1.46,0.02
0.7,-1.5,0.04
0.71,-1.55,0.06
0.73,-1.59,0.08
0.7,-1.65,0.12
0.7,-1.67,0.13
0.71,-1.66,0.13
0.7,-1.66,0.12
0.68,-1.69,0.09
0.68,-1.71,0.11
0.73,-1.67,0.18
0.79,-1.64,0.2
0.81,-1.65,0.15
0.8,-1.69,0.13
0.81,-1.72,0.13
0.81,-1.71,0.12
0.75,-1.64,0.17
0.77,-1.53,0.22
0.87,-1.41,0.19
0.94,-1.28,0.15
0.96,-1.16,0.16
0.95,-1.08,0.16
0.95,-0.98,0.15
0.92,-0.9,0.15
0.87,-0.88,0.13
0.84,-0.88,0.09
0.82,-0.89,0.04
0.78,-0.89,0
0.74,-0.86,-0.03
0.72,-0.79,-0.05
0.71,-0.6,-0.05
0.72,-0.51,-0.05
0.73,-0.45,-0.06
0.73,-0.42,-0.08
0.71,-0.4,-0.08
0.69,-0.41,-0.07
0.65,-0.4,-0.06
0.6,-0.36,-0.04
0.57,-0.33,-0.01
0.56,-0.31,0.02
0.56,-0.3,0.03
0.54,-0.31,0.02
0.5,-0.3,0.02
0.44,-0.3,-0.02
0.38,-0.32,-0.05
0.34,-0.3,-0.06
0.3,-0.3,-0.06
0.28,-0.35,-0.04
0.3,-0.39,0
0.35,-0.36,0.03
0.35,-0.36,0.03
0.35,-0.38,0.06
0.34,-0.38,0.07
0.34,-0.37,0.05
0.33,-0.36,0.04
0.31,-0.35,0.04
0.3,-0.31,0.06
0.24,-0.27,0.07
0.22,-0.24,0.1
0.24,-0.25,0.12
0.29,-0.25,0.13
0.34,-0.22,0.13
0.39,-0.2,0.15
0.43,-0.19,0.17
0.45,-0.21,0.17
0.45,-0.25,0.15
0.39,-0.28,0.11
0.3,-0.31,0.08
0.22,-0.34,0.06
0.18,-0.36,0.11
0.2,-0.34,0.18
0.28,-0.33,0.17
0.38,-0.33,0.14
0.5,-0.32,0.1
0.6,-0.35,0.03
0.61,-0.43,-0.03
0.59,-0.55,-0.04
0.6,-0.65,0.02
0.58,-0.73,0.04
0.52,-0.78,0
0.48,-0.83,-0.03
0.5,-0.9,-0.05
0.58,-1.01,-0.11
0.79,-1.02,-0.05
0.81,-1.01,-0.08
0.77,-1,-0.17
0.7,-1.01,-0.15
0.65,-1.04,-0.1
0.63,-1.1,-0.04
0.65,-1.2,-0.03
0.7,-1.3,-0.05
0.75,-1.4,-0.05
0.81,-1.48,-0.02
0.86,-1.57,-0.02
0.86,-1.66,-0.03
0.83,-1.73,-0.03
0.78,-1.76,-0.03
0.7,-1.76,-0.03
0.63,-1.77,-0.05
0.58,-1.79,-0.06
0.56,-1.77,-0.03
0.59,-1.75,0.01
0.66,-1.74,0.03
0.73,-1.72,0.07
0.79,-1.67,0.1
0.79,-1.58,0.11
0.74,-1.46,0.11
0.64,-1.35,0.12
0.55,-1.38,0.06
0.52,-1.4,0.05
0.57,-1.52,0.09
0.51,-1.69,0.11
0.46,-1.74,0.15
0.42,-1.73,0.16
0.39,-1.68,0.16
0.39,-1.59,0.15
0.4,-1.51,0.14
0.41,-1.43,0.15
0.41,-1.36,0.18
0.41,-1.29,0.2
0.4,-1.23,0.2
0.38,-1.18,0.2
0.35,-1.14,0.19
0.32,-1.11,0.15
0.3,-1.1,0.14
0.29,-1.09,0.16
0.3,-1.08,0.17
0.33,-1.07,0.17
0.33,-1.04,0.16
0.35,-1.02,0.15
0.38,-1.01,0.16
0.43,-0.98,0.16
0.47,-0.94,0.16
0.46,-0.9,0.16
0.44,-0.87,0.2
0.42,-0.82,0.21
0.41,-0.79,0.21
0.41,-0.77,0.21
0.39,-0.76,0.21
0.37,-0.75,0.21
0.36,-0.75,0.21
0.36,-0.74,0.21
0.35,-0.74,0.2
0.35,-0.73,0.18
0.35,-0.72,0.16
0.37,-0.73,0.14
0.41,-0.74,0.12
0.43,-0.76,0.11
0.44,-0.79,0.11
0.45,-0.83,0.11
0.48,-0.87,0.12
0.49,-0.89,0.12
0.49,-0.91,0.1
0.51,-0.94,0.07
0.52,-0.98,0.04
0.53,-1,0.03
0.54,-1.04,0.01
0.55,-1.1,-0.01
0.56,-1.15,-0.02
0.56,-1.19,-0.02
0.56,-1.23,-0.03
0.59,-1.31,-0.03
0.61,-1.38,-0.01
0.63,-1.44,-0.01
0.63,-1.51,-0.02
0.61,-1.57,-0.01
0.6,-1.6,0.02
0.6,-1.64,0.05
0.61,-1.66,0.09
0.64,-1.69,0.11
0.67,-1.72,0.14
0.68,-1.75,0.16
0.66,-1.79,0.18
0.61,-1.83,0.2
0.59,-1.86,0.18
0.6,-1.87,0.15
0.63,-1.9,0.14
0.63,-1.94,0.21
0.58,-1.97,0.26
0.54,-1.89,0.24
0.55,-1.73,0.22
0.63,-1.56,0.2
0.73,-1.49,0.22
0.8,-1.52,0.21
0.91,-1.55,0.16
0.95,-1.57,0.13
0.89,-1.55,0.09
1,-1.32,0.05
1.03,-1.24,0.01
1.02,-1.21,-0.01
1,-1.2,-0.02
0.99,-1.16,-0.02
0.96,-1.11,-0.03
0.9,-1.05,-0.05
0.85,-0.97,-0.06
0.8,-0.89,-0.05
0.77,-0.82,-0.03
0.74,-0.77,0
0.72,-0.72,0.04
0.7,-0.69,0.05
0.67,-0.68,0.06
0.61,-0.66,0.05
0.53,-0.65,0.04
0.45,-0.63,0.02
0.39,-0.59,0.03
0.34,-0.57,0.03
0.31,-0.57,0.03
0.3,-0.52,0.06
0.29,-0.47,0.06
0.27,-0.46,0.04
0.27,-0.45,0.01
0.24,-0.43,-0.03
0.22,-0.4,-0.02
0.22,-0.37,-0.02
0.22,-0.36,0
0.2,-0.33,-0.02
0.22,-0.31,-0.03
0.27,-0.28,-0.01
0.28,-0.25,0
0.27,-0.2,0.01
0.31,-0.17,0.02
0.34,-0.14,0.03
0.34,-0.12,0.01
0.35,-0.09,0
0.37,-0.07,0.01
0.4,-0.05,0.03
0.44,-0.05,0.04
0.49,-0.05,0.04
0.53,-0.06,0.05
0.56,-0.06,0.08
0.59,-0.07,0.1
0.61,-0.09,0.08
0.6,-0.12,0.06
0.59,-0.14,0.06
0.58,-0.17,0.07
0.59,-0.18,0.09
0.63,-0.18,0.1
0.67,-0.19,0.09
0.7,-0.21,0.09
0.72,-0.24,0.11
0.73,-0.25,0.11
0.73,-0.25,0.08
0.72,-0.26,0.05
0.72,-0.27,0.01
0.73,-0.27,0
0.75,-0.3,-0.01
0.76,-0.32,0
0.78,-0.34,0.06
0.8,-0.36,0.12
0.82,-0.41,0.13
0.8,-0.46,0.08
0.72,-0.5,-0.01
0.65,-0.54,-0.06
0.62,-0.54,-0.06
0.62,-0.56,-0.05
0.69,-0.6,-0.01
0.81,-0.64,0.08
0.96,-0.67,0.17
1.06,-0.7,0.13
1.05,-0.74,0.05
0.95,-0.79,0
0.82,-0.84,-0.02
0.71,-0.86,0.02
0.65,-0.87,0.1
0.63,-0.94,0.25
0.87,-1.15,0.3
0.98,-1.24,0.29
0.99,-1.32,0.23
0.94,-1.38,0.17
0.87,-1.41,0.16
0.83,-1.38,0.17
0.79,-1.32,0.21
0.75,-1.26,0.25
0.74,-1.25,0.28
0.76,-1.26,0.29
0.77,-1.26,0.3
0.75,-1.3,0.3
0.73,-1.34,0.31
0.74,-1.32,0.36
0.72,-1.3,0.36
0.76,-1.29,0.34
0.85,-1.28,0.3
0.7,-1.35,0.2
0.55,-1.37,-0.02
0.69,-1.19,-0.07
0.68,-1.12,0.1
0.49,-1.2,0.18
0.45,-1.24,0.21
0.52,-1.18,0.18
0.55,-1.09,0.2
0.44,-1.12,0.2
0.48,-1.19,0.08
0.52,-1.16,0.07
0.51,-1.23,0.05
0.49,-1.26,0.07
0.5,-1.23,0.08
0.5,-1.18,0.07
0.48,-1.14,0.09
0.41,-1.13,0.09
0.35,-1.11,0.09
0.37,-1.06,0.1
0.37,-1,0.09
0.36,-0.96,0.1
0.35,-0.95,0.1
0.35,-0.94,0.1
0.35,-0.92,0.1
0.35,-0.89,0.09
0.32,-0.87,0.09
0.29,-0.86,0.09
0.27,-0.85,0.09
0.26,-0.85,0.09
0.25,-0.86,0.11
0.25,-0.87,0.12
0.27,-0.86,0.12
0.27,-0.87,0.11
0.27,-0.89,0.11
0.28,-0.89,0.11
0.29,-0.89,0.14
0.27,-0.9,0.15
0.24,-0.91,0.17
0.21,-0.92,0.18
0.18,-0.93,0.18
0.17,-0.94,0.19
0.16,-0.95,0.21
0.16,-0.95,0.23
0.16,-0.95,0.23
0.14,-0.96,0.23
0.12,-0.95,0.23
0.11,-0.95,0.22
0.09,-0.96,0.21
0.09,-0.97,0.21
0.08,-0.97,0.21
0.07,-0.97,0.22
0.08,-0.97,0.23
0.1,-0.97,0.23
0.12,-0.98,0.23
0.13,-0.99,0.23
0.14,-1,0.22
0.16,-1.01,0.22
0.18,-1.01,0.22
0.18,-1.01,0.22
0.18,-1.01,0.23
0.17,-1.02,0.23
0.18,-1.02,0.28
0.21,-1.03,0.29
0.22,-1.04,0.27
0.23,-1.05,0.25
0.23,-1.07,0.25
0.22,-1.1,0.25
0.21,-1.12,0.24
0.22,-1.16,0.25
0.23,-1.17,0.24
0.24,-1.17,0.23
0.23,-1.17,0.22
0.22,-1.16,0.22
0.22,-1.13,0.21
0.22,-1.1,0.2
0.22,-1.08,0.2
0.2,-1.05,0.2
0.19,-1.04,0.2
0.21,-1.08,0.19
0.25,-1.18,0.2
0.29,-1.3,0.22
0.32,-1.41,0.22
0.31,-1.5,0.2
0.25,-1.55,0.18
0.18,-1.55,0.16
0.12,-1.49,0.13
0.08,-1.38,0.12
0.04,-1.18,0.13
0,-1.09,0.13
-0.01,-1.03,0.11
-0.02,-0.99,0.09
0.01,-0.98,0.07
0.05,-1.01,0.05
0.06,-1.05,0.04
0.02,-1.07,0.02
0,-1.07,-0.01
0.01,-1.06,-0.04
-0.01,-1.06,-0.05
-0.06,-1.06,-0.04
-0.09,-1.07,-0.04
-0.09,-1.08,-0.04
-0.07,-1.09,-0.06
-0.06,-1.09,-0.09
-0.04,-1.09,-0.12
-0.02,-1.07,-0.15
0.02,-1.05,-0.18
0.07,-1.03,-0.18
0.1,-1.01,-0.18
0.12,-1.02,-0.18
0.11,-1.04,-0.17
0.07,-1.07,-0.17
0.03,-1.07,-0.18
-0.03,-1.05,-0.19
-0.07,-0.97,-0.2
-0.06,-0.94,-0.19
-0.03,-0.92,-0.17
0,-0.9,-0.15
0.03,-0.9,-0.13
0.05,-0.91,-0.13
0.06,-0.91,-0.13
0.06,-0.89,-0.13
0.06,-0.87,-0.13
0.07,-0.85,-0.13
0.08,-0.82,-0.12
0.08,-0.8,-0.12
0.1,-0.79,-0.12
0.13,-0.79,-0.1
0.14,-0.81,-0.09
0.15,-0.82,-0.1
0.17,-0.84,-0.11
0.19,-0.86,-0.12
0.21,-0.87,-0.13
0.23,-0.88,-0.13
0.25,-0.89,-0.14
0.26,-0.9,-0.14
0.27,-0.91,-0.14
0.28,-0.93,-0.15
0.29,-0.94,-0.15
0.29,-0.95,-0.15
0.28,-0.96,-0.15
0.24,-0.99,-0.14
0.24,-1.01,-0.15
0.26,-1.05,-0.18
0.27,-1.09,-0.19
0.28,-1.13,-0.2
0.32,-1.17,-0.22
0.37,-1.2,-0.25
0.45,-1.22,-0.26
0.49,-1.2,-0.24
0.49,-1.16,-0.23
0.49,-1.14,-0.23
0.49,-1.13,-0.24
0.48,-1.12,-0.25
0.45,-1.1,-0.26
0.43,-1.1,-0.25
0.42,-1.1,-0.23
0.42,-1.1,-0.22
0.42,-1.09,-0.21
0.42,-1.08,-0.21
0.43,-1.07,-0.21
0.45,-1.07,-0.22
0.45,-1.07,-0.23
0.44,-1.07,-0.23
0.42,-1.07,-0.22
0.39,-1.08,-0.2
0.37,-1.09,-0.2
0.32,-1.13,-0.21
0.3,-1.13,-0.21
0.3,-1.13,-0.23
0.31,-1.12,-0.22
0.28,-1.13,-0.15
0.26,-1.11,-0.1
0.25,-1.08,-0.11
0.24,-1.08,-0.09
0.22,-1.06,-0.05
0.17,-1.04,-0.01
0.12,-1.03,0
0.08,-1.07,-0.07
0.05,-1.15,-0.17
0,-1.19,-0.19
-0.08,-1.18,-0.11
-0.19,-1.14,-0.01
-0.28,-1.03,0.08
-0.29,-0.92,0.09
-0.22,-0.86,0.02
-0.16,-0.78,-0.04
-0.19,-0.74,-0.08
-0.29,-0.76,-0.08
-0.4,-0.78,-0.07
-0.47,-0.79,-0.05
-0.51,-0.81,-0.03
-0.55,-0.86,-0.02
-0.38,-0.82,-0.08
-0.29,-0.82,-0.07
-0.34,-0.86,-0.04
-0.37,-0.89,-0.07
-0.42,-0.9,-0.08
-0.47,-0.93,-0.05
-0.39,-0.93,-0.29
-0.46,-0.84,-0.34
-0.43,-0.82,-0.05
-0.31,-0.84,0.08
-0.4,-0.82,0.16
-0.36,-0.85,0.2
-0.36,-0.85,0.18
-0.4,-0.84,0.13
-0.39,-0.87,0.11
-0.35,-0.89,0.1
-0.34,-0.9,0.03
-0.34,-0.93,0.01
-0.51,-0.89,-0.55
-0.62,-1.12,-1.02
-0.56,-1.36,-0.55
-0.56,-1.21,0.03
-0.56,-1.09,0.32
-0.43,-1.15,0.29
0.02,-1.38,0
0.42,-1.59,-0.17
0.42,-1.7,-0.19
0.24,-1.58,-0.17
-0.01,-1.29,-0.2
0.02,-0.98,-0.28
0.31,-0.88,-0.33
0.51,-0.89,-0.3
0.6,-0.98,-0.23
0.42,-1.07,-0.21
0.16,-1.09,-0.22
0.15,-1.18,-0.21
0.18,-1.27,-0.21
0.19,-1.21,-0.22
0.19,-1.09,-0.24
0.07,-0.93,-0.27
0.1,-0.86,-0.26
0.28,-0.96,-0.18
0.27,-1.02,-0.12
0.2,-0.96,-0.09
0.21,-0.95,-0.06
0.28,-1.04,-0.01
0.33,-1.09,0.02
0.31,-1.05,0
0.27,-1,-0.06
0.26,-1.01,-0.11
0.25,-0.99,-0.16
0.25,-0.98,-0.16
0.35,-1.06,-0.09
0.35,-1.05,-0.05
0.32,-1.04,-0.07
0.3,-1.04,-0.12
0.28,-1.03,-0.15
0.26,-1.01,-0.16
0.24,-0.98,-0.16
0.23,-0.96,-0.15
0.22,-0.94,-0.15
0.19,-0.94,-0.15
0.15,-0.95,-0.13
0.1,-0.95,-0.12
0.06,-0.94,-0.12
0.03,-0.92,-0.12
0.04,-0.9,-0.12
0.08,-0.92,-0.11
0.1,-0.93,-0.11
0.11,-0.95,-0.11
0.15,-0.99,-0.11
0.16,-1.03,-0.1
