Acc_x,Acc_y,Acc_z
0.93,-0.15,0.37
0.94,-0.15,0.37
0.94,-0.15,0.38
0.94,-0.15,0.38
0.94,-0.15,0.38
0.94,-0.15,0.38
0.94,-0.15,0.38
0.94,-0.15,0.38
0.94,-0.15,0.38
0.94,-0.16,0.39
0.94,-0.16,0.39
0.94,-0.16,0.39
0.93,-0.16,0.39
0.93,-0.16,0.38
0.93,-0.16,0.38
0.93,-0.16,0.38
0.94,-0.16,0.38
0.94,-0.16,0.38
0.93,-0.16,0.38
0.93,-0.16,0.38
0.93,-0.17,0.38
0.93,-0.16,0.38
0.93,-0.16,0.38
0.93,-0.16,0.38
0.93,-0.16,0.38
0.94,-0.16,0.38
0.94,-0.16,0.38
0.94,-0.16,0.38
0.94,-0.16,0.39
0.95,-0.16,0.39
0.95,-0.15,0.39
0.94,-0.15,0.39
0.94,-0.15,0.39
0.93,-0.15,0.39
0.93,-0.15,0.39
0.93,-0.15,0.39
0.93,-0.15,0.39
0.93,-0.15,0.39
0.93,-0.15,0.39
0.93,-0.15,0.38
0.94,-0.15,0.38
0.94,-0.15,0.38
0.93,-0.15,0.38
0.93,-0.15,0.38
0.93,-0.15,0.38
0.93,-0.15,0.38
0.93,-0.15,0.38
0.93,-0.15,0.38
0.93,-0.15,0.38
0.93,-0.15,0.38
0.93,-0.15,0.38
0.93,-0.15,0.38
0.93,-0.15,0.38
0.94,-0.15,0.38
0.94,-0.15,0.39
0.95,-0.15,0.39
0.95,-0.15,0.4
0.93,-0.15,0.39
0.93,-0.15,0.39
0.93,-0.15,0.39
0.94,-0.15,0.39
0.94,-0.16,0.39
0.94,-0.16,0.39
0.94,-0.15,0.39
0.93,-0.15,0.38
0.93,-0.15,0.37
0.93,-0.15,0.37
0.93,-0.15,0.37
0.93,-0.15,0.37
0.94,-0.15,0.38
0.94,-0.15,0.38
0.94,-0.15,0.38
0.93,-0.14,0.38
0.93,-0.14,0.38
0.94,-0.15,0.38
0.93,-0.15,0.38
0.93,-0.15,0.38
0.93,-0.14,0.38
0.93,-0.15,0.38
0.94,-0.15,0.39
0.94,-0.15,0.39
0.94,-0.15,0.38
0.93,-0.15,0.38
0.94,-0.15,0.39
0.94,-0.15,0.38
0.94,-0.15,0.38
0.94,-0.15,0.38
0.94,-0.15,0.38
0.94,-0.15,0.38
0.94,-0.15,0.38
0.93,-0.15,0.38
0.93,-0.15,0.38
0.93,-0.15,0.38
0.94,-0.15,0.38
0.94,-0.15,0.38
0.94,-0.15,0.39
0.94,-0.15,0.38
0.94,-0.15,0.38
0.93,-0.15,0.38
0.93,-0.15,0.38
0.93,-0.15,0.38
0.93,-0.15,0.38
0.93,-0.15,0.38
0.93,-0.15,0.38
0.94,-0.15,0.39
0.94,-0.15,0.38
0.93,-0.15,0.38
0.93,-0.15,0.38
0.93,-0.15,0.38
0.94,-0.15,0.38
0.94,-0.15,0.38
0.94,-0.15,0.38
0.94,-0.15,0.38
0.94,-0.15,0.38
0.93,-0.15,0.38
0.94,-0.15,0.38
0.94,-0.15,0.38
0.94,-0.15,0.38
0.94,-0.15,0.38
0.94,-0.15,0.38
0.94,-0.15,0.38
0.94,-0.15,0.38
0.94,-0.15,0.38
0.94,-0.15,0.38
0.94,-0.15,0.38
0.93,-0.15,0.38
0.93,-0.15,0.38
0.93,-0.15,0.38
0.94,-0.14,0.38
0.94,-0.15,0.38
0.94,-0.15,0.38
0.94,-0.15,0.38
0.94,-0.15,0.38
0.94,-0.15,0.38
0.94,-0.15,0.38
0.94,-0.15,0.38
0.94,-0.16,0.38
0.94,-0.15,0.38
0.94,-0.15,0.38
0.93,-0.16,0.37
0.94,-0.15,0.37
0.94,-0.15,0.37
0.94,-0.15,0.38
0.94,-0.15,0.38
0.94,-0.15,0.38
0.94,-0.15,0.38
0.94,-0.15,0.38
0.94,-0.15,0.38
0.94,-0.15,0.38
0.94,-0.14,0.38
0.94,-0.1,0.38
0.94,-0.13,0.39
0.94,-0.17,0.39
0.94,-0.14,0.38
0.94,-0.12,0.38
0.93,-0.12,0.39
0.94,-0.13,0.39
0.94,-0.14,0.39
0.94,-0.13,0.39
0.95,-0.14,0.39
0.96,-0.14,0.39
0.94,-0.14,0.39
0.94,-0.14,0.39
0.94,-0.14,0.39
0.94,-0.14,0.39
0.94,-0.13,0.39
0.94,-0.14,0.4
0.93,-0.14,0.4
0.94,-0.14,0.4
0.94,-0.14,0.4
0.94,-0.13,0.4
0.94,-0.14,0.41
0.94,-0.14,0.41
0.94,-0.14,0.41
0.94,-0.14,0.41
0.94,-0.13,0.4
0.94,-0.13,0.4
0.93,-0.14,0.41
0.94,-0.14,0.41
0.94,-0.14,0.42
0.94,-0.14,0.42
0.94,-0.14,0.42
0.94,-0.14,0.43
0.94,-0.14,0.42
0.94,-0.14,0.43
0.94,-0.15,0.43
0.94,-0.14,0.43
0.94,-0.14,0.43
0.95,-0.14,0.43
0.96,-0.14,0.43
0.97,-0.13,0.44
0.97,-0.14,0.44
0.98,-0.14,0.44
0.98,-0.14,0.44
0.97,-0.14,0.44
0.97,-0.13,0.45
0.97,-0.13,0.45
0.98,-0.13,0.46
0.99,-0.12,0.47
1,-0.12,0.47
1.01,-0.12,0.47
1.01,-0.11,0.47
1,-0.1,0.47
1,-0.09,0.48
1.01,-0.09,0.48
1,-0.08,0.49
1,-0.07,0.5
0.99,-0.07,0.49
1,-0.06,0.46
1.01,-0.05,0.43
1.02,-0.02,0.43
1.01,0,0.45
0.99,0,0.45
0.99,0.02,0.41
0.99,0.03,0.38
0.98,0.05,0.34
0.97,0.06,0.31
0.98,0.08,0.29
0.99,0.09,0.28
0.99,0.11,0.27
0.96,0.13,0.26
0.99,0.15,0.24
1.02,0.16,0.23
1.02,0.18,0.23
1.01,0.2,0.22
1,0.22,0.21
0.98,0.23,0.22
1,0.24,0.21
1.03,0.25,0.2
1.02,0.26,0.19
0.97,0.27,0.18
0.92,0.29,0.18
0.9,0.3,0.15
0.89,0.31,0.11
0.9,0.33,0.09
0.93,0.35,0.08
0.95,0.36,0.07
0.95,0.36,0.07
0.93,0.37,0.07
0.91,0.39,0.08
0.88,0.43,0.09
0.86,0.43,0.08
0.85,0.43,0.06
0.84,0.44,0.04
0.83,0.45,-0.01
0.82,0.47,-0.05
0.84,0.49,-0.07
0.87,0.51,-0.08
0.87,0.51,-0.09
0.87,0.53,-0.08
0.88,0.54,-0.07
0.88,0.54,-0.05
0.88,0.54,-0.06
0.87,0.54,-0.08
0.87,0.54,-0.09
0.87,0.54,-0.09
0.86,0.54,-0.09
0.87,0.54,-0.1
0.86,0.54,-0.1
0.85,0.54,-0.11
0.84,0.54,-0.12
0.81,0.55,-0.12
0.79,0.55,-0.12
0.79,0.56,-0.11
0.78,0.56,-0.1
0.76,0.57,-0.1
0.75,0.58,-0.1
0.74,0.59,-0.11
0.71,0.59,-0.11
0.69,0.6,-0.12
0.69,0.62,-0.13
0.68,0.64,-0.13
0.67,0.64,-0.14
0.65,0.64,-0.14
0.64,0.66,-0.14
0.64,0.66,-0.15
0.65,0.65,-0.17
0.64,0.64,-0.18
0.63,0.63,-0.19
0.64,0.62,-0.19
0.63,0.61,-0.16
0.62,0.61,-0.15
0.62,0.6,-0.16
0.66,0.56,-0.1
1.09,0.02,1.79
1.18,-0.24,3.38
0.66,0,1.52
0.33,0.63,-0.37
0.39,1.16,-0.58
0.75,0.99,-0.39
0.9,0.89,-0.13
0.84,0.83,0.11
0.77,0.84,0.15
0.67,0.87,0.21
0.53,0.86,0.27
0.45,0.87,0.25
0.49,0.89,0.17
0.49,0.87,0.13
0.5,0.84,0.12
0.59,0.81,0.13
0.65,0.79,0.15
0.65,0.78,0.16
0.65,0.78,0.15
0.65,0.78,0.13
0.64,0.77,0.11
0.63,0.76,0.1
0.62,0.75,0.09
0.6,0.75,0.09
0.58,0.74,0.09
0.58,0.74,0.1
0.58,0.74,0.1
0.58,0.73,0.11
0.58,0.73,0.11
0.58,0.72,0.12
0.58,0.72,0.12
0.58,0.73,0.12
0.58,0.73,0.11
0.58,0.74,0.09
0.59,0.75,0.08
0.59,0.76,0.08
0.6,0.76,0.08
0.61,0.76,0.08
0.61,0.77,0.08
0.61,0.77,0.07
0.61,0.78,0.06
0.62,0.78,0.06
0.63,0.79,0.05
0.63,0.79,0.05
0.63,0.8,0.04
0.63,0.8,0.03
0.63,0.8,0.02
0.63,0.8,0.02
0.63,0.8,0.02
0.63,0.79,0.02
0.63,0.79,0.01
0.62,0.79,0.01
0.61,0.79,0.01
0.6,0.79,0.01
0.61,0.79,0.01
0.61,0.79,0.02
0.6,0.79,0.03
0.59,0.79,0.03
0.6,0.8,0.04
0.6,0.8,0.03
0.61,0.8,0.03
0.61,0.8,0.03
0.62,0.79,0.02
0.63,0.78,0
0.63,0.78,0
0.64,0.78,-0.01
0.64,0.78,0
0.65,0.78,0
0.66,0.78,-0.01
0.66,0.78,-0.01
0.67,0.78,-0.02
0.66,0.78,-0.02
0.65,0.78,-0.02
0.65,0.78,-0.02
0.64,0.78,-0.01
0.64,0.77,-0.01
0.64,0.78,0
0.64,0.78,0
0.64,0.78,0
0.64,0.78,0.01
0.65,0.78,0.01
0.63,0.78,0.01
0.63,0.78,0.01
0.63,0.79,0.01
0.62,0.79,0.01
0.62,0.79,0.01
0.62,0.79,0
0.65,0.79,0.01
0.66,0.78,0.01
0.66,0.78,0.01
0.66,0.78,0
0.65,0.78,0
0.63,0.78,-0.01
0.62,0.78,-0.01
0.61,0.78,-0.01
0.62,0.78,-0.01
0.63,0.78,-0.01
0.63,0.78,-0.01
0.62,0.78,0
0.62,0.77,0
0.61,0.77,0.01
0.61,0.77,0.02
0.6,0.76,0.02
0.6,0.76,0.03
0.59,0.76,0.03
0.6,0.77,0.03
0.61,0.77,0.04
0.61,0.77,0.04
0.62,0.77,0.04
0.62,0.76,0.04
0.63,0.76,0.05
0.64,0.76,0.06
0.64,0.75,0.08
0.65,0.75,0.08
0.64,0.75,0.06
0.63,0.76,0.05
0.63,0.77,0.03
0.63,0.77,0.02
0.63,0.78,0.02
0.64,0.78,0.03
0.65,0.78,0.05
0.66,0.78,0.05
0.67,0.78,0.06
0.67,0.78,0.06
0.67,0.79,0.05
0.68,0.78,0.04
0.7,0.77,0.07
0.69,0.76,0.09
0.7,0.76,0.09
0.7,0.75,0.1
0.7,0.75,0.11
0.71,0.74,0.11
0.71,0.74,0.1
0.7,0.75,0.09
0.69,0.75,0.09
0.67,0.75,0.09
0.64,0.76,0.1
0.63,0.75,0.1
0.62,0.76,0.08
0.61,0.76,0.05
0.61,0.76,0.01
0.6,0.77,-0.01
0.59,0.78,-0.03
0.59,0.78,-0.05
0.59,0.78,-0.06
0.58,0.79,-0.06
0.58,0.79,-0.07
0.57,0.8,-0.08
0.56,0.81,-0.1
0.56,0.81,-0.12
0.55,0.81,-0.14
0.55,0.81,-0.15
0.56,0.8,-0.15
0.56,0.8,-0.15
0.56,0.79,-0.15
0.54,0.8,-0.16
0.54,0.81,-0.17
0.53,0.82,-0.18
0.52,0.83,-0.19
0.52,0.84,-0.19
0.52,0.84,-0.2
0.51,0.84,-0.21
0.51,0.84,-0.21
0.5,0.84,-0.22
0.49,0.83,-0.22
0.48,0.82,-0.23
0.47,0.83,-0.24
0.46,0.83,-0.24
0.46,0.84,-0.25
0.45,0.84,-0.26
0.45,0.84,-0.27
0.46,0.84,-0.27
0.46,0.84,-0.27
0.46,0.85,-0.26
0.46,0.85,-0.25
0.47,0.86,-0.23
0.48,0.87,-0.22
0.48,0.88,-0.2
0.48,0.89,-0.19
0.49,0.89,-0.19
0.48,0.89,-0.19
0.48,0.88,-0.2
0.48,0.87,-0.21
0.49,0.86,-0.23
0.49,0.85,-0.24
0.48,0.84,-0.25
0.47,0.83,-0.25
0.47,0.82,-0.26
0.47,0.81,-0.27
0.47,0.8,-0.27
0.46,0.8,-0.28
0.48,0.8,-0.28
0.49,0.8,-0.29
0.5,0.8,-0.31
0.53,0.8,-0.32
0.56,0.8,-0.3
0.58,0.79,-0.27
0.61,0.78,-0.23
0.64,0.76,-0.18
1.3,0.35,1.13
1.3,0.15,3.19
0.85,0.07,1.79
0.53,0.74,-0.38
0.32,1.49,-0.47
0.74,1.11,-0.45
0.88,0.9,-0.28
0.79,0.83,-0.19
0.65,0.77,0.04
0.63,0.8,0.26
0.69,0.85,0.2
0.65,0.85,0.06
0.49,0.84,-0.02
0.41,0.82,-0.05
0.46,0.8,-0.05
0.54,0.79,-0.03
0.6,0.79,0.01
0.64,0.78,0.08
0.66,0.77,0.09
0.65,0.78,0.09
0.62,0.78,0.09
0.6,0.79,0.09
0.58,0.79,0.08
0.58,0.79,0.07
0.57,0.79,0.06
0.58,0.79,0.05
0.58,0.79,0.04
0.57,0.79,0.02
0.57,0.79,0.01
0.57,0.78,0.01
0.58,0.78,0
0.59,0.79,0.01
0.6,0.8,0.02
0.62,0.8,0.03
0.64,0.8,0.03
0.64,0.8,0.03
0.63,0.79,0.02
0.62,0.79,0.03
0.62,0.8,0.03
0.61,0.8,0.03
0.61,0.81,0.05
0.61,0.81,0.06
0.61,0.8,0.05
0.6,0.78,0.02
0.58,0.76,0.01
0.57,0.75,0
0.57,0.75,0
0.57,0.74,-0.01
0.57,0.74,-0.01
0.58,0.75,-0.01
0.58,0.77,-0.01
0.58,0.79,-0.01
0.59,0.8,0.01
0.61,0.81,0.02
0.62,0.81,0.04
0.62,0.82,0.05
0.62,0.83,0.05
0.61,0.83,0.05
0.6,0.82,0.06
0.6,0.82,0.06
0.6,0.83,0.05
0.6,0.82,0.04
0.6,0.81,0.03
0.61,0.8,0.03
0.61,0.78,0.03
0.61,0.77,0.03
0.61,0.76,0.03
0.61,0.76,0.02
0.62,0.75,0.02
0.62,0.75,0.01
0.61,0.75,0
0.6,0.75,-0.01
0.6,0.75,-0.01
0.6,0.75,0
0.6,0.76,0
0.6,0.77,0
0.61,0.78,0
0.61,0.79,0.01
0.6,0.79,0.02
0.59,0.8,0.03
0.59,0.81,0.04
0.6,0.81,0.04
0.6,0.82,0.05
0.6,0.82,0.07
0.61,0.83,0.07
0.62,0.83,0.08
0.62,0.83,0.08
0.62,0.83,0.07
0.61,0.83,0.07
0.61,0.82,0.06
0.6,0.81,0.06
0.6,0.8,0.06
0.59,0.79,0.05
0.59,0.79,0.05
0.59,0.77,0.05
0.59,0.77,0.05
0.59,0.77,0.04
0.6,0.77,0.03
0.62,0.78,0.02
0.62,0.78,0.02
0.62,0.78,0.01
0.62,0.78,0.01
0.62,0.78,0.01
0.61,0.78,0
0.61,0.78,0
0.62,0.79,0
0.63,0.78,0.01
0.63,0.78,0.01
0.64,0.78,0.02
0.63,0.79,0.03
0.63,0.79,0.03
0.62,0.79,0.03
0.61,0.8,0.03
0.61,0.8,0.04
0.62,0.81,0.04
0.62,0.81,0.03
0.63,0.81,0.04
0.62,0.81,0.04
0.62,0.81,0.04
0.62,0.81,0.04
0.61,0.81,0.03
0.61,0.81,0.03
0.61,0.81,0.04
0.61,0.81,0.04
0.62,0.8,0.03
0.62,0.8,0.03
0.63,0.8,0.03
0.62,0.79,0.04
0.61,0.77,0.04
0.59,0.77,0.05
0.58,0.76,0.05
0.57,0.76,0.05
0.56,0.76,0.05
0.55,0.77,0.06
0.55,0.78,0.06
0.56,0.78,0.06
0.56,0.79,0.07
0.56,0.79,0.08
0.57,0.79,0.08
0.58,0.79,0.08
0.58,0.79,0.08
0.59,0.79,0.08
0.59,0.8,0.07
0.58,0.8,0.06
0.58,0.8,0.06
0.58,0.81,0.05
0.59,0.81,0.04
0.6,0.81,0.04
0.61,0.81,0.03
0.63,0.81,0.03
0.63,0.81,0.03
0.63,0.8,0.02
0.63,0.79,0.02
0.63,0.79,0.03
0.62,0.79,0.02
0.62,0.79,0.02
0.61,0.79,0.02
0.6,0.79,0.03
0.59,0.79,0.03
0.59,0.8,0.02
0.59,0.8,0.02
0.59,0.81,0.03
0.59,0.81,0.04
0.6,0.81,0.05
0.6,0.81,0.06
0.59,0.81,0.06
0.59,0.8,0.06
0.59,0.8,0.06
0.59,0.8,0.06
0.59,0.8,0.06
0.58,0.81,0.06
0.58,0.8,0.05
0.58,0.8,0.05
0.59,0.8,0.05
0.58,0.79,0.06
0.57,0.78,0.06
0.57,0.79,0.06
0.56,0.79,0.06
0.56,0.79,0.06
0.56,0.79,0.06
0.57,0.79,0.06
0.57,0.79,0.06
0.58,0.78,0.07
0.58,0.78,0.08
0.58,0.78,0.08
0.57,0.78,0.08
0.57,0.79,0.08
0.58,0.79,0.08
0.58,0.8,0.07
0.58,0.81,0.07
0.58,0.81,0.06
0.59,0.81,0.05
0.6,0.81,0.04
0.6,0.82,0.05
0.61,0.83,0.06
0.61,0.82,0.06
0.61,0.81,0.06
0.61,0.8,0.05
0.61,0.8,0.04
0.61,0.81,0.03
0.6,0.82,0.04
0.61,0.81,0.05
0.63,0.79,0.07
0.64,0.78,0.09
0.64,0.76,0.1
0.65,0.74,0.09
0.63,0.74,0.07
0.62,0.73,0.05
0.59,0.73,0.04
0.57,0.73,0.04
0.56,0.74,0.03
0.57,0.74,0.04
0.59,0.75,0.05
0.6,0.75,0.07
0.61,0.75,0.09
0.63,0.75,0.11
0.65,0.76,0.13
0.67,0.78,0.14
0.68,0.79,0.13
0.68,0.79,0.12
0.71,0.79,0.11
0.78,0.78,0.13
0.82,0.78,0.17
0.8,0.78,0.18
0.75,0.77,0.2
0.72,0.77,0.21
0.71,0.77,0.22
0.67,0.77,0.21
0.65,0.76,0.19
0.62,0.76,0.17
0.61,0.76,0.15
0.6,0.76,0.12
0.6,0.76,0.1
0.61,0.76,0.09
0.6,0.78,0.07
0.6,0.79,0.03
0.59,0.8,-0.01
0.58,0.81,-0.05
0.57,0.83,-0.09
0.56,0.84,-0.12
0.54,0.84,-0.13
0.53,0.85,-0.15
0.52,0.87,-0.18
0.5,0.87,-0.22
0.5,0.88,-0.25
0.49,0.87,-0.26
0.47,0.87,-0.27
0.45,0.88,-0.27
0.44,0.88,-0.28
0.42,0.88,-0.28
0.41,0.89,-0.29
0.39,0.9,-0.3
0.38,0.9,-0.31
0.35,0.88,-0.32
0.34,0.87,-0.31
0.34,0.87,-0.3
0.34,0.86,-0.29
0.34,0.86,-0.29
0.33,0.86,-0.28
0.33,0.86,-0.27
0.33,0.86,-0.26
0.33,0.86,-0.26
0.33,0.86,-0.26
0.34,0.85,-0.25
0.36,0.85,-0.24
0.38,0.84,-0.23
0.4,0.82,-0.23
0.42,0.82,-0.22
0.44,0.81,-0.22
0.45,0.81,-0.22
0.47,0.81,-0.22
0.47,0.81,-0.2
0.48,0.8,-0.18
0.5,0.8,-0.15
0.52,0.79,-0.12
0.54,0.78,-0.09
0.67,0.74,-0.12
0.88,0.47,0.08
1.84,0.18,2.15
1.66,0.69,0.22
0.25,1.3,-0.05
0.3,1.11,-0.03
0.49,0.89,0.05
0.67,0.81,0.06
0.69,0.78,0.01
0.67,0.83,0.03
0.66,0.83,0.11
0.61,0.8,0.18
0.56,0.82,0.15
0.54,0.83,0.09
0.53,0.81,0.04
0.56,0.79,0.04
0.62,0.79,0.07
0.63,0.78,0.12
0.61,0.77,0.15
0.59,0.77,0.17
0.6,0.77,0.17
0.58,0.77,0.15
0.56,0.78,0.14
0.55,0.79,0.13
0.54,0.79,0.13
0.55,0.79,0.13
0.56,0.8,0.13
0.57,0.81,0.13
0.57,0.82,0.14
0.57,0.81,0.15
0.58,0.81,0.14
0.59,0.82,0.13
0.59,0.82,0.12
0.58,0.81,0.12
0.59,0.81,0.11
0.59,0.81,0.11
0.59,0.8,0.12
0.59,0.8,0.13
0.59,0.79,0.14
0.59,0.79,0.14
0.59,0.8,0.15
0.59,0.8,0.14
0.59,0.79,0.14
0.58,0.79,0.13
0.58,0.79,0.13
0.58,0.79,0.13
0.57,0.79,0.14
0.57,0.79,0.14
0.57,0.79,0.15
0.56,0.79,0.15
0.56,0.79,0.15
0.56,0.79,0.15
0.56,0.79,0.15
0.55,0.79,0.15
0.55,0.79,0.15
0.56,0.79,0.15
0.57,0.8,0.14
0.57,0.8,0.13
0.57,0.8,0.14
0.57,0.8,0.15
0.58,0.8,0.15
0.58,0.8,0.15
0.58,0.8,0.15
0.58,0.79,0.14
0.57,0.8,0.14
0.57,0.8,0.13
0.58,0.8,0.13
0.58,0.8,0.12
0.57,0.8,0.13
0.57,0.8,0.13
0.57,0.8,0.13
0.57,0.8,0.13
0.56,0.8,0.14
0.56,0.8,0.14
0.56,0.81,0.14
0.57,0.82,0.13
0.57,0.82,0.13
0.57,0.82,0.12
0.57,0.82,0.12
0.57,0.82,0.13
0.57,0.82,0.13
0.57,0.82,0.12
0.57,0.81,0.12
0.57,0.81,0.11
0.58,0.81,0.11
0.58,0.82,0.1
0.59,0.82,0.1
0.58,0.82,0.09
0.58,0.81,0.09
0.57,0.81,0.1
0.57,0.8,0.1
0.57,0.8,0.11
0.57,0.8,0.12
0.58,0.8,0.12
0.58,0.8,0.12
0.58,0.8,0.13
0.58,0.79,0.13
0.57,0.79,0.13
0.57,0.79,0.14
0.57,0.79,0.14
0.57,0.79,0.15
0.57,0.79,0.15
0.58,0.79,0.15
0.58,0.79,0.15
0.58,0.79,0.15
0.57,0.79,0.16
0.57,0.79,0.16
0.57,0.79,0.17
0.57,0.78,0.17
0.57,0.78,0.18
0.57,0.78,0.18
0.58,0.78,0.18
0.59,0.79,0.17
0.59,0.79,0.17
0.6,0.79,0.16
0.6,0.79,0.16
0.59,0.79,0.15
0.59,0.79,0.14
0.59,0.78,0.14
0.58,0.79,0.13
0.58,0.79,0.13
0.59,0.79,0.14
0.59,0.79,0.14
0.59,0.79,0.13
0.59,0.79,0.13
0.58,0.79,0.13
0.57,0.79,0.13
0.57,0.79,0.13
0.57,0.79,0.13
0.57,0.79,0.13
0.57,0.79,0.13
0.57,0.79,0.13
0.57,0.79,0.14
0.57,0.79,0.14
0.57,0.8,0.14
0.58,0.8,0.14
0.58,0.8,0.13
0.58,0.8,0.13
0.59,0.8,0.13
0.59,0.8,0.13
0.59,0.79,0.13
0.59,0.79,0.13
0.6,0.79,0.14
0.61,0.79,0.14
0.61,0.79,0.14
0.6,0.79,0.14
0.6,0.79,0.15
0.6,0.78,0.15
0.6,0.78,0.15
0.6,0.78,0.16
0.6,0.78,0.16
0.61,0.78,0.16
0.61,0.78,0.16
0.62,0.78,0.17
0.62,0.78,0.17
0.63,0.78,0.19
0.63,0.78,0.2
0.62,0.77,0.21
0.62,0.77,0.21
0.63,0.77,0.19
0.63,0.77,0.18
0.62,0.76,0.18
0.61,0.76,0.19
0.62,0.76,0.19
0.65,0.76,0.2
0.66,0.76,0.23
0.65,0.76,0.24
0.66,0.76,0.23
0.65,0.77,0.23
0.63,0.78,0.22
0.62,0.79,0.21
0.6,0.8,0.2
0.61,0.8,0.2
0.61,0.79,0.2
0.61,0.79,0.19
0.6,0.79,0.17
0.6,0.79,0.14
0.59,0.79,0.11
0.58,0.8,0.08
0.57,0.81,0.05
0.56,0.82,0.03
0.55,0.83,0.01
0.55,0.83,0
0.54,0.83,-0.01
0.54,0.83,-0.01
0.52,0.83,-0.03
0.51,0.85,-0.08
0.48,0.86,-0.1
0.47,0.87,-0.12
0.46,0.88,-0.12
0.46,0.88,-0.13
0.45,0.88,-0.14
0.44,0.88,-0.15
0.43,0.88,-0.16
0.42,0.88,-0.16
0.41,0.87,-0.17
0.41,0.87,-0.17
0.41,0.86,-0.16
0.41,0.86,-0.16
0.42,0.86,-0.16
0.42,0.86,-0.16
0.42,0.86,-0.16
0.41,0.86,-0.17
0.41,0.86,-0.18
0.42,0.85,-0.18
0.44,0.85,-0.18
0.46,0.84,-0.17
0.47,0.83,-0.16
0.49,0.82,-0.16
0.5,0.82,-0.16
0.51,0.82,-0.15
0.51,0.82,-0.14
0.51,0.82,-0.11
0.55,0.81,-0.09
0.56,0.81,-0.05
0.57,0.8,-0.01
0.59,0.79,0.03
0.89,0.55,0.08
2.07,0,2.04
1.68,-0.19,2.21
0.32,0.57,0.21
0.19,1.29,0.06
0.22,1.09,0.1
0.52,0.81,0.01
0.74,0.81,-0.09
0.71,0.83,-0.12
0.71,0.82,-0.02
0.7,0.8,0.16
0.61,0.8,0.26
0.56,0.81,0.2
0.55,0.82,0.11
0.54,0.8,0.07
0.56,0.78,0.09
0.6,0.78,0.12
0.62,0.77,0.16
0.61,0.77,0.19
0.61,0.78,0.2
0.6,0.77,0.2
0.58,0.77,0.16
0.55,0.78,0.15
0.55,0.78,0.14
0.56,0.78,0.14
0.58,0.79,0.14
0.58,0.79,0.15
0.58,0.79,0.16
0.58,0.79,0.17
0.58,0.79,0.17
0.59,0.78,0.17
0.6,0.79,0.16
0.6,0.79,0.16
0.59,0.79,0.15
0.59,0.79,0.14
0.6,0.79,0.14
0.59,0.79,0.15
0.59,0.79,0.15
0.59,0.8,0.15
0.59,0.8,0.16
0.59,0.79,0.15
0.59,0.79,0.15
0.59,0.79,0.15
0.58,0.79,0.15
0.58,0.79,0.14
0.59,0.78,0.14
0.59,0.78,0.14
0.58,0.78,0.14
0.58,0.79,0.14
0.59,0.79,0.15
0.59,0.79,0.15
0.58,0.79,0.15
0.58,0.8,0.14
0.58,0.8,0.14
0.58,0.8,0.14
0.57,0.81,0.13
0.57,0.81,0.13
0.58,0.81,0.13
0.58,0.81,0.13
0.59,0.8,0.13
0.58,0.8,0.13
0.57,0.8,0.13
0.57,0.8,0.14
0.57,0.8,0.13
0.57,0.8,0.14
0.58,0.8,0.14
0.58,0.8,0.14
0.59,0.8,0.14
0.59,0.8,0.14
0.58,0.8,0.14
0.58,0.8,0.14
0.58,0.79,0.14
0.58,0.79,0.15
0.58,0.79,0.15
0.58,0.79,0.15
0.58,0.79,0.15
0.58,0.79,0.16
0.58,0.79,0.15
0.58,0.79,0.15
0.57,0.79,0.15
0.57,0.79,0.16
0.57,0.79,0.16
0.57,0.79,0.15
0.57,0.79,0.15
0.57,0.79,0.15
0.58,0.78,0.15
0.58,0.79,0.15
0.58,0.79,0.14
0.58,0.79,0.14
0.59,0.79,0.14
0.59,0.79,0.14
0.59,0.79,0.14
0.59,0.79,0.15
0.6,0.79,0.15
0.6,0.8,0.15
0.6,0.8,0.14
0.61,0.79,0.13
0.6,0.79,0.13
0.6,0.8,0.13
0.6,0.8,0.14
0.59,0.8,0.14
0.59,0.8,0.14
0.59,0.79,0.14
0.59,0.79,0.14
0.58,0.79,0.14
0.58,0.79,0.14
0.58,0.8,0.15
0.58,0.79,0.15
0.58,0.79,0.14
0.58,0.79,0.14
0.58,0.79,0.15
0.58,0.79,0.15
0.59,0.79,0.15
0.58,0.79,0.15
0.58,0.79,0.15
0.57,0.79,0.14
0.57,0.79,0.14
0.57,0.79,0.14
0.58,0.79,0.14
0.58,0.79,0.14
0.59,0.8,0.14
0.59,0.8,0.15
0.59,0.79,0.15
0.6,0.79,0.14
0.59,0.79,0.15
0.59,0.79,0.14
0.59,0.79,0.14
0.59,0.79,0.14
0.58,0.79,0.14
0.58,0.79,0.14
0.58,0.79,0.14
0.59,0.79,0.14
0.59,0.79,0.14
0.59,0.79,0.14
0.59,0.79,0.14
0.59,0.79,0.14
0.58,0.79,0.14
0.58,0.79,0.14
0.58,0.79,0.14
0.58,0.79,0.14
0.58,0.79,0.14
0.58,0.79,0.14
0.58,0.79,0.14
0.58,0.79,0.14
0.59,0.79,0.13
0.59,0.79,0.14
0.59,0.79,0.14
0.59,0.79,0.15
0.59,0.79,0.15
0.58,0.79,0.14
0.58,0.79,0.14
0.58,0.79,0.13
0.58,0.79,0.14
0.58,0.79,0.14
0.59,0.79,0.14
0.59,0.79,0.14
0.59,0.79,0.16
0.59,0.79,0.18
0.6,0.79,0.2
0.6,0.79,0.2
0.6,0.79,0.21
0.6,0.79,0.23
0.61,0.79,0.24
0.62,0.77,0.25
0.6,0.76,0.25
0.6,0.76,0.23
0.64,0.75,0.2
0.65,0.73,0.21
0.65,0.73,0.21
0.66,0.74,0.22
0.66,0.75,0.24
0.64,0.77,0.28
0.63,0.77,0.29
0.61,0.77,0.29
0.59,0.78,0.26
0.58,0.78,0.23
0.56,0.8,0.19
0.56,0.8,0.17
0.56,0.82,0.13
0.55,0.82,0.12
0.54,0.83,0.11
0.53,0.83,0.08
0.52,0.83,0.04
0.52,0.85,0.01
0.51,0.86,-0.02
0.5,0.86,-0.03
0.5,0.86,-0.05
0.49,0.87,-0.06
0.48,0.87,-0.07
0.48,0.87,-0.09
0.47,0.87,-0.1
0.47,0.88,-0.11
0.46,0.88,-0.11
0.46,0.88,-0.11
0.45,0.89,-0.12
0.46,0.88,-0.12
0.46,0.88,-0.12
0.46,0.88,-0.13
0.46,0.87,-0.12
0.47,0.86,-0.12
0.47,0.85,-0.12
0.48,0.85,-0.12
0.49,0.84,-0.11
0.51,0.83,-0.1
0.51,0.82,-0.1
0.54,0.81,-0.1
0.54,0.8,-0.1
0.55,0.8,-0.1
0.56,0.79,-0.11
0.57,0.79,-0.1
0.58,0.78,-0.08
0.58,0.78,-0.05
0.59,0.78,-0.03
0.65,0.77,-0.05
1.15,0.5,0.51
1.4,0.11,2.46
0.68,0.18,2.14
0.27,0.78,0.24
0.35,1.14,0
0.4,1,-0.03
0.6,0.94,-0.13
0.68,0.89,-0.16
0.65,0.83,-0.02
0.62,0.85,0.17
0.54,0.81,0.32
0.51,0.8,0.34
0.5,0.81,0.26
0.48,0.8,0.17
0.52,0.79,0.12
0.59,0.78,0.1
0.63,0.78,0.14
0.62,0.77,0.18
0.62,0.77,0.2
0.61,0.77,0.2
0.58,0.77,0.18
0.56,0.76,0.17
0.55,0.76,0.16
0.57,0.77,0.15
0.58,0.78,0.16
0.58,0.79,0.18
0.58,0.79,0.19
0.59,0.79,0.19
0.59,0.79,0.2
0.59,0.79,0.19
0.59,0.79,0.19
0.59,0.79,0.18
0.59,0.79,0.16
0.58,0.79,0.16
0.58,0.79,0.15
0.58,0.79,0.15
0.57,0.8,0.15
0.57,0.8,0.16
0.58,0.8,0.16
0.58,0.8,0.16
0.57,0.8,0.16
0.56,0.8,0.16
0.56,0.79,0.16
0.56,0.79,0.16
0.55,0.79,0.15
0.55,0.79,0.15
0.55,0.8,0.15
0.55,0.79,0.14
0.55,0.79,0.14
0.55,0.79,0.14
0.55,0.79,0.14
0.55,0.79,0.15
0.56,0.79,0.15
0.56,0.79,0.16
0.56,0.8,0.16
0.56,0.8,0.16
0.57,0.81,0.15
0.56,0.81,0.15
0.56,0.81,0.15
0.56,0.81,0.15
0.56,0.81,0.15
0.57,0.81,0.15
0.56,0.82,0.15
0.57,0.82,0.15
0.57,0.82,0.15
0.57,0.82,0.15
0.57,0.82,0.15
0.57,0.82,0.15
0.57,0.82,0.14
0.57,0.81,0.14
0.56,0.81,0.14
0.56,0.81,0.14
0.56,0.81,0.14
0.56,0.81,0.14
0.55,0.8,0.14
0.55,0.8,0.15
0.56,0.8,0.14
0.56,0.8,0.14
0.56,0.8,0.15
0.55,0.81,0.15
0.55,0.81,0.15
0.55,0.81,0.15
0.56,0.81,0.15
0.56,0.81,0.14
0.55,0.81,0.15
0.55,0.81,0.15
0.56,0.81,0.15
0.56,0.81,0.15
0.56,0.81,0.15
0.56,0.81,0.15
0.56,0.81,0.14
0.56,0.81,0.14
0.56,0.81,0.14
0.56,0.81,0.15
0.57,0.81,0.15
0.57,0.81,0.15
0.56,0.81,0.15
0.56,0.8,0.15
0.57,0.8,0.15
0.56,0.81,0.14
0.56,0.8,0.13
0.57,0.8,0.14
0.56,0.8,0.14
0.56,0.8,0.15
0.56,0.8,0.15
0.56,0.8,0.15
0.56,0.8,0.15
0.56,0.8,0.14
0.56,0.8,0.14
0.56,0.8,0.14
0.56,0.8,0.14
0.56,0.8,0.14
0.56,0.8,0.14
0.57,0.8,0.14
0.57,0.8,0.15
0.57,0.8,0.15
0.56,0.8,0.15
0.56,0.8,0.15
0.56,0.81,0.15
0.56,0.81,0.15
0.56,0.81,0.15
0.56,0.81,0.15
0.56,0.81,0.14
0.57,0.81,0.14
0.57,0.8,0.14
0.58,0.8,0.14
0.58,0.81,0.15
0.58,0.81,0.15
0.57,0.81,0.14
0.57,0.81,0.15
0.57,0.81,0.14
0.56,0.8,0.15
0.56,0.8,0.15
0.57,0.8,0.15
0.57,0.8,0.15
0.57,0.8,0.15
0.57,0.8,0.15
0.57,0.8,0.14
0.57,0.8,0.14
0.57,0.8,0.14
0.57,0.8,0.14
0.57,0.8,0.14
0.57,0.8,0.15
0.57,0.8,0.15
0.57,0.8,0.15
0.57,0.8,0.15
0.57,0.8,0.15
0.57,0.81,0.15
0.57,0.81,0.15
0.57,0.81,0.15
0.57,0.81,0.15
0.57,0.8,0.16
0.56,0.8,0.17
0.56,0.79,0.17
0.57,0.79,0.15
0.57,0.79,0.15
0.56,0.79,0.16
0.57,0.8,0.16
0.58,0.81,0.19
0.59,0.81,0.21
0.59,0.81,0.22
0.6,0.8,0.23
0.6,0.8,0.23
0.6,0.8,0.23
0.59,0.8,0.23
0.6,0.79,0.22
0.62,0.78,0.21
0.61,0.78,0.22
0.6,0.79,0.23
0.6,0.79,0.24
0.59,0.79,0.26
0.6,0.79,0.27
0.6,0.79,0.26
0.59,0.81,0.24
0.56,0.82,0.22
0.56,0.83,0.19
0.55,0.83,0.17
0.54,0.84,0.14
0.53,0.84,0.13
0.53,0.83,0.12
0.53,0.83,0.11
0.53,0.83,0.09
0.52,0.84,0.06
0.51,0.84,0.05
0.51,0.85,0.02
0.5,0.86,0
0.49,0.86,-0.02
0.48,0.85,-0.03
0.48,0.85,-0.04
0.47,0.85,-0.04
0.47,0.85,-0.04
0.46,0.86,-0.05
0.46,0.86,-0.07
0.45,0.87,-0.08
0.44,0.87,-0.09
0.43,0.87,-0.1
0.42,0.88,-0.1
0.42,0.88,-0.11
0.42,0.87,-0.11
0.43,0.86,-0.12
0.42,0.86,-0.12
0.42,0.86,-0.14
0.42,0.87,-0.15
0.43,0.87,-0.16
0.44,0.87,-0.16
0.45,0.87,-0.17
0.44,0.87,-0.19
0.44,0.87,-0.21
0.44,0.86,-0.22
0.46,0.85,-0.22
0.47,0.84,-0.2
0.48,0.83,-0.17
0.5,0.81,-0.14
0.51,0.8,-0.1
0.93,0.43,0.32
1.22,0.16,2.15
0.93,0.3,1.98
0.37,0.81,0.25
-0.08,1.15,0.12
0.13,0.96,0.09
0.58,0.89,0.07
0.68,0.86,0.05
0.65,0.84,0.05
0.73,0.89,0.09
0.65,0.9,0.16
0.54,0.88,0.15
0.47,0.82,0.11
0.48,0.81,0.09
0.54,0.81,0.1
0.58,0.81,0.12
0.59,0.81,0.14
0.59,0.8,0.15
0.6,0.8,0.16
0.6,0.79,0.17
0.58,0.79,0.17
0.55,0.79,0.16
0.53,0.8,0.16
0.53,0.8,0.15
0.53,0.81,0.15
0.54,0.81,0.16
0.55,0.81,0.17
0.55,0.81,0.17
0.55,0.81,0.18
0.55,0.82,0.18
0.55,0.82,0.17
0.55,0.82,0.16
0.55,0.82,0.15
0.55,0.82,0.14
0.55,0.82,0.14
0.56,0.81,0.14
0.56,0.82,0.14
0.55,0.82,0.15
0.55,0.82,0.15
0.55,0.82,0.15
0.56,0.82,0.15
0.56,0.82,0.15
0.55,0.82,0.15
0.55,0.82,0.15
0.55,0.81,0.15
0.55,0.81,0.15
0.55,0.81,0.15
0.54,0.81,0.16
0.54,0.81,0.16
0.54,0.81,0.16
0.55,0.82,0.16
0.55,0.82,0.16
0.54,0.82,0.15
0.54,0.82,0.15
0.54,0.81,0.15
0.55,0.81,0.15
0.55,0.81,0.16
0.55,0.81,0.16
0.55,0.81,0.16
0.55,0.81,0.16
0.55,0.81,0.16
0.55,0.81,0.16
0.55,0.81,0.16
0.54,0.81,0.16
0.54,0.81,0.16
0.55,0.81,0.15
0.56,0.81,0.15
0.56,0.81,0.16
0.56,0.81,0.16
0.56,0.81,0.16
0.56,0.81,0.17
0.56,0.8,0.17
0.55,0.8,0.16
0.56,0.81,0.16
0.56,0.81,0.15
0.56,0.81,0.15
0.56,0.81,0.15
0.56,0.81,0.16
0.55,0.81,0.16
0.55,0.81,0.16
0.55,0.8,0.16
0.56,0.8,0.16
0.55,0.8,0.16
0.55,0.81,0.16
0.55,0.81,0.16
0.55,0.81,0.16
0.55,0.8,0.16
0.55,0.8,0.17
0.55,0.81,0.17
0.55,0.81,0.16
0.55,0.8,0.16
0.55,0.81,0.16
0.55,0.81,0.16
0.56,0.81,0.16
0.56,0.81,0.16
0.56,0.81,0.16
0.55,0.81,0.16
0.55,0.81,0.17
0.56,0.8,0.17
0.56,0.81,0.17
0.56,0.81,0.16
0.56,0.81,0.16
0.56,0.81,0.16
0.56,0.81,0.15
0.55,0.81,0.16
0.55,0.8,0.16
0.55,0.81,0.17
0.54,0.8,0.16
0.55,0.8,0.16
0.55,0.8,0.17
0.56,0.81,0.17
0.56,0.81,0.16
0.56,0.81,0.16
0.56,0.81,0.15
0.56,0.81,0.15
0.56,0.81,0.15
0.55,0.81,0.16
0.56,0.81,0.16
0.56,0.81,0.16
0.56,0.81,0.16
0.56,0.81,0.16
0.56,0.81,0.16
0.56,0.81,0.16
0.56,0.81,0.15
0.56,0.81,0.15
0.55,0.81,0.15
0.54,0.81,0.16
0.54,0.81,0.16
0.55,0.8,0.16
0.55,0.81,0.16
0.54,0.81,0.16
0.55,0.81,0.16
0.55,0.81,0.16
0.55,0.81,0.16
0.56,0.81,0.16
0.56,0.81,0.16
0.55,0.81,0.16
0.56,0.8,0.16
0.56,0.8,0.16
0.56,0.81,0.16
0.56,0.81,0.16
0.56,0.81,0.16
0.55,0.81,0.16
0.56,0.81,0.16
0.56,0.81,0.16
0.56,0.81,0.16
0.55,0.8,0.16
0.55,0.8,0.16
0.55,0.8,0.16
0.55,0.8,0.16
0.55,0.8,0.16
0.56,0.8,0.16
0.57,0.8,0.17
0.58,0.81,0.19
0.57,0.81,0.2
0.56,0.8,0.23
0.57,0.8,0.26
0.58,0.8,0.27
0.58,0.81,0.28
0.58,0.8,0.29
0.58,0.8,0.29
0.58,0.79,0.27
0.6,0.78,0.25
0.64,0.77,0.25
0.63,0.76,0.24
0.63,0.76,0.26
0.63,0.77,0.27
0.61,0.77,0.28
0.6,0.78,0.27
0.58,0.79,0.24
0.55,0.8,0.22
0.53,0.8,0.19
0.52,0.82,0.16
0.51,0.83,0.13
0.51,0.84,0.11
0.5,0.85,0.09
0.5,0.85,0.08
0.49,0.85,0.07
0.47,0.85,0.05
0.47,0.85,0.02
0.47,0.86,-0.01
0.47,0.88,-0.05
0.47,0.89,-0.09
0.47,0.89,-0.11
0.46,0.89,-0.12
0.45,0.89,-0.12
0.44,0.89,-0.12
0.44,0.89,-0.12
0.44,0.89,-0.12
0.44,0.89,-0.14
0.44,0.89,-0.15
0.44,0.88,-0.15
0.43,0.88,-0.15
0.43,0.88,-0.14
0.44,0.87,-0.13
0.45,0.86,-0.13
0.46,0.85,-0.12
0.46,0.85,-0.12
0.47,0.84,-0.12
0.48,0.84,-0.12
0.48,0.84,-0.12
0.48,0.84,-0.12
0.48,0.84,-0.11
0.48,0.83,-0.11
0.49,0.83,-0.09
0.49,0.82,-0.06
0.5,0.81,-0.04
0.53,0.81,-0.01
0.55,0.8,0.01
0.57,0.79,0.03
1.12,0.36,0.87
1.5,0,2.49
0.86,0.26,1.64
0.28,0.84,0.04
0.25,1.14,0.09
0.39,0.93,0.06
0.6,0.84,-0.01
0.74,0.82,-0.07
0.71,0.83,-0.07
0.63,0.88,0.03
0.51,0.87,0.23
0.47,0.81,0.2
0.5,0.8,0.13
0.58,0.79,0.08
0.63,0.79,0.07
0.64,0.8,0.09
0.64,0.78,0.12
0.64,0.78,0.14
0.64,0.78,0.16
0.62,0.78,0.18
0.6,0.78,0.18
0.57,0.78,0.16
0.55,0.78,0.15
0.54,0.78,0.14
0.54,0.79,0.14
0.55,0.8,0.14
0.56,0.8,0.16
0.57,0.8,0.17
0.57,0.79,0.18
0.58,0.79,0.19
0.58,0.79,0.18
0.58,0.79,0.16
0.58,0.79,0.15
0.58,0.79,0.14
0.58,0.79,0.14
0.57,0.79,0.14
0.57,0.79,0.15
0.57,0.79,0.16
0.58,0.79,0.16
0.58,0.8,0.16
0.57,0.8,0.15
0.57,0.8,0.14
0.56,0.8,0.14
0.57,0.8,0.15
0.58,0.79,0.15
0.58,0.79,0.15
0.57,0.79,0.15
0.57,0.79,0.15
0.57,0.8,0.14
0.57,0.8,0.14
0.58,0.8,0.15
0.58,0.8,0.15
0.58,0.8,0.15
0.58,0.8,0.15
0.58,0.8,0.15
0.58,0.8,0.14
0.58,0.8,0.14
0.58,0.8,0.14
0.58,0.8,0.15
0.58,0.8,0.14
0.58,0.81,0.14
0.57,0.81,0.14
0.57,0.8,0.15
0.58,0.8,0.15
0.58,0.8,0.16
0.57,0.8,0.15
0.57,0.8,0.15
0.57,0.8,0.15
0.57,0.8,0.15
0.58,0.8,0.14
0.57,0.8,0.14
0.57,0.79,0.15
0.58,0.79,0.15
0.58,0.79,0.15
0.58,0.79,0.15
0.58,0.8,0.15
0.58,0.8,0.15
0.58,0.8,0.15
0.58,0.8,0.15
0.57,0.79,0.16
0.57,0.79,0.16
0.57,0.79,0.15
0.58,0.8,0.15
0.58,0.8,0.14
0.58,0.8,0.14
0.58,0.8,0.14
0.58,0.8,0.15
0.58,0.8,0.15
0.58,0.8,0.15
0.57,0.8,0.15
0.57,0.8,0.15
0.58,0.8,0.15
0.58,0.8,0.15
0.58,0.8,0.15
0.57,0.8,0.16
0.57,0.79,0.16
0.56,0.8,0.15
0.57,0.8,0.15
0.57,0.8,0.15
0.57,0.8,0.15
0.57,0.79,0.15
0.57,0.79,0.14
0.57,0.79,0.15
0.57,0.79,0.15
0.58,0.79,0.15
0.58,0.8,0.15
0.58,0.8,0.15
0.57,0.8,0.15
0.57,0.8,0.16
0.58,0.8,0.16
0.58,0.8,0.15
0.57,0.8,0.15
0.57,0.8,0.15
0.57,0.8,0.14
0.58,0.8,0.14
0.58,0.8,0.15
0.57,0.8,0.15
0.57,0.81,0.15
0.57,0.8,0.15
0.57,0.8,0.15
0.56,0.8,0.15
0.56,0.79,0.15
0.57,0.79,0.15
0.58,0.79,0.15
0.58,0.79,0.15
0.58,0.8,0.15
0.58,0.8,0.15
0.58,0.8,0.15
0.58,0.79,0.15
0.57,0.79,0.15
0.57,0.8,0.15
0.57,0.8,0.15
0.57,0.8,0.15
0.57,0.8,0.15
0.58,0.8,0.15
0.58,0.8,0.15
0.58,0.8,0.15
0.58,0.8,0.15
0.59,0.8,0.15
0.59,0.8,0.15
0.58,0.8,0.15
0.58,0.8,0.15
0.58,0.8,0.15
0.57,0.8,0.15
0.57,0.79,0.15
0.57,0.79,0.15
0.57,0.8,0.15
0.57,0.8,0.15
0.57,0.79,0.15
0.57,0.79,0.15
0.58,0.79,0.15
0.58,0.79,0.15
0.57,0.8,0.15
0.57,0.8,0.16
0.57,0.8,0.15
0.57,0.8,0.15
0.57,0.8,0.15
0.57,0.8,0.15
0.57,0.8,0.14
0.58,0.8,0.15
0.58,0.79,0.15
0.58,0.8,0.15
0.58,0.8,0.15
0.58,0.8,0.15
0.57,0.79,0.15
0.58,0.79,0.15
0.58,0.8,0.15
0.58,0.8,0.15
0.57,0.8,0.15
0.57,0.8,0.15
0.57,0.79,0.15
0.57,0.79,0.15
0.57,0.8,0.15
0.58,0.8,0.14
0.58,0.8,0.15
0.58,0.8,0.15
0.57,0.79,0.15
0.57,0.8,0.15
0.57,0.8,0.15
0.57,0.8,0.15
0.57,0.8,0.15
0.58,0.8,0.15
0.58,0.8,0.15
0.58,0.8,0.15
0.58,0.8,0.15
0.57,0.8,0.15
0.57,0.8,0.15
0.58,0.8,0.15
0.57,0.8,0.16
0.57,0.79,0.17
0.57,0.79,0.17
0.57,0.8,0.17
0.57,0.8,0.15
0.58,0.8,0.15
0.58,0.8,0.15
0.58,0.8,0.16
0.58,0.8,0.18
0.58,0.8,0.2
0.59,0.8,0.23
0.59,0.79,0.23
0.59,0.79,0.22
0.58,0.79,0.2
0.58,0.79,0.19
0.6,0.8,0.17
0.63,0.8,0.16
0.63,0.79,0.16
0.62,0.77,0.18
0.61,0.76,0.21
0.61,0.78,0.22
0.6,0.78,0.21
0.58,0.78,0.21
0.59,0.79,0.21
0.58,0.8,0.21
0.57,0.81,0.2
0.57,0.81,0.2
0.57,0.81,0.2
0.56,0.81,0.19
0.55,0.81,0.19
0.54,0.81,0.17
0.54,0.82,0.13
0.53,0.84,0.11
0.52,0.85,0.09
0.52,0.85,0.08
0.52,0.85,0.08
0.52,0.85,0.08
0.51,0.85,0.08
0.5,0.84,0.06
0.49,0.85,0.04
0.49,0.86,0.03
0.49,0.86,0.02
0.49,0.86,0.02
0.48,0.86,0.01
0.47,0.86,0.01
0.46,0.87,0
0.45,0.87,-0.01
0.45,0.88,-0.02
0.44,0.88,-0.03
0.43,0.87,-0.03
0.43,0.86,-0.04
0.44,0.86,-0.03
0.44,0.86,-0.03
0.44,0.85,-0.04
0.44,0.85,-0.04
0.44,0.85,-0.04
0.44,0.85,-0.05
0.45,0.86,-0.06
0.45,0.85,-0.07
0.46,0.85,-0.07
0.46,0.85,-0.08
0.47,0.85,-0.08
0.48,0.85,-0.08
0.49,0.84,-0.08
0.5,0.84,-0.06
0.5,0.83,-0.05
0.5,0.81,-0.01
0.49,0.64,-0.21
1.15,0.31,1.05
1.19,0.14,2.35
0.59,0.55,1.37
0.42,1.01,0.4
0.2,0.97,0.18
0.3,0.92,0.06
0.51,0.92,-0.02
0.59,0.85,0.01
0.63,0.82,0.07
0.6,0.87,0.11
0.54,0.87,0.14
0.56,0.85,0.15
0.57,0.83,0.13
0.54,0.8,0.13
0.54,0.8,0.14
0.56,0.79,0.14
0.62,0.78,0.16
0.63,0.78,0.19
0.63,0.78,0.21
0.63,0.78,0.21
0.61,0.78,0.2
0.58,0.78,0.19
0.56,0.79,0.18
0.55,0.79,0.17
0.55,0.8,0.18
0.55,0.8,0.19
0.55,0.8,0.21
0.55,0.8,0.21
0.56,0.8,0.21
0.56,0.8,0.2
0.57,0.79,0.19
0.57,0.8,0.18
0.56,0.8,0.17
0.56,0.81,0.16
0.56,0.81,0.16
0.56,0.8,0.16
0.55,0.81,0.17
0.55,0.81,0.18
0.55,0.81,0.18
0.55,0.81,0.18
0.55,0.81,0.19
0.55,0.81,0.18
0.55,0.82,0.16
0.55,0.81,0.16
0.55,0.81,0.16
0.56,0.8,0.17
0.56,0.8,0.18
0.56,0.8,0.18
0.55,0.8,0.18
0.55,0.8,0.18
0.56,0.81,0.17
0.57,0.81,0.17
0.56,0.81,0.17
0.55,0.81,0.17
0.55,0.8,0.17
0.55,0.8,0.18
0.55,0.8,0.18
0.56,0.8,0.18
0.56,0.8,0.19
0.56,0.8,0.19
0.57,0.81,0.18
0.57,0.81,0.18
0.56,0.81,0.17
0.55,0.81,0.18
0.55,0.81,0.18
0.56,0.8,0.18
0.56,0.8,0.18
0.56,0.8,0.18
0.55,0.8,0.18
0.56,0.8,0.18
0.56,0.8,0.18
0.55,0.8,0.17
0.55,0.8,0.17
0.55,0.8,0.17
0.56,0.8,0.17
0.56,0.8,0.17
0.55,0.8,0.17
0.55,0.8,0.18
0.56,0.8,0.18
0.56,0.8,0.18
0.56,0.8,0.18
0.56,0.8,0.18
0.55,0.8,0.17
0.55,0.8,0.17
0.56,0.8,0.18
0.56,0.8,0.18
0.56,0.8,0.18
0.55,0.81,0.18
0.56,0.81,0.18
0.56,0.8,0.19
0.56,0.8,0.18
0.56,0.8,0.18
0.55,0.8,0.17
0.55,0.8,0.17
0.55,0.81,0.18
0.56,0.81,0.18
0.56,0.81,0.18
0.55,0.81,0.18
0.55,0.8,0.18
0.56,0.8,0.18
0.56,0.8,0.18
0.56,0.8,0.18
0.56,0.8,0.18
0.56,0.8,0.18
0.56,0.8,0.17
0.56,0.8,0.17
0.55,0.8,0.18
0.56,0.8,0.18
0.56,0.8,0.18
0.57,0.8,0.18
0.57,0.8,0.18
0.56,0.81,0.18
0.56,0.8,0.17
0.56,0.8,0.17
0.55,0.8,0.17
0.55,0.8,0.18
0.55,0.8,0.18
0.55,0.8,0.17
0.56,0.8,0.18
0.56,0.8,0.18
0.56,0.8,0.18
0.55,0.8,0.17
0.55,0.8,0.17
0.56,0.8,0.17
0.57,0.8,0.17
0.57,0.8,0.17
0.57,0.8,0.18
0.57,0.8,0.18
0.56,0.81,0.18
0.56,0.81,0.17
0.56,0.81,0.17
0.55,0.81,0.17
0.56,0.81,0.17
0.56,0.8,0.18
0.56,0.8,0.18
0.56,0.8,0.18
0.56,0.8,0.17
0.56,0.8,0.17
0.56,0.8,0.17
0.56,0.8,0.18
0.56,0.8,0.18
0.56,0.8,0.18
0.55,0.8,0.18
0.55,0.8,0.18
0.55,0.8,0.17
0.55,0.8,0.18
0.56,0.8,0.17
0.56,0.8,0.17
0.56,0.8,0.17
0.56,0.81,0.17
0.56,0.8,0.17
0.56,0.8,0.18
0.56,0.8,0.18
0.56,0.8,0.18
0.56,0.8,0.18
0.56,0.8,0.18
0.57,0.8,0.17
0.56,0.8,0.18
0.56,0.8,0.18
0.56,0.8,0.18
0.56,0.8,0.19
0.56,0.8,0.2
0.56,0.81,0.2
0.56,0.8,0.21
0.55,0.8,0.22
0.57,0.8,0.24
0.58,0.79,0.25
0.57,0.79,0.25
0.56,0.8,0.24
0.56,0.8,0.23
0.58,0.8,0.22
0.59,0.8,0.21
0.59,0.8,0.22
0.55,0.77,0.24
0.59,0.76,0.25
0.64,0.77,0.25
0.63,0.78,0.26
0.6,0.78,0.27
0.59,0.79,0.26
0.58,0.8,0.25
0.57,0.81,0.24
0.56,0.81,0.23
0.56,0.82,0.22
0.55,0.82,0.21
0.54,0.82,0.2
0.54,0.82,0.17
0.54,0.82,0.14
0.53,0.83,0.12
0.53,0.83,0.09
0.53,0.84,0.07
0.52,0.84,0.06
0.51,0.84,0.05
0.5,0.85,0.03
0.48,0.85,0.02
0.49,0.86,0.01
0.49,0.86,0.01
0.47,0.86,0
0.47,0.86,-0.01
0.46,0.86,-0.04
0.45,0.87,-0.05
0.44,0.88,-0.06
0.44,0.88,-0.07
0.44,0.87,-0.07
0.45,0.87,-0.06
0.45,0.86,-0.06
0.45,0.86,-0.06
0.45,0.86,-0.06
0.45,0.86,-0.06
0.45,0.86,-0.07
0.45,0.86,-0.07
0.46,0.86,-0.08
0.46,0.86,-0.09
0.47,0.86,-0.09
0.47,0.86,-0.09
0.48,0.87,-0.1
0.5,0.87,-0.12
0.5,0.88,-0.14
0.51,0.89,-0.14
0.52,0.88,-0.14
0.54,0.86,-0.14
0.54,0.84,-0.12
0.64,0.8,-0.23
1.13,0.53,0.29
1.61,0,2.45
0.72,0.13,2.59
0.46,1.09,0.04
0.35,1.05,-0.02
0.48,0.97,-0.08
0.62,0.88,-0.08
0.58,0.82,0.03
0.58,0.84,0.17
0.56,0.81,0.27
0.52,0.78,0.28
0.47,0.78,0.23
0.42,0.77,0.18
0.45,0.77,0.14
0.51,0.77,0.12
0.57,0.78,0.13
0.6,0.79,0.15
0.6,0.78,0.18
0.59,0.78,0.2
0.58,0.78,0.22
0.56,0.78,0.21
0.53,0.79,0.19
0.52,0.8,0.18
0.52,0.81,0.18
0.53,0.82,0.18
0.55,0.82,0.19
0.55,0.83,0.2
0.56,0.83,0.21
0.56,0.82,0.22
0.57,0.82,0.21
0.57,0.82,0.19
0.57,0.82,0.17
0.57,0.81,0.16
0.56,0.81,0.16
0.55,0.81,0.17
0.54,0.8,0.17
0.54,0.8,0.18
0.54,0.8,0.19
0.54,0.81,0.19
0.54,0.81,0.19
0.54,0.81,0.19
0.54,0.81,0.19
0.54,0.81,0.18
0.54,0.81,0.18
0.54,0.81,0.18
0.54,0.81,0.18
0.54,0.81,0.18
0.54,0.81,0.18
0.55,0.81,0.18
0.55,0.82,0.18
0.56,0.81,0.18
0.55,0.81,0.18
0.55,0.81,0.18
0.56,0.81,0.18
0.55,0.81,0.18
0.55,0.81,0.18
0.55,0.81,0.18
0.55,0.81,0.18
0.55,0.82,0.18
0.55,0.81,0.18
0.54,0.81,0.18
0.54,0.8,0.19
0.54,0.8,0.19
0.54,0.8,0.19
0.54,0.8,0.19
0.55,0.8,0.19
0.55,0.8,0.18
0.55,0.81,0.18
0.54,0.81,0.18
0.54,0.81,0.18
0.55,0.81,0.18
0.54,0.81,0.19
0.54,0.81,0.19
0.54,0.81,0.18
0.54,0.82,0.18
0.55,0.82,0.18
0.55,0.81,0.18
0.56,0.81,0.18
0.56,0.81,0.18
0.55,0.81,0.18
0.55,0.81,0.18
0.55,0.81,0.18
0.54,0.81,0.18
0.54,0.81,0.18
0.55,0.81,0.18
0.55,0.81,0.18
0.55,0.81,0.18
0.54,0.81,0.18
0.54,0.81,0.18
0.55,0.8,0.19
0.56,0.8,0.19
0.56,0.8,0.18
0.55,0.8,0.18
0.55,0.8,0.18
0.55,0.81,0.18
0.55,0.81,0.18
0.55,0.81,0.18
0.55,0.81,0.18
0.55,0.81,0.18
0.55,0.81,0.18
0.55,0.81,0.19
0.55,0.81,0.18
0.55,0.81,0.18
0.54,0.81,0.18
0.55,0.81,0.18
0.55,0.81,0.18
0.55,0.81,0.18
0.55,0.81,0.18
0.55,0.81,0.18
0.55,0.81,0.18
0.55,0.8,0.18
0.55,0.8,0.18
0.55,0.81,0.18
0.55,0.81,0.18
0.55,0.81,0.18
0.55,0.81,0.18
0.55,0.81,0.18
0.55,0.81,0.18
0.55,0.81,0.18
0.54,0.81,0.18
0.55,0.81,0.19
0.55,0.81,0.19
0.55,0.81,0.19
0.55,0.81,0.18
0.55,0.81,0.18
0.55,0.81,0.18
0.55,0.81,0.18
0.55,0.81,0.18
0.55,0.81,0.18
0.55,0.81,0.18
0.55,0.81,0.18
0.55,0.81,0.18
0.55,0.81,0.18
0.55,0.81,0.18
0.55,0.81,0.18
0.54,0.81,0.18
0.55,0.81,0.18
0.55,0.8,0.18
0.55,0.81,0.18
0.55,0.81,0.18
0.55,0.81,0.18
0.55,0.81,0.18
0.55,0.81,0.18
0.54,0.81,0.18
0.55,0.81,0.18
0.55,0.81,0.18
0.55,0.81,0.18
0.55,0.81,0.18
0.55,0.81,0.18
0.55,0.81,0.18
0.55,0.81,0.18
0.55,0.81,0.19
0.55,0.81,0.18
0.55,0.81,0.18
0.55,0.81,0.18
0.54,0.81,0.18
0.54,0.81,0.18
0.54,0.81,0.18
0.54,0.8,0.18
0.55,0.81,0.19
0.54,0.81,0.19
0.54,0.81,0.18
0.54,0.81,0.18
0.54,0.8,0.18
0.54,0.8,0.19
0.54,0.8,0.18
0.54,0.8,0.18
0.54,0.81,0.18
0.54,0.81,0.18
0.54,0.81,0.18
0.54,0.81,0.18
0.54,0.81,0.18
0.55,0.81,0.18
0.55,0.81,0.19
0.55,0.81,0.18
0.55,0.81,0.18
0.54,0.81,0.18
0.55,0.81,0.18
0.55,0.82,0.18
0.56,0.82,0.18
0.56,0.82,0.18
0.56,0.82,0.18
0.56,0.82,0.18
0.57,0.82,0.18
0.58,0.82,0.18
0.58,0.82,0.18
0.58,0.81,0.17
0.57,0.81,0.17
0.57,0.81,0.16
0.56,0.82,0.16
0.55,0.81,0.16
0.54,0.81,0.17
0.54,0.81,0.17
0.54,0.81,0.18
0.54,0.81,0.19
0.54,0.81,0.2
0.53,0.81,0.19
0.54,0.81,0.19
0.53,0.81,0.19
0.52,0.81,0.19
0.51,0.81,0.19
0.5,0.81,0.19
0.5,0.81,0.2
0.5,0.81,0.2
0.5,0.81,0.2
0.51,0.81,0.2
0.51,0.81,0.21
0.52,0.81,0.21
0.52,0.81,0.21
0.52,0.8,0.21
0.53,0.8,0.2
0.53,0.8,0.2
0.53,0.8,0.19
0.54,0.8,0.19
0.54,0.81,0.19
0.54,0.81,0.19
0.55,0.81,0.19
0.55,0.82,0.18
0.56,0.82,0.18
0.56,0.82,0.18
0.55,0.82,0.18
0.55,0.82,0.18
0.55,0.82,0.18
0.54,0.82,0.18
0.54,0.82,0.18
0.54,0.82,0.17
0.53,0.82,0.17
0.53,0.82,0.17
0.53,0.83,0.17
0.52,0.83,0.17
0.52,0.83,0.17
0.52,0.83,0.17
0.52,0.83,0.17
0.52,0.83,0.18
0.53,0.83,0.18
0.53,0.83,0.18
0.54,0.82,0.17
0.54,0.82,0.17
0.54,0.82,0.17
0.54,0.82,0.17
0.54,0.82,0.17
0.53,0.82,0.17
0.53,0.82,0.17
0.53,0.82,0.17
0.53,0.82,0.18
0.53,0.82,0.18
0.53,0.82,0.18
0.53,0.82,0.18
0.53,0.82,0.18
0.52,0.82,0.17
0.52,0.82,0.17
0.52,0.82,0.18
0.53,0.82,0.18
0.53,0.82,0.18
0.53,0.82,0.18
0.53,0.82,0.18
0.53,0.82,0.18
0.53,0.82,0.18
0.53,0.82,0.18
0.53,0.81,0.19
0.53,0.81,0.18
0.53,0.81,0.18
0.53,0.81,0.18
0.53,0.81,0.18
0.54,0.82,0.18
0.54,0.82,0.19
0.54,0.82,0.19
0.53,0.81,0.2
0.53,0.81,0.2
0.53,0.81,0.19
0.53,0.81,0.19
0.54,0.82,0.19
0.54,0.81,0.19
0.53,0.82,0.19
0.53,0.82,0.19
0.53,0.82,0.19
0.53,0.82,0.2
0.53,0.82,0.21
0.53,0.83,0.22
0.53,0.82,0.24
0.53,0.82,0.25
0.53,0.82,0.25
0.53,0.82,0.24
0.52,0.82,0.24
0.53,0.81,0.25
0.55,0.81,0.26
0.55,0.81,0.28
0.55,0.81,0.3
0.55,0.82,0.31
0.56,0.83,0.28
0.55,0.82,0.25
0.51,0.81,0.25
0.55,0.81,0.24
0.56,0.82,0.24
0.54,0.82,0.26
0.54,0.82,0.27
0.53,0.82,0.29
0.53,0.83,0.29
0.52,0.83,0.28
0.52,0.83,0.26
0.51,0.84,0.23
0.5,0.84,0.21
0.49,0.84,0.2
0.49,0.85,0.17
0.49,0.85,0.15
0.49,0.86,0.13
0.49,0.85,0.11
0.48,0.85,0.09
0.47,0.86,0.07
0.47,0.86,0.05
0.46,0.86,0.03
0.46,0.86,0.02
0.46,0.86,0.02
0.46,0.86,0.01
0.46,0.85,0.01
0.45,0.85,0
0.44,0.86,-0.02
0.43,0.86,-0.02
0.43,0.86,-0.03
0.42,0.86,-0.03
0.42,0.87,-0.03
0.43,0.87,-0.05
0.43,0.86,-0.05
0.43,0.86,-0.05
0.43,0.86,-0.06
0.43,0.86,-0.06
0.43,0.86,-0.07
0.44,0.87,-0.08
0.44,0.88,-0.09
0.44,0.88,-0.1
0.43,0.89,-0.1
0.43,0.89,-0.11
0.44,0.89,-0.13
0.44,0.89,-0.14
0.44,0.89,-0.14
0.45,0.88,-0.14
0.46,0.87,-0.13
0.46,0.86,-0.13
0.46,0.85,-0.1
0.46,0.83,-0.08
0.46,0.82,-0.06
0.45,0.81,-0.04
1.26,0.44,3.01
1.15,0.35,1.16
0.6,1.01,-0.34
-0.39,1.25,0.12
-0.02,0.86,0.17
0.6,0.82,0.13
0.64,0.88,0.16
0.58,0.87,0.22
0.63,0.92,0.28
0.61,0.92,0.29
0.56,0.89,0.23
0.51,0.87,0.15
0.44,0.84,0.12
0.46,0.82,0.13
0.52,0.82,0.17
0.55,0.81,0.2
0.56,0.81,0.22
0.57,0.81,0.22
0.56,0.8,0.21
0.55,0.8,0.2
0.54,0.8,0.2
0.52,0.8,0.2
0.51,0.8,0.2
0.5,0.8,0.2
0.5,0.81,0.21
0.5,0.82,0.22
0.51,0.82,0.22
0.51,0.82,0.22
0.52,0.82,0.22
0.52,0.82,0.22
0.52,0.82,0.21
0.52,0.82,0.2
0.53,0.82,0.2
0.53,0.83,0.19
0.53,0.83,0.19
0.53,0.83,0.19
0.53,0.83,0.19
0.53,0.83,0.2
0.52,0.83,0.2
0.52,0.83,0.2
0.52,0.83,0.2
0.52,0.83,0.2
0.51,0.83,0.2
0.51,0.83,0.2
0.51,0.83,0.19
0.51,0.83,0.19
0.51,0.83,0.2
0.51,0.83,0.2
0.51,0.82,0.19
0.51,0.82,0.2
0.51,0.82,0.2
0.51,0.82,0.2
0.51,0.82,0.2
0.52,0.82,0.19
0.52,0.82,0.19
0.52,0.82,0.19
0.52,0.82,0.19
0.52,0.81,0.2
0.51,0.81,0.2
0.51,0.81,0.2
0.52,0.81,0.2
0.52,0.81,0.2
0.52,0.81,0.21
0.52,0.81,0.21
0.52,0.82,0.21
0.53,0.82,0.21
0.54,0.82,0.21
0.54,0.82,0.21
0.54,0.82,0.21
0.54,0.82,0.21
0.55,0.81,0.21
0.54,0.81,0.2
0.54,0.81,0.2
0.54,0.81,0.19
0.55,0.81,0.19
0.55,0.81,0.18
0.55,0.81,0.18
0.55,0.81,0.18
0.55,0.82,0.19
0.55,0.81,0.19
0.54,0.81,0.19
0.54,0.81,0.19
0.53,0.81,0.19
0.53,0.82,0.19
0.53,0.82,0.19
0.53,0.82,0.19
0.53,0.82,0.19
0.54,0.82,0.18
0.54,0.82,0.18
0.54,0.82,0.18
0.53,0.81,0.19
0.53,0.81,0.19
0.53,0.82,0.19
0.54,0.82,0.18
0.53,0.82,0.19
0.53,0.82,0.19
0.53,0.81,0.19
0.53,0.81,0.19
0.53,0.81,0.19
0.53,0.81,0.19
0.53,0.81,0.2
0.53,0.81,0.19
0.53,0.81,0.19
0.53,0.81,0.19
0.54,0.81,0.19
0.54,0.82,0.19
0.54,0.81,0.19
0.54,0.81,0.19
0.54,0.81,0.19
0.54,0.81,0.19
0.54,0.81,0.18
0.54,0.81,0.18
0.54,0.81,0.18
0.54,0.81,0.18
0.55,0.81,0.18
0.55,0.81,0.18
0.56,0.81,0.19
0.56,0.81,0.19
0.56,0.81,0.2
0.55,0.81,0.2
0.54,0.8,0.19
0.53,0.8,0.18
0.54,0.8,0.18
0.54,0.81,0.18
0.54,0.81,0.18
0.53,0.81,0.18
0.53,0.81,0.18
0.52,0.81,0.19
0.52,0.81,0.19
0.52,0.81,0.2
0.52,0.81,0.2
0.53,0.81,0.19
0.53,0.82,0.19
0.54,0.82,0.18
0.54,0.82,0.18
0.54,0.83,0.17
0.54,0.82,0.17
0.53,0.82,0.17
0.53,0.82,0.16
0.53,0.81,0.16
0.54,0.81,0.16
0.54,0.81,0.16
0.55,0.81,0.16
0.55,0.81,0.16
0.55,0.81,0.16
0.55,0.81,0.16
0.55,0.81,0.16
0.55,0.8,0.16
0.55,0.8,0.17
0.55,0.8,0.17
0.55,0.8,0.16
0.56,0.8,0.16
0.56,0.8,0.16
0.58,0.8,0.16
0.58,0.8,0.15
0.58,0.8,0.15
0.58,0.8,0.15
0.59,0.8,0.15
0.59,0.79,0.15
0.59,0.79,0.15
0.59,0.79,0.16
0.59,0.79,0.16
0.59,0.79,0.15
0.59,0.79,0.15
0.59,0.79,0.15
0.6,0.78,0.15
0.6,0.78,0.15
0.61,0.79,0.15
0.61,0.79,0.15
0.61,0.79,0.15
0.62,0.79,0.15
0.62,0.79,0.15
0.63,0.78,0.15
0.63,0.78,0.15
0.63,0.78,0.14
0.64,0.77,0.14
0.64,0.77,0.14
0.64,0.77,0.14
0.64,0.77,0.14
0.65,0.77,0.14
0.65,0.76,0.13
0.66,0.76,0.13
0.66,0.75,0.13
0.66,0.75,0.13
0.67,0.75,0.14
0.67,0.75,0.14
0.68,0.75,0.14
0.69,0.75,0.14
0.7,0.74,0.14
0.69,0.74,0.14
0.69,0.73,0.13
0.68,0.72,0.12
0.68,0.72,0.12
0.69,0.72,0.11
0.7,0.71,0.11
0.69,0.71,0.12
0.69,0.72,0.12
0.68,0.72,0.12
0.68,0.72,0.12
0.68,0.72,0.13
0.69,0.72,0.13
0.69,0.72,0.12
0.68,0.72,0.12
0.69,0.72,0.12
0.69,0.72,0.12
0.7,0.72,0.11
0.7,0.72,0.11
0.71,0.72,0.11
0.71,0.72,0.11
0.71,0.71,0.11
0.71,0.71,0.11
0.72,0.7,0.11
0.72,0.7,0.11
0.72,0.69,0.12
0.72,0.69,0.12
0.72,0.69,0.12
0.73,0.69,0.12
0.74,0.68,0.12
0.74,0.67,0.12
0.74,0.67,0.12
0.74,0.67,0.12
0.74,0.67,0.11
0.74,0.67,0.11
0.74,0.67,0.12
0.74,0.67,0.11
0.75,0.68,0.11
0.75,0.67,0.12
0.75,0.67,0.11
0.76,0.66,0.11
0.77,0.66,0.1
0.77,0.65,0.1
0.76,0.65,0.09
0.77,0.65,0.09
0.76,0.64,0.08
0.75,0.64,0.07
0.74,0.64,0.07
0.74,0.63,0.06
0.75,0.63,0.07
0.74,0.63,0.07
0.73,0.62,0.08
0.74,0.62,0.08
0.75,0.61,0.07
0.75,0.61,0.06
0.76,0.61,0.05
0.76,0.6,0.05
0.76,0.6,0.04
0.77,0.6,0.04
0.77,0.59,0.03
0.78,0.59,0.03
0.79,0.59,0.03
0.8,0.58,0.03
0.8,0.58,0.04
0.8,0.59,0.04
0.8,0.59,0.04
0.8,0.59,0.04
0.79,0.59,0.04
0.79,0.6,0.04
0.78,0.6,0.04
0.77,0.61,0.04
0.77,0.61,0.05
0.76,0.62,0.05
0.76,0.63,0.05
0.75,0.64,0.05
0.76,0.64,0.05
0.76,0.65,0.06
0.74,0.65,0.08
0.74,0.66,0.07
0.74,0.66,0.06
0.76,0.66,0.05
0.76,0.67,0.04
0.76,0.67,0.04
0.78,0.66,0.06
0.8,0.66,0.08
0.82,0.66,0.09
0.84,0.64,0.08
0.84,0.63,0.09
0.8,0.61,0.11
0.8,0.61,0.11
0.83,0.63,0.1
0.84,0.63,0.11
0.82,0.63,0.11
0.82,0.64,0.12
0.83,0.64,0.13
0.83,0.65,0.13
0.81,0.66,0.12
0.8,0.67,0.1
0.8,0.68,0.08
0.79,0.69,0.06
0.79,0.68,0.04
0.77,0.68,0.02
0.76,0.67,0
0.75,0.67,-0.02
0.74,0.66,-0.04
0.73,0.66,-0.05
0.72,0.66,-0.07
0.72,0.66,-0.07
0.71,0.66,-0.07
0.71,0.66,-0.07
0.7,0.66,-0.07
0.7,0.67,-0.07
0.7,0.67,-0.07
0.7,0.67,-0.06
0.7,0.67,-0.06
0.7,0.66,-0.06
0.7,0.66,-0.05
0.7,0.66,-0.05
0.7,0.67,-0.06
0.7,0.67,-0.06
0.7,0.68,-0.07
0.69,0.69,-0.07
0.69,0.69,-0.08
0.7,0.7,-0.08
0.7,0.7,-0.08
0.7,0.71,-0.08
0.69,0.71,-0.1
0.68,0.72,-0.1
0.68,0.72,-0.11
0.67,0.73,-0.13
0.67,0.73,-0.15
0.67,0.73,-0.16
0.68,0.73,-0.18
0.68,0.73,-0.19
0.68,0.72,-0.2
0.68,0.72,-0.22
0.68,0.72,-0.24
0.68,0.71,-0.25
0.69,0.7,-0.24
0.69,0.69,-0.24
0.68,0.68,-0.26
0.66,0.67,-0.27
0.64,0.66,-0.28
0.62,0.65,-0.28
0.79,0.54,-0.15
1.89,-0.15,1.97
1.67,-0.39,2.3
0.84,0.5,0.25
0.45,1.01,-0.11
0.05,0.8,-0.13
0.63,0.65,-0.09
0.85,0.66,-0.01
0.83,0.64,-0.01
0.88,0.73,0.04
0.83,0.74,0.04
0.78,0.77,0
0.75,0.78,-0.05
0.74,0.75,-0.04
0.76,0.72,0
0.78,0.7,0.03
0.78,0.69,0.04
0.78,0.68,0.04
0.79,0.68,0.03
0.79,0.68,0.02
0.79,0.66,0.01
0.79,0.66,0.01
0.78,0.66,0.02
0.77,0.66,0.03
0.77,0.65,0.03
0.77,0.64,0.03
0.77,0.64,0.02
0.77,0.63,0.01
0.76,0.63,-0.01
0.76,0.64,-0.01
0.77,0.64,-0.02
0.77,0.64,-0.01
0.77,0.64,-0.01
0.76,0.64,-0.01
0.76,0.65,-0.01
0.74,0.64,-0.01
0.74,0.64,0
0.74,0.63,0.01
0.74,0.63,0.02
0.75,0.63,0.03
0.76,0.62,0.03
0.76,0.62,0.02
0.78,0.62,0.01
0.8,0.6,0.01
0.78,0.58,0.02
0.78,0.56,0
0.82,0.56,-0.04
0.82,0.57,-0.05
0.77,0.56,-0.02
0.77,0.55,0.01
0.8,0.54,0.03
0.82,0.55,0.05
0.84,0.55,0.07
0.86,0.55,0.08
0.87,0.56,0.1
0.86,0.57,0.11
0.85,0.58,0.13
0.86,0.59,0.16
0.86,0.61,0.17
0.85,0.62,0.18
0.84,0.62,0.19
0.82,0.62,0.17
0.81,0.63,0.16
0.81,0.65,0.15
0.8,0.67,0.14
0.8,0.67,0.14
0.79,0.67,0.14
0.77,0.66,0.14
0.76,0.65,0.14
0.76,0.64,0.13
0.75,0.64,0.14
0.78,0.64,0.15
0.82,0.63,0.17
0.85,0.63,0.2
0.86,0.64,0.24
0.85,0.65,0.29
0.84,0.68,0.33
0.81,0.7,0.36
0.8,0.71,0.37
0.84,0.73,0.36
0.85,0.76,0.36
0.8,0.77,0.34
0.81,0.75,0.29
0.86,0.7,0.28
0.88,0.64,0.37
0.88,0.64,0.37
0.84,0.64,0.41
0.84,0.61,0.43
0.81,0.62,0.41
0.77,0.6,0.4
0.75,0.59,0.38
0.73,0.61,0.38
0.62,0.56,0.4
0.63,0.47,0.43
0.69,0.53,0.43
0.63,0.56,0.42
0.63,0.52,0.44
0.6,0.51,0.48
0.58,0.49,0.52
0.59,0.47,0.57
0.59,0.47,0.59
0.55,0.48,0.6
0.52,0.48,0.57
0.5,0.48,0.53
0.5,0.49,0.48
0.51,0.49,0.44
0.55,0.49,0.42
0.64,0.46,0.41
0.73,0.44,0.43
0.77,0.43,0.48
0.75,0.44,0.53
0.73,0.46,0.58
0.7,0.48,0.6
0.68,0.51,0.61
0.6,0.52,0.6
0.59,0.52,0.58
0.61,0.54,0.54
0.61,0.55,0.52
0.6,0.57,0.53
0.58,0.59,0.56
0.5,0.57,0.6
0.44,0.56,0.63
0.45,0.57,0.65
0.47,0.54,0.65
0.49,0.53,0.64
0.52,0.54,0.63
0.5,0.54,0.63
0.46,0.54,0.65
0.44,0.54,0.67
0.44,0.56,0.67
0.37,0.52,0.67
0.31,0.5,0.7
0.37,0.53,0.71
0.4,0.52,0.71
0.4,0.5,0.73
0.39,0.49,0.75
0.38,0.51,0.75
0.33,0.49,0.75
0.33,0.49,0.77
0.37,0.48,0.79
0.36,0.48,0.79
0.36,0.47,0.8
0.34,0.46,0.8
0.31,0.45,0.82
0.32,0.47,0.83
0.33,0.49,0.83
0.32,0.48,0.83
0.3,0.48,0.84
0.3,0.49,0.84
0.29,0.49,0.84
0.28,0.49,0.84
0.27,0.48,0.85
0.24,0.49,0.86
0.22,0.5,0.85
0.23,0.51,0.84
0.24,0.51,0.82
0.24,0.51,0.8
0.24,0.5,0.81
0.24,0.49,0.83
0.24,0.49,0.83
0.24,0.5,0.84
0.24,0.49,0.85
0.26,0.49,0.85
0.27,0.48,0.85
0.27,0.48,0.85
0.28,0.49,0.82
0.29,0.49,0.83
0.28,0.49,0.83
0.25,0.49,0.83
0.24,0.49,0.83
0.25,0.49,0.81
0.26,0.49,0.81
0.27,0.49,0.81
0.27,0.5,0.81
0.27,0.5,0.81
0.26,0.51,0.81
0.26,0.51,0.8
0.26,0.5,0.8
0.26,0.5,0.8
0.26,0.5,0.81
0.26,0.5,0.83
0.26,0.49,0.84
0.25,0.49,0.84
0.25,0.49,0.84
0.25,0.49,0.84
0.25,0.49,0.84
0.24,0.48,0.84
0.24,0.48,0.84
0.24,0.48,0.84
0.24,0.49,0.85
0.23,0.49,0.85
0.24,0.49,0.85
0.26,0.49,0.86
0.26,0.49,0.86
0.26,0.49,0.86
0.26,0.49,0.85
0.27,0.5,0.84
0.27,0.5,0.84
0.27,0.5,0.83
0.27,0.5,0.82
0.27,0.5,0.82
0.27,0.5,0.82
0.27,0.5,0.81
0.27,0.5,0.81
0.27,0.5,0.82
0.27,0.49,0.82
0.26,0.5,0.82
0.26,0.5,0.82
0.26,0.5,0.82
0.26,0.5,0.82
0.26,0.5,0.82
0.26,0.49,0.83
0.26,0.49,0.83
0.26,0.5,0.83
0.26,0.5,0.82
0.26,0.5,0.82
0.26,0.5,0.81
0.25,0.5,0.82
0.25,0.5,0.83
0.25,0.49,0.82
0.25,0.49,0.82
0.25,0.49,0.82
0.26,0.49,0.83
0.26,0.49,0.83
0.27,0.49,0.82
0.27,0.49,0.83
0.27,0.49,0.83
0.27,0.49,0.84
0.26,0.49,0.83
0.26,0.5,0.83
0.26,0.49,0.83
0.26,0.49,0.82
0.26,0.5,0.83
0.26,0.5,0.83
