Acc_x,Acc_y,Acc_z
0.8,0.26,-0.26
0.85,0.24,-0.26
0.9,0.17,-0.26
0.92,0.11,-0.26
0.94,0.04,-0.27
0.95,0.03,-0.26
0.94,0.09,-0.26
0.92,0.12,-0.31
0.92,0.12,-0.36
0.97,0.09,-0.38
1.03,0.06,-0.38
1.04,-0.02,-0.37
1.04,-0.04,-0.36
1.03,-0.06,-0.34
1.01,-0.09,-0.34
1.01,-0.04,-0.35
1.01,-0.02,-0.36
1.03,-0.03,-0.38
1.05,-0.07,-0.39
1.06,-0.13,-0.38
1.06,-0.21,-0.39
1.03,-0.27,-0.41
1,-0.3,-0.42
1.19,-0.26,-0.38
1.29,-0.27,-0.33
1.35,-0.29,-0.3
1.36,-0.33,-0.29
1.32,-0.35,-0.28
1.24,-0.41,-0.29
1.17,-0.43,-0.31
1.15,-0.33,-0.33
1.21,-0.2,-0.34
1.29,-0.16,-0.33
1.29,-0.19,-0.31
1.29,-0.28,-0.28
1.29,-0.39,-0.24
1.24,-0.52,-0.21
1.19,-0.54,-0.2
1.18,-0.47,-0.22
1.16,-0.43,-0.25
1.18,-0.42,-0.27
1.21,-0.44,-0.29
1.22,-0.44,-0.28
1.24,-0.47,-0.22
1.25,-0.5,-0.17
1.19,-0.53,-0.16
1.14,-0.55,-0.2
1.13,-0.56,-0.23
1.11,-0.54,-0.24
1.07,-0.53,-0.25
1.06,-0.54,-0.26
1.11,-0.47,-0.19
1.12,-0.51,-0.15
1.05,-0.62,-0.16
1.04,-0.59,-0.17
1.03,-0.58,-0.19
1.02,-0.6,-0.19
1.07,-0.55,-0.16
1.06,-0.61,-0.14
1.04,-0.7,-0.13
1.05,-0.66,-0.1
1.02,-0.65,-0.11
0.99,-0.65,-0.12
0.97,-0.62,-0.11
0.97,-0.63,-0.12
0.95,-0.66,-0.14
0.95,-0.67,-0.13
0.96,-0.7,-0.1
0.95,-0.72,-0.09
0.92,-0.73,-0.08
0.89,-0.74,-0.09
0.86,-0.76,-0.11
0.86,-0.72,-0.12
0.89,-0.69,-0.12
0.89,-0.71,-0.11
0.84,-0.72,-0.09
0.84,-0.72,-0.08
0.82,-0.72,-0.09
0.79,-0.73,-0.1
0.79,-0.73,-0.11
0.79,-0.74,-0.11
0.8,-0.74,-0.12
0.8,-0.74,-0.12
0.8,-0.74,-0.12
0.8,-0.75,-0.11
0.8,-0.76,-0.09
0.79,-0.76,-0.09
0.76,-0.77,-0.09
0.74,-0.77,-0.1
0.75,-0.76,-0.11
0.75,-0.76,-0.11
0.75,-0.77,-0.1
0.75,-0.77,-0.1
0.74,-0.77,-0.1
0.73,-0.77,-0.1
0.73,-0.77,-0.11
0.72,-0.77,-0.1
0.7,-0.78,-0.09
0.68,-0.78,-0.09
0.67,-0.77,-0.1
0.66,-0.76,-0.1
0.66,-0.76,-0.11
0.67,-0.75,-0.11
0.69,-0.74,-0.11
0.71,-0.74,-0.1
0.71,-0.74,-0.1
0.71,-0.74,-0.09
0.73,-0.74,-0.08
0.75,-0.75,-0.07
0.76,-0.75,-0.07
0.78,-0.75,-0.07
0.79,-0.75,-0.05
0.81,-0.75,-0.05
0.83,-0.74,-0.04
0.84,-0.74,-0.03
0.85,-0.74,-0.03
0.86,-0.73,-0.03
0.87,-0.74,-0.02
0.88,-0.73,-0.01
0.91,-0.74,0
0.92,-0.75,0.01
0.95,-0.75,0.01
0.96,-0.74,0.01
0.96,-0.74,0.01
0.96,-0.73,0.01
0.98,-0.73,0.02
1.01,-0.73,0.02
1.05,-0.73,0.03
1.06,-0.73,0.02
1.07,-0.73,0.01
1.07,-0.73,0.01
1.06,-0.74,0
1.06,-0.75,-0.02
1.06,-0.76,-0.02
1.08,-0.76,-0.02
1.1,-0.75,-0.03
1.13,-0.74,-0.04
1.15,-0.72,-0.05
1.15,-0.71,-0.05
1.14,-0.72,-0.06
1.14,-0.73,-0.07
1.13,-0.73,-0.08
1.13,-0.72,-0.09
1.15,-0.72,-0.1
1.16,-0.71,-0.1
1.18,-0.71,-0.1
1.2,-0.71,-0.1
1.21,-0.69,-0.11
1.2,-0.67,-0.12
1.19,-0.66,-0.11
1.18,-0.65,-0.1
1.18,-0.63,-0.1
1.2,-0.59,-0.1
1.22,-0.61,-0.1
1.22,-0.6,-0.1
1.23,-0.59,-0.1
1.23,-0.56,-0.1
1.21,-0.54,-0.13
1.18,-0.52,-0.15
1.17,-0.49,-0.15
1.18,-0.48,-0.14
1.17,-0.46,-0.15
1.18,-0.43,-0.14
1.19,-0.42,-0.14
1.17,-0.4,-0.16
1.15,-0.4,-0.17
1.14,-0.39,-0.18
1.12,-0.36,-0.19
1.09,-0.35,-0.2
1.07,-0.34,-0.2
1.06,-0.33,-0.2
1.06,-0.29,-0.19
1.07,-0.25,-0.19
1.07,-0.22,-0.19
1.04,-0.17,-0.19
1.01,-0.12,-0.22
0.99,-0.12,-0.25
0.98,-0.11,-0.25
0.96,-0.09,-0.24
0.91,-0.05,-0.2
0.86,-0.01,-0.19
0.84,0.03,-0.2
0.84,0.07,-0.19
0.85,0.1,-0.19
0.83,0.13,-0.21
0.81,0.14,-0.22
0.79,0.16,-0.22
0.76,0.18,-0.22
0.72,0.2,-0.22
0.68,0.23,-0.2
0.67,0.26,-0.18
0.66,0.3,-0.16
0.64,0.34,-0.17
0.64,0.39,-0.17
0.63,0.41,-0.16
0.63,0.46,-0.16
0.62,0.49,-0.17
0.59,0.47,-0.17
0.59,0.5,-0.16
0.59,0.56,-0.15
0.58,0.55,-0.13
0.56,0.55,-0.11
0.51,0.63,-0.1
0.47,0.6,-0.1
0.45,0.58,-0.1
0.44,0.65,-0.07
0.43,0.64,-0.05
0.46,0.69,-0.06
0.43,0.69,-0.06
0.39,0.66,-0.04
0.39,0.64,-0.03
0.36,0.62,0
0.34,0.69,0.02
0.33,0.72,0.06
0.31,0.7,0.08
0.27,0.64,0.06
0.25,0.63,0.09
0.26,0.67,0.1
0.27,0.71,0.11
0.25,0.7,0.12
0.23,0.69,0.13
0.2,0.67,0.15
0.14,0.62,0.19
0.1,0.63,0.21
0.09,0.67,0.22
0.12,0.73,0.22
0.12,0.73,0.26
0.08,0.69,0.31
0.04,0.69,0.32
0.02,0.74,0.33
0,0.76,0.33
0.01,0.78,0.38
-0.05,0.76,0.41
-0.1,0.71,0.44
-0.11,0.73,0.47
-0.11,0.76,0.52
-0.11,0.77,0.54
-0.1,0.76,0.56
-0.12,0.77,0.58
-0.15,0.75,0.59
-0.17,0.73,0.62
-0.17,0.75,0.63
-0.17,0.75,0.63
-0.17,0.77,0.64
-0.16,0.78,0.65
-0.19,0.77,0.66
-0.19,0.78,0.67
-0.16,0.8,0.67
-0.13,0.8,0.66
-0.11,0.8,0.65
-0.09,0.79,0.64
-0.08,0.79,0.62
-0.08,0.79,0.6
-0.06,0.8,0.58
-0.03,0.81,0.57
0,0.81,0.55
0.02,0.81,0.53
0.03,0.81,0.49
0.06,0.82,0.47
0.07,0.82,0.46
0.07,0.82,0.45
0.07,0.83,0.42
0.08,0.83,0.4
0.08,0.83,0.37
0.08,0.82,0.36
0.1,0.83,0.34
0.12,0.82,0.33
0.13,0.81,0.32
0.15,0.8,0.3
0.16,0.79,0.27
0.15,0.77,0.26
0.15,0.78,0.26
0.16,0.79,0.24
0.18,0.78,0.22
0.19,0.76,0.21
0.18,0.73,0.2
0.18,0.72,0.19
0.16,0.67,0.19
0.16,0.66,0.19
0.22,0.72,0.16
0.24,0.72,0.14
0.23,0.69,0.13
0.24,0.68,0.1
0.24,0.67,0.09
0.26,0.62,0.08
0.28,0.61,0.09
0.32,0.62,0.1
0.37,0.64,0.09
0.4,0.64,0.07
0.42,0.64,0.06
0.41,0.62,0.05
0.4,0.58,0.05
0.42,0.55,0.04
0.44,0.54,0.03
0.46,0.53,0.03
0.5,0.53,0.01
0.56,0.53,0
0.57,0.49,-0.02
0.57,0.46,-0.06
0.58,0.45,-0.09
0.6,0.42,-0.11
0.62,0.4,-0.13
0.64,0.41,-0.14
0.67,0.4,-0.15
0.7,0.36,-0.15
0.72,0.33,-0.15
0.73,0.28,-0.17
0.73,0.26,-0.18
0.72,0.25,-0.2
0.73,0.26,-0.26
0.84,0.23,-0.26
0.86,0.19,-0.25
0.88,0.1,-0.25
0.9,0.07,-0.23
0.9,0.11,-0.24
0.88,0.13,-0.28
0.87,0.11,-0.32
0.89,0.05,-0.35
0.93,0,-0.35
0.97,-0.03,-0.33
0.99,-0.05,-0.31
0.99,-0.08,-0.29
0.99,-0.07,-0.32
0.97,-0.06,-0.37
0.95,-0.07,-0.41
0.98,-0.05,-0.42
1.05,-0.07,-0.41
1.1,-0.09,-0.4
1.1,-0.12,-0.4
1.08,-0.16,-0.42
1.07,-0.22,-0.44
1.06,-0.3,-0.44
1.05,-0.35,-0.43
1.09,-0.33,-0.42
1.1,-0.25,-0.42
1.11,-0.16,-0.43
1.16,-0.18,-0.39
1.2,-0.27,-0.37
1.17,-0.38,-0.37
1.14,-0.45,-0.39
1.11,-0.47,-0.4
1.09,-0.44,-0.4
1.13,-0.42,-0.41
1.18,-0.38,-0.4
1.23,-0.37,-0.34
1.26,-0.41,-0.29
1.26,-0.45,-0.29
1.22,-0.47,-0.29
1.17,-0.51,-0.31
1.11,-0.55,-0.35
1.04,-0.58,-0.35
1.07,-0.59,-0.33
1.13,-0.57,-0.31
1.15,-0.58,-0.27
1.2,-0.58,-0.25
1.24,-0.57,-0.27
1.23,-0.58,-0.27
1.21,-0.57,-0.26
1.18,-0.55,-0.26
1.13,-0.57,-0.29
1.12,-0.59,-0.29
1.15,-0.6,-0.29
1.19,-0.66,-0.24
1.24,-0.7,-0.19
1.23,-0.72,-0.17
1.18,-0.71,-0.19
1.1,-0.7,-0.22
1.03,-0.68,-0.24
1.02,-0.68,-0.24
1.09,-0.69,-0.21
1.15,-0.7,-0.17
1.17,-0.7,-0.13
1.16,-0.7,-0.12
1.15,-0.69,-0.13
1.15,-0.69,-0.13
1.16,-0.68,-0.13
1.16,-0.68,-0.12
1.16,-0.69,-0.11
1.16,-0.71,-0.09
1.15,-0.71,-0.07
1.13,-0.7,-0.07
1.13,-0.7,-0.07
1.12,-0.7,-0.07
1.12,-0.69,-0.07
1.12,-0.69,-0.06
1.13,-0.69,-0.06
1.16,-0.68,-0.07
1.18,-0.68,-0.08
1.19,-0.69,-0.1
1.19,-0.7,-0.1
1.19,-0.69,-0.1
1.19,-0.69,-0.13
1.22,-0.7,-0.15
1.25,-0.71,-0.16
1.28,-0.72,-0.16
1.31,-0.71,-0.16
1.33,-0.71,-0.16
1.35,-0.71,-0.17
1.39,-0.73,-0.17
1.44,-0.75,-0.16
1.49,-0.76,-0.14
1.54,-0.77,-0.12
1.53,-0.77,-0.11
1.49,-0.76,-0.12
1.47,-0.74,-0.13
1.46,-0.74,-0.13
1.46,-0.75,-0.13
1.46,-0.77,-0.14
1.45,-0.79,-0.16
1.46,-0.81,-0.17
1.48,-0.79,-0.18
1.49,-0.76,-0.18
1.49,-0.75,-0.19
1.48,-0.79,-0.2
1.46,-0.85,-0.21
1.36,-0.85,-0.23
1.34,-0.81,-0.24
1.31,-0.79,-0.25
1.29,-0.78,-0.25
1.28,-0.76,-0.25
1.23,-0.73,-0.25
1.19,-0.7,-0.26
1.18,-0.7,-0.25
1.17,-0.66,-0.24
1.13,-0.58,-0.23
1.11,-0.51,-0.23
1.1,-0.47,-0.25
1.08,-0.47,-0.26
1.03,-0.47,-0.26
1.01,-0.41,-0.25
0.99,-0.35,-0.25
0.96,-0.32,-0.24
0.96,-0.27,-0.23
0.96,-0.16,-0.22
0.94,-0.11,-0.23
0.9,-0.11,-0.27
0.88,-0.1,-0.31
0.85,-0.09,-0.32
0.81,-0.09,-0.31
0.8,-0.01,-0.3
0.79,0.02,-0.24
0.69,0.03,-0.26
0.68,0.08,-0.19
0.7,0.15,-0.21
0.66,0.24,-0.34
0.56,0.24,-0.35
0.49,0.2,-0.34
0.46,0.21,-0.35
0.44,0.2,-0.34
0.38,0.19,-0.28
0.33,0.2,-0.22
0.29,0.23,-0.21
0.23,0.23,-0.22
0.18,0.24,-0.21
0.16,0.28,-0.19
0.16,0.28,-0.14
0.18,0.26,-0.07
0.17,0.21,0
0.11,0.17,0.02
0.03,0.24,0.04
-0.04,0.32,0.09
-0.08,0.45,0.18
-0.11,0.52,0.23
-0.17,0.51,0.22
-0.22,0.58,0.26
-0.23,0.66,0.32
-0.28,0.67,0.46
-0.28,0.71,0.52
-0.28,0.73,0.58
-0.26,0.73,0.61
-0.25,0.73,0.66
-0.26,0.72,0.69
-0.24,0.73,0.71
-0.26,0.68,0.71
-0.33,0.62,0.72
-0.31,0.67,0.72
-0.23,0.73,0.74
-0.19,0.74,0.75
-0.19,0.74,0.76
-0.2,0.74,0.74
-0.15,0.79,0.72
-0.16,0.76,0.71
-0.18,0.74,0.69
-0.15,0.76,0.66
-0.15,0.76,0.64
-0.13,0.8,0.63
-0.11,0.83,0.63
-0.1,0.84,0.61
-0.1,0.84,0.58
-0.11,0.84,0.55
-0.1,0.83,0.51
-0.09,0.81,0.49
-0.09,0.82,0.49
-0.06,0.87,0.48
-0.05,0.88,0.46
-0.04,0.87,0.43
-0.03,0.86,0.41
-0.02,0.85,0.4
-0.02,0.85,0.4
-0.01,0.85,0.4
-0.01,0.87,0.4
-0.01,0.89,0.38
0,0.9,0.35
0.02,0.9,0.34
0.03,0.9,0.33
0.04,0.89,0.31
0.06,0.88,0.3
0.08,0.88,0.3
0.09,0.89,0.3
0.1,0.89,0.3
0.11,0.89,0.3
0.11,0.9,0.3
0.12,0.9,0.29
0.13,0.89,0.28
0.13,0.88,0.26
0.13,0.85,0.27
0.15,0.83,0.28
0.17,0.83,0.29
0.16,0.83,0.3
0.16,0.88,0.26
0.16,0.88,0.25
0.16,0.85,0.25
0.14,0.82,0.24
0.13,0.79,0.23
0.16,0.79,0.24
0.18,0.79,0.24
0.19,0.81,0.22
0.17,0.82,0.18
0.17,0.82,0.16
0.17,0.8,0.15
0.17,0.76,0.13
0.16,0.73,0.13
0.18,0.72,0.11
0.22,0.72,0.1
0.23,0.71,0.09
0.24,0.72,0.07
0.25,0.72,0.04
0.25,0.71,0.02
0.26,0.71,0.01
0.27,0.69,0.01
0.29,0.66,0
0.31,0.64,0.01
0.33,0.63,0.01
0.39,0.66,0
0.44,0.67,-0.04
0.45,0.66,-0.08
0.47,0.65,-0.1
0.5,0.64,-0.11
0.52,0.6,-0.12
0.55,0.59,-0.14
0.58,0.58,-0.16
0.63,0.59,-0.17
0.66,0.61,-0.18
0.67,0.61,-0.18
0.69,0.62,-0.19
0.69,0.59,-0.2
0.69,0.54,-0.21
0.69,0.51,-0.22
0.7,0.49,-0.22
0.73,0.5,-0.21
0.79,0.55,-0.21
0.84,0.57,-0.24
0.86,0.54,-0.28
0.86,0.5,-0.3
0.83,0.45,-0.31
0.81,0.4,-0.32
0.79,0.36,-0.3
0.8,0.37,-0.29
0.83,0.4,-0.29
0.84,0.38,-0.28
0.84,0.34,-0.27
0.86,0.36,-0.29
0.87,0.33,-0.3
0.83,0.29,-0.28
0.8,0.27,-0.29
0.77,0.24,-0.27
0.79,0.24,-0.23
0.86,0.27,-0.23
0.89,0.25,-0.25
0.88,0.2,-0.25
0.87,0.15,-0.23
0.86,0.11,-0.24
0.84,0.07,-0.23
0.79,0.07,-0.22
0.77,0.1,-0.25
0.8,0.1,-0.29
0.85,0.07,-0.28
0.87,0.08,-0.26
0.91,0.07,-0.25
0.93,0.02,-0.26
0.91,-0.05,-0.29
0.85,-0.11,-0.31
0.85,-0.15,-0.3
0.92,-0.13,-0.31
0.96,-0.09,-0.33
1,-0.06,-0.34
1.02,-0.1,-0.36
1.02,-0.16,-0.4
0.98,-0.28,-0.4
0.98,-0.31,-0.4
1.05,-0.33,-0.39
1.11,-0.32,-0.37
1.16,-0.26,-0.36
1.21,-0.24,-0.37
1.21,-0.27,-0.37
1.15,-0.31,-0.36
1.08,-0.36,-0.38
1,-0.42,-0.4
1.03,-0.47,-0.39
1.17,-0.49,-0.36
1.25,-0.45,-0.33
1.28,-0.38,-0.33
1.31,-0.4,-0.34
1.31,-0.36,-0.33
1.24,-0.37,-0.32
1.17,-0.46,-0.31
1.13,-0.5,-0.3
1.14,-0.52,-0.29
1.18,-0.52,-0.28
1.22,-0.56,-0.28
1.25,-0.54,-0.26
1.24,-0.54,-0.25
1.24,-0.56,-0.23
1.21,-0.55,-0.21
1.08,-0.6,-0.23
1.07,-0.59,-0.25
1.12,-0.54,-0.25
1.15,-0.5,-0.24
1.14,-0.51,-0.23
1.16,-0.53,-0.2
1.18,-0.56,-0.16
1.14,-0.57,-0.13
1.07,-0.58,-0.13
0.99,-0.61,-0.15
0.9,-0.63,-0.18
0.86,-0.66,-0.2
0.87,-0.68,-0.2
0.89,-0.7,-0.19
0.92,-0.72,-0.17
0.95,-0.71,-0.13
0.96,-0.7,-0.1
0.93,-0.67,-0.11
0.88,-0.66,-0.13
0.76,-0.87,-0.2
0.71,-0.88,-0.22
0.79,-0.63,-0.14
0.8,-0.73,-0.13
0.83,-0.82,-0.12
0.87,-0.74,-0.09
0.86,-0.72,-0.11
0.84,-0.77,-0.12
0.85,-0.71,-0.13
0.83,-0.73,-0.14
0.84,-0.77,-0.14
0.88,-0.76,-0.11
0.89,-0.76,-0.09
0.88,-0.75,-0.08
0.88,-0.74,-0.07
0.87,-0.74,-0.08
0.86,-0.74,-0.09
0.87,-0.74,-0.1
0.87,-0.74,-0.09
0.89,-0.75,-0.08
0.91,-0.75,-0.08
0.91,-0.75,-0.07
0.89,-0.75,-0.07
0.89,-0.75,-0.06
0.9,-0.76,-0.06
0.91,-0.76,-0.07
0.91,-0.76,-0.07
0.92,-0.76,-0.08
0.94,-0.75,-0.07
0.98,-0.73,-0.06
1.01,-0.73,-0.06
1.04,-0.72,-0.06
1.08,-0.72,-0.06
1.1,-0.71,-0.09
1.11,-0.71,-0.1
1.13,-0.71,-0.1
1.16,-0.72,-0.11
1.19,-0.73,-0.11
1.2,-0.73,-0.11
1.21,-0.72,-0.11
1.2,-0.71,-0.13
1.22,-0.7,-0.15
1.24,-0.71,-0.17
1.25,-0.72,-0.18
1.26,-0.73,-0.18
1.28,-0.73,-0.18
1.29,-0.73,-0.18
1.29,-0.72,-0.19
1.27,-0.71,-0.21
1.27,-0.73,-0.21
1.27,-0.74,-0.22
1.26,-0.74,-0.23
1.24,-0.73,-0.24
1.23,-0.72,-0.24
1.22,-0.71,-0.23
1.22,-0.7,-0.24
1.22,-0.7,-0.24
1.22,-0.68,-0.25
1.23,-0.66,-0.26
1.21,-0.64,-0.26
1.17,-0.65,-0.26
1.15,-0.65,-0.25
1.14,-0.63,-0.24
1.13,-0.59,-0.25
1.12,-0.55,-0.26
1.11,-0.52,-0.28
1.12,-0.5,-0.27
1.12,-0.48,-0.25
1.09,-0.46,-0.23
1.06,-0.44,-0.23
1.05,-0.42,-0.25
1.04,-0.4,-0.26
1.04,-0.36,-0.25
1.03,-0.34,-0.24
1.02,-0.32,-0.24
1,-0.29,-0.24
0.99,-0.24,-0.24
0.99,-0.22,-0.25
0.98,-0.21,-0.25
0.96,-0.18,-0.23
0.94,-0.14,-0.22
0.93,-0.08,-0.22
0.92,-0.04,-0.21
0.9,-0.02,-0.2
0.89,0.01,-0.19
0.87,0.07,-0.19
0.85,0.09,-0.21
0.83,0.09,-0.21
0.82,0.16,-0.18
0.81,0.2,-0.16
0.78,0.2,-0.16
0.76,0.22,-0.17
0.74,0.21,-0.16
0.72,0.23,-0.16
0.72,0.31,-0.15
0.71,0.36,-0.17
0.7,0.38,-0.17
0.68,0.36,-0.16
0.66,0.39,-0.17
0.65,0.44,-0.15
0.61,0.39,-0.16
0.59,0.44,-0.15
0.6,0.5,-0.13
0.59,0.51,-0.14
0.55,0.53,-0.15
0.53,0.57,-0.15
0.55,0.6,-0.13
0.52,0.61,-0.13
0.51,0.65,-0.14
0.5,0.65,-0.15
0.47,0.64,-0.15
0.45,0.67,-0.11
0.43,0.64,-0.1
0.43,0.65,-0.08
0.42,0.67,-0.06
0.41,0.67,-0.05
0.37,0.65,-0.05
0.37,0.69,-0.07
0.36,0.68,-0.07
0.34,0.69,-0.05
0.35,0.73,-0.03
0.34,0.72,-0.01
0.34,0.75,-0.01
0.34,0.75,-0.01
0.33,0.76,0.01
0.32,0.77,0.02
0.28,0.76,0.03
0.26,0.77,0.05
0.25,0.77,0.07
0.25,0.75,0.09
0.22,0.72,0.13
0.19,0.71,0.14
0.2,0.75,0.15
0.21,0.77,0.16
0.21,0.79,0.15
0.17,0.78,0.17
0.13,0.74,0.2
0.16,0.76,0.24
0.11,0.74,0.28
0.08,0.76,0.3
0.04,0.75,0.32
0.02,0.77,0.33
0.05,0.82,0.33
0,0.77,0.37
-0.07,0.73,0.42
-0.05,0.75,0.43
-0.07,0.75,0.47
-0.09,0.76,0.5
-0.09,0.76,0.51
-0.07,0.78,0.53
-0.09,0.79,0.53
-0.14,0.76,0.53
-0.15,0.76,0.53
-0.14,0.78,0.56
-0.11,0.8,0.57
-0.11,0.79,0.59
-0.13,0.79,0.61
-0.12,0.79,0.61
-0.11,0.78,0.62
-0.1,0.78,0.62
-0.1,0.78,0.63
-0.09,0.79,0.63
-0.08,0.79,0.63
-0.08,0.79,0.63
-0.05,0.8,0.63
-0.03,0.8,0.61
-0.02,0.8,0.6
-0.01,0.8,0.58
0.01,0.8,0.56
0.01,0.79,0.55
0.02,0.8,0.54
0.03,0.81,0.52
0.03,0.82,0.51
0.04,0.83,0.49
0.05,0.83,0.47
0.06,0.82,0.45
0.07,0.81,0.43
0.08,0.79,0.42
0.09,0.79,0.41
0.1,0.79,0.39
0.11,0.8,0.38
0.11,0.8,0.37
0.11,0.79,0.34
0.11,0.77,0.31
0.12,0.75,0.3
0.12,0.73,0.3
0.14,0.74,0.3
0.16,0.75,0.28
0.17,0.74,0.26
0.18,0.74,0.2
0.2,0.72,0.19
0.2,0.68,0.19
0.2,0.65,0.19
0.2,0.63,0.18
0.22,0.64,0.17
0.25,0.65,0.14
0.28,0.66,0.12
0.3,0.64,0.1
0.32,0.61,0.08
0.33,0.59,0.08
0.32,0.55,0.08
0.35,0.55,0.06
0.38,0.58,0.05
0.41,0.58,0.04
0.45,0.58,0.03
0.49,0.56,0.02
0.52,0.54,0.01
0.54,0.51,0
0.55,0.48,-0.01
0.54,0.44,-0.02
0.56,0.43,-0.02
0.61,0.47,-0.04
0.66,0.49,-0.06
0.67,0.46,-0.08
0.68,0.41,-0.1
0.69,0.35,-0.11
0.71,0.31,-0.15
0.77,0.31,-0.17
0.8,0.31,-0.17
0.83,0.31,-0.18
0.85,0.29,-0.2
0.85,0.26,-0.21
0.84,0.2,-0.21
0.83,0.14,-0.22
0.81,0.11,-0.23
0.82,0.12,-0.25
0.86,0.16,-0.29
0.89,0.19,-0.3
0.92,0.18,-0.31
0.94,0.13,-0.31
0.93,0.07,-0.32
0.92,-0.01,-0.33
0.9,-0.11,-0.35
0.92,-0.13,-0.37
0.97,-0.07,-0.36
1.03,0.02,-0.36
1.08,0.06,-0.37
1.08,-0.02,-0.39
1.06,-0.1,-0.41
1.02,-0.14,-0.43
0.99,-0.18,-0.45
1.02,-0.19,-0.45
1.09,-0.21,-0.39
1.19,-0.21,-0.38
1.22,-0.17,-0.4
1.22,-0.18,-0.41
1.18,-0.23,-0.44
1.1,-0.29,-0.46
1.05,-0.34,-0.49
1.08,-0.34,-0.47
1.16,-0.25,-0.41
1.22,-0.18,-0.41
1.25,-0.2,-0.43
1.25,-0.31,-0.44
1.24,-0.39,-0.44
1.19,-0.42,-0.44
1.13,-0.44,-0.43
1.13,-0.43,-0.43
1.14,-0.43,-0.42
1.15,-0.39,-0.42
1.18,-0.36,-0.4
1.2,-0.36,-0.4
1.21,-0.38,-0.39
1.21,-0.42,-0.38
1.19,-0.45,-0.37
1.11,-0.49,-0.37
1.05,-0.51,-0.39
1.07,-0.5,-0.42
1.1,-0.48,-0.39
1.1,-0.48,-0.36
1.1,-0.49,-0.36
1.09,-0.48,-0.36
1.04,-0.5,-0.37
1.01,-0.53,-0.37
1,-0.54,-0.37
1.04,-0.54,-0.35
1.09,-0.52,-0.33
1.1,-0.53,-0.32
1.1,-0.56,-0.32
1.09,-0.57,-0.32
1.05,-0.57,-0.32
1.01,-0.58,-0.32
0.96,-0.59,-0.33
0.94,-0.6,-0.33
0.97,-0.59,-0.32
1.01,-0.6,-0.31
1.03,-0.6,-0.31
1.04,-0.6,-0.31
1.04,-0.61,-0.33
1.03,-0.62,-0.34
1,-0.63,-0.33
0.99,-0.64,-0.32
0.96,-0.65,-0.31
0.95,-0.65,-0.31
0.96,-0.65,-0.31
1,-0.65,-0.31
1,-0.65,-0.31
1,-0.64,-0.3
1,-0.64,-0.29
0.99,-0.65,-0.26
0.97,-0.65,-0.24
0.95,-0.66,-0.25
0.94,-0.67,-0.26
0.95,-0.67,-0.26
0.96,-0.66,-0.26
0.97,-0.66,-0.24
0.97,-0.66,-0.23
0.98,-0.66,-0.23
0.97,-0.66,-0.24
0.96,-0.66,-0.25
0.97,-0.65,-0.26
0.98,-0.64,-0.27
0.99,-0.63,-0.26
1.01,-0.63,-0.26
1.04,-0.63,-0.25
1.07,-0.63,-0.26
1.08,-0.62,-0.28
1.09,-0.61,-0.29
1.11,-0.6,-0.3
1.15,-0.59,-0.3
1.17,-0.58,-0.31
1.22,-0.57,-0.31
1.25,-0.56,-0.33
1.26,-0.55,-0.34
1.27,-0.55,-0.36
1.27,-0.56,-0.38
1.27,-0.57,-0.38
1.26,-0.57,-0.38
1.26,-0.58,-0.39
1.28,-0.57,-0.39
1.27,-0.57,-0.4
1.25,-0.56,-0.42
1.24,-0.56,-0.43
1.23,-0.56,-0.44
1.23,-0.57,-0.44
1.22,-0.56,-0.45
1.21,-0.56,-0.45
1.19,-0.55,-0.46
1.17,-0.54,-0.47
1.16,-0.54,-0.47
1.15,-0.52,-0.47
1.14,-0.5,-0.47
1.14,-0.49,-0.47
1.15,-0.47,-0.48
1.15,-0.44,-0.48
1.14,-0.42,-0.48
1.14,-0.41,-0.47
1.13,-0.41,-0.47
1.11,-0.4,-0.47
1.09,-0.37,-0.48
1.07,-0.33,-0.46
1.07,-0.29,-0.43
1.07,-0.29,-0.42
1.06,-0.29,-0.42
1.06,-0.27,-0.42
1.05,-0.27,-0.41
1.03,-0.24,-0.4
1.01,-0.2,-0.38
1,-0.17,-0.37
0.99,-0.14,-0.36
0.95,-0.11,-0.34
0.92,-0.1,-0.34
0.92,-0.09,-0.33
0.93,-0.05,-0.31
0.91,-0.01,-0.3
0.89,0.01,-0.29
0.85,0.02,-0.31
0.86,0.08,-0.31
0.87,0.14,-0.29
0.83,0.17,-0.29
0.82,0.18,-0.29
0.79,0.14,-0.28
0.77,0.17,-0.24
0.76,0.26,-0.22
0.74,0.27,-0.23
0.7,0.23,-0.25
0.68,0.24,-0.25
0.69,0.32,-0.27
0.66,0.34,-0.26
0.63,0.31,-0.23
0.62,0.37,-0.22
0.62,0.47,-0.24
0.59,0.48,-0.24
0.53,0.45,-0.22
0.51,0.47,-0.23
0.5,0.51,-0.23
0.53,0.58,-0.22
0.56,0.64,-0.23
0.54,0.65,-0.19
0.53,0.63,-0.14
0.52,0.64,-0.08
0.51,0.67,-0.07
0.49,0.69,-0.08
0.46,0.72,-0.05
0.42,0.68,-0.04
0.43,0.67,-0.04
0.43,0.68,-0.02
0.4,0.66,-0.02
0.41,0.68,0
0.41,0.67,0.04
0.33,0.65,0.05
0.3,0.64,0.06
0.26,0.64,0.08
0.22,0.64,0.09
0.21,0.66,0.1
0.21,0.68,0.12
0.2,0.67,0.15
0.17,0.65,0.21
0.18,0.69,0.23
0.15,0.71,0.23
0.11,0.69,0.25
0.1,0.73,0.26
0.07,0.74,0.31
0.03,0.73,0.37
0.01,0.73,0.4
-0.01,0.69,0.41
-0.03,0.68,0.44
-0.01,0.71,0.46
-0.02,0.71,0.46
-0.05,0.69,0.49
-0.06,0.69,0.51
-0.05,0.71,0.53
-0.05,0.69,0.57
-0.07,0.67,0.61
-0.1,0.67,0.63
-0.12,0.71,0.64
-0.08,0.74,0.65
-0.09,0.72,0.66
-0.09,0.74,0.68
-0.09,0.75,0.69
-0.1,0.73,0.68
-0.1,0.73,0.68
-0.07,0.76,0.69
-0.08,0.75,0.71
-0.1,0.74,0.73
-0.08,0.76,0.72
-0.07,0.76,0.71
-0.07,0.75,0.7
-0.05,0.75,0.68
-0.04,0.76,0.67
-0.03,0.76,0.65
-0.01,0.77,0.63
0,0.78,0.61
0.01,0.8,0.59
0.02,0.8,0.57
0.03,0.8,0.57
0.03,0.8,0.57
0.02,0.8,0.56
0.04,0.81,0.53
0.06,0.82,0.51
0.07,0.83,0.49
0.09,0.84,0.46
0.13,0.84,0.43
0.14,0.84,0.42
0.14,0.83,0.41
0.15,0.82,0.4
0.16,0.82,0.39
0.17,0.84,0.39
0.18,0.85,0.37
0.2,0.85,0.35
0.21,0.84,0.33
0.2,0.82,0.32
0.21,0.8,0.32
0.22,0.79,0.32
0.24,0.8,0.32
0.25,0.81,0.31
0.25,0.81,0.3
0.25,0.82,0.29
0.25,0.81,0.27
0.26,0.79,0.24
0.25,0.77,0.23
0.25,0.75,0.23
0.26,0.74,0.24
0.27,0.74,0.24
0.27,0.74,0.23
0.28,0.76,0.22
0.28,0.74,0.2
0.27,0.72,0.18
0.26,0.69,0.18
0.27,0.69,0.18
0.27,0.67,0.17
0.27,0.66,0.16
0.29,0.67,0.16
0.31,0.67,0.15
0.32,0.66,0.14
0.34,0.66,0.13
0.34,0.64,0.12
0.35,0.63,0.12
0.37,0.62,0.1
0.37,0.6,0.09
0.4,0.6,0.08
0.44,0.6,0.08
0.46,0.59,0.06
0.47,0.59,0.03
0.48,0.57,0.02
0.5,0.53,-0.01
0.52,0.51,-0.05
0.53,0.48,-0.08
0.56,0.48,-0.1
0.61,0.49,-0.12
0.65,0.48,-0.14
0.67,0.46,-0.16
0.68,0.42,-0.19
0.7,0.38,-0.22
0.73,0.37,-0.26
0.79,0.41,-0.29
0.82,0.4,-0.31
0.82,0.34,-0.31
0.8,0.29,-0.31
0.81,0.26,-0.33
0.81,0.23,-0.35
0.8,0.22,-0.36
0.8,0.25,-0.39
0.82,0.24,-0.4
0.85,0.21,-0.41
0.9,0.2,-0.4
0.92,0.18,-0.4
0.93,0.15,-0.39
0.92,0.12,-0.4
0.89,0.09,-0.43
0.84,0.08,-0.45
0.83,0.1,-0.47
0.86,0.1,-0.48
0.89,0.07,-0.47
0.9,0.02,-0.47
0.91,-0.03,-0.46
0.89,-0.05,-0.46
0.87,-0.05,-0.48
0.84,-0.05,-0.51
0.84,-0.04,-0.55
0.88,-0.05,-0.55
0.91,-0.06,-0.54
0.94,-0.12,-0.54
0.96,-0.2,-0.55
0.97,-0.25,-0.55
0.96,-0.25,-0.55
0.96,-0.23,-0.56
0.98,-0.22,-0.55
1.02,-0.2,-0.53
1.05,-0.19,-0.53
1.05,-0.2,-0.54
1.06,-0.26,-0.55
1.06,-0.33,-0.55
1.06,-0.39,-0.54
1.08,-0.41,-0.53
1.08,-0.46,-0.53
1.11,-0.46,-0.51
1.16,-0.41,-0.46
1.16,-0.43,-0.43
1.14,-0.45,-0.44
1.13,-0.45,-0.45
1.1,-0.43,-0.49
1.1,-0.44,-0.53
1.15,-0.45,-0.52
1.19,-0.46,-0.49
1.24,-0.46,-0.45
1.26,-0.46,-0.39
1.21,-0.5,-0.4
1.17,-0.54,-0.42
1.12,-0.56,-0.43
1.08,-0.59,-0.44
1.09,-0.62,-0.46
1.14,-0.6,-0.41
1.19,-0.6,-0.33
1.23,-0.59,-0.28
1.23,-0.54,-0.25
1.17,-0.53,-0.27
1.12,-0.53,-0.3
1.09,-0.52,-0.32
1.09,-0.51,-0.33
1.12,-0.53,-0.3
1.21,-0.53,-0.23
1.31,-0.53,-0.16
1.35,-0.54,-0.11
1.34,-0.54,-0.12
1.33,-0.56,-0.14
1.32,-0.56,-0.16
1.3,-0.56,-0.17
1.28,-0.58,-0.17
1.3,-0.59,-0.15
1.34,-0.58,-0.12
1.36,-0.6,-0.1
1.37,-0.59,-0.12
1.38,-0.58,-0.16
1.38,-0.58,-0.19
1.39,-0.58,-0.2
1.39,-0.58,-0.2
1.39,-0.59,-0.2
1.38,-0.6,-0.21
1.36,-0.6,-0.23
1.34,-0.6,-0.25
1.32,-0.6,-0.26
1.32,-0.61,-0.27
1.31,-0.62,-0.27
1.3,-0.64,-0.28
1.3,-0.65,-0.27
1.31,-0.64,-0.26
1.29,-0.64,-0.26
1.28,-0.64,-0.27
1.27,-0.65,-0.28
1.24,-0.63,-0.29
1.22,-0.62,-0.3
1.22,-0.62,-0.31
1.22,-0.62,-0.32
1.21,-0.62,-0.32
1.18,-0.61,-0.32
1.17,-0.58,-0.31
1.17,-0.57,-0.3
1.17,-0.56,-0.27
1.14,-0.54,-0.27
1.14,-0.5,-0.28
1.14,-0.46,-0.29
1.14,-0.43,-0.3
1.14,-0.42,-0.29
1.13,-0.43,-0.28
1.11,-0.43,-0.27
1.11,-0.41,-0.26
1.11,-0.4,-0.25
1.1,-0.37,-0.24
1.09,-0.34,-0.23
1.08,-0.31,-0.23
1.06,-0.28,-0.24
1.06,-0.25,-0.25
1.04,-0.22,-0.25
1.03,-0.2,-0.24
1.02,-0.19,-0.24
1,-0.16,-0.24
0.98,-0.11,-0.23
0.98,-0.06,-0.21
0.99,-0.03,-0.19
0.98,-0.01,-0.19
0.97,0,-0.19
0.93,0.01,-0.2
0.91,0.03,-0.2
0.89,0.06,-0.19
0.86,0.19,-0.19
0.85,0.17,-0.2
0.82,0.16,-0.21
0.8,0.19,-0.19
0.78,0.22,-0.17
0.78,0.26,-0.16
0.77,0.31,-0.16
0.75,0.31,-0.18
0.72,0.32,-0.18
0.7,0.39,-0.17
0.65,0.36,-0.19
0.61,0.32,-0.19
0.61,0.38,-0.18
0.6,0.41,-0.18
0.58,0.46,-0.18
0.55,0.46,-0.18
0.56,0.52,-0.14
0.58,0.61,-0.13
0.52,0.57,-0.16
0.5,0.56,-0.14
0.52,0.62,-0.11
0.52,0.64,-0.12
0.5,0.62,-0.14
0.49,0.63,-0.11
0.48,0.66,-0.1
0.5,0.72,-0.06
0.47,0.72,-0.05
0.47,0.73,-0.06
0.44,0.71,-0.05
0.41,0.71,-0.03
0.42,0.75,-0.01
0.4,0.75,0.01
0.4,0.76,0.03
0.36,0.75,0.02
0.33,0.74,0.03
0.34,0.76,0.05
0.34,0.78,0.05
0.32,0.77,0.07
0.29,0.75,0.08
0.26,0.73,0.08
0.26,0.74,0.09
0.28,0.77,0.1
0.23,0.73,0.14
0.17,0.69,0.17
0.16,0.71,0.17
0.14,0.71,0.17
0.13,0.71,0.18
0.19,0.75,0.18
0.13,0.7,0.17
0.05,0.66,0.21
0.08,0.69,0.26
0.09,0.7,0.32
-0.02,0.72,0.28
-0.02,0.76,0.27
-0.11,0.75,0.33
-0.22,0.7,0.41
-0.19,0.73,0.45
-0.1,0.78,0.44
-0.2,0.7,0.48
-0.33,0.64,0.52
-0.25,0.68,0.52
-0.24,0.68,0.54
-0.29,0.67,0.57
-0.35,0.66,0.6
-0.39,0.66,0.61
-0.36,0.7,0.63
-0.33,0.69,0.64
-0.36,0.66,0.65
-0.36,0.69,0.67
-0.37,0.69,0.68
-0.37,0.69,0.69
-0.35,0.7,0.7
-0.35,0.7,0.72
-0.36,0.7,0.74
-0.36,0.71,0.76
-0.34,0.72,0.77
-0.33,0.72,0.76
-0.31,0.72,0.75
-0.27,0.73,0.75
-0.25,0.73,0.74
-0.24,0.72,0.74
-0.24,0.72,0.73
-0.23,0.72,0.72
-0.22,0.73,0.71
-0.22,0.74,0.71
-0.21,0.75,0.7
-0.2,0.76,0.69
-0.19,0.76,0.67
-0.18,0.76,0.63
-0.17,0.76,0.6
-0.16,0.75,0.6
-0.14,0.76,0.59
-0.13,0.78,0.58
-0.12,0.79,0.57
-0.12,0.79,0.55
-0.11,0.78,0.53
-0.11,0.77,0.51
-0.09,0.76,0.49
-0.09,0.76,0.48
-0.08,0.76,0.47
-0.05,0.76,0.45
-0.03,0.77,0.42
-0.01,0.77,0.4
0,0.76,0.37
0.02,0.74,0.32
0.03,0.74,0.32
0.05,0.73,0.32
0.08,0.74,0.3
0.08,0.75,0.29
0.09,0.75,0.26
0.09,0.74,0.23
0.09,0.71,0.22
0.11,0.7,0.21
0.12,0.7,0.21
0.14,0.7,0.21
0.18,0.71,0.19
0.21,0.73,0.17
0.22,0.73,0.17
0.22,0.7,0.16
0.21,0.68,0.15
0.22,0.67,0.14
0.23,0.64,0.14
0.24,0.64,0.14
0.26,0.64,0.14
0.28,0.63,0.13
0.31,0.61,0.12
0.33,0.59,0.1
0.35,0.57,0.09
0.37,0.54,0.1
0.39,0.55,0.08
0.41,0.55,0.02
0.43,0.54,-0.02
0.45,0.52,-0.04
0.46,0.47,-0.05
0.48,0.44,-0.02
0.51,0.45,-0.02
0.54,0.46,-0.05
0.56,0.44,-0.07
0.58,0.42,-0.1
0.59,0.38,-0.13
0.61,0.33,-0.13
0.63,0.28,-0.14
0.66,0.27,-0.15
0.71,0.31,-0.17
0.76,0.33,-0.2
0.79,0.3,-0.23
0.81,0.26,-0.25
0.84,0.19,-0.25
0.86,0.14,-0.26
0.89,0.12,-0.27
0.91,0.1,-0.28
0.93,0.11,-0.3
0.94,0.11,-0.32
0.93,0.09,-0.33
0.94,0.09,-0.35
0.97,0.06,-0.36
0.99,0,-0.33
1.06,-0.03,-0.35
1.05,-0.02,-0.38
1.03,-0.01,-0.4
1.03,0.01,-0.42
1.02,-0.01,-0.43
1.01,-0.07,-0.43
1.02,-0.16,-0.44
1.05,-0.25,-0.43
1.11,-0.29,-0.44
1.15,-0.26,-0.44
1.18,-0.18,-0.44
1.18,-0.14,-0.45
1.14,-0.16,-0.45
1.11,-0.18,-0.47
1.09,-0.2,-0.48
1.12,-0.24,-0.48
1.16,-0.24,-0.49
1.17,-0.23,-0.48
1.17,-0.26,-0.47
1.17,-0.32,-0.47
1.18,-0.35,-0.46
1.15,-0.4,-0.44
1.09,-0.43,-0.45
1.07,-0.42,-0.47
1.1,-0.38,-0.47
1.13,-0.32,-0.49
1.17,-0.36,-0.49
1.2,-0.42,-0.47
1.24,-0.48,-0.43
1.23,-0.53,-0.41
1.2,-0.54,-0.42
1.15,-0.53,-0.42
1.12,-0.51,-0.43
1.13,-0.5,-0.42
1.12,-0.51,-0.39
1.13,-0.53,-0.36
1.15,-0.57,-0.35
1.15,-0.57,-0.35
1.16,-0.57,-0.33
1.18,-0.56,-0.32
1.18,-0.54,-0.32
1.15,-0.52,-0.32
1.1,-0.52,-0.32
1.08,-0.56,-0.31
1.07,-0.59,-0.3
1.05,-0.62,-0.31
1.03,-0.65,-0.3
1.05,-0.65,-0.27
1.07,-0.64,-0.25
1.08,-0.62,-0.25
1.07,-0.6,-0.26
1.06,-0.61,-0.27
1.02,-0.65,-0.26
1.02,-0.67,-0.26
1.06,-0.68,-0.25
1.09,-0.68,-0.22
1.1,-0.68,-0.2
1.1,-0.67,-0.19
1.09,-0.66,-0.19
1.09,-0.65,-0.19
1.1,-0.64,-0.19
1.14,-0.64,-0.18
1.17,-0.64,-0.16
1.19,-0.63,-0.16
1.21,-0.62,-0.17
1.24,-0.61,-0.17
1.25,-0.59,-0.18
1.26,-0.59,-0.18
1.28,-0.6,-0.18
1.28,-0.6,-0.18
1.28,-0.6,-0.2
1.29,-0.59,-0.23
1.29,-0.59,-0.24
1.29,-0.59,-0.26
1.31,-0.61,-0.28
1.33,-0.62,-0.29
1.33,-0.62,-0.3
1.34,-0.61,-0.3
1.34,-0.62,-0.31
1.33,-0.64,-0.33
1.32,-0.64,-0.34
1.34,-0.64,-0.34
1.37,-0.63,-0.34
1.38,-0.62,-0.34
1.38,-0.61,-0.34
1.37,-0.6,-0.34
1.36,-0.61,-0.34
1.34,-0.61,-0.35
1.33,-0.61,-0.37
1.33,-0.61,-0.37
1.34,-0.59,-0.36
1.33,-0.57,-0.35
1.34,-0.57,-0.35
1.33,-0.56,-0.35
1.31,-0.56,-0.36
1.28,-0.55,-0.36
1.26,-0.54,-0.36
1.22,-0.54,-0.37
1.18,-0.54,-0.37
1.15,-0.52,-0.35
1.14,-0.48,-0.34
1.13,-0.44,-0.33
1.12,-0.41,-0.34
1.11,-0.41,-0.35
1.06,-0.39,-0.36
1.02,-0.35,-0.36
0.99,-0.31,-0.36
1,-0.22,-0.36
0.9,-0.24,-0.35
0.86,-0.25,-0.35
0.9,-0.18,-0.33
0.88,-0.21,-0.31
0.87,-0.18,-0.27
0.87,-0.06,-0.27
0.86,0.02,-0.29
0.85,0.11,-0.31
0.78,0.04,-0.33
0.77,-0.02,-0.28
0.81,0.07,-0.25
0.79,0.12,-0.24
0.77,0.18,-0.21
0.77,0.24,-0.2
0.79,0.31,-0.2
0.82,0.38,-0.18
0.78,0.28,-0.19
0.76,0.26,-0.18
0.78,0.37,-0.16
0.73,0.37,-0.16
0.7,0.35,-0.15
0.69,0.42,-0.15
0.65,0.57,-0.08
0.68,0.61,-0.08
0.63,0.58,-0.09
0.61,0.59,-0.11
0.58,0.53,-0.18
0.57,0.53,-0.16
0.53,0.51,-0.12
0.52,0.55,-0.12
0.49,0.55,-0.08
0.44,0.57,-0.06
0.47,0.62,-0.07
0.45,0.62,-0.07
0.39,0.61,-0.06
0.36,0.61,-0.07
0.36,0.64,-0.07
0.35,0.66,-0.07
0.32,0.67,-0.05
0.29,0.66,-0.03
0.3,0.67,-0.02
0.3,0.71,0.02
0.28,0.75,0.05
0.23,0.76,0.04
0.17,0.71,0.05
0.18,0.7,0.07
0.2,0.71,0.08
0.22,0.74,0.09
0.19,0.74,0.16
0.17,0.74,0.17
0.17,0.73,0.16
0.14,0.71,0.15
0.09,0.71,0.19
0.07,0.73,0.23
0.08,0.76,0.26
0.07,0.76,0.27
0.05,0.75,0.27
0.03,0.73,0.26
0,0.67,0.26
-0.02,0.67,0.29
-0.02,0.71,0.32
-0.02,0.71,0.34
-0.04,0.73,0.37
-0.09,0.7,0.4
-0.15,0.66,0.42
-0.16,0.68,0.43
-0.17,0.67,0.46
-0.17,0.69,0.5
-0.18,0.69,0.52
-0.14,0.73,0.56
-0.15,0.74,0.61
-0.22,0.68,0.63
-0.25,0.69,0.63
-0.28,0.69,0.65
-0.31,0.65,0.73
-0.31,0.68,0.77
-0.3,0.68,0.81
-0.3,0.68,0.84
-0.3,0.68,0.87
-0.29,0.69,0.9
-0.26,0.69,0.92
-0.24,0.69,0.93
-0.23,0.68,0.93
-0.21,0.67,0.92
-0.2,0.67,0.9
-0.19,0.66,0.89
-0.18,0.65,0.87
-0.17,0.65,0.86
-0.17,0.66,0.83
-0.17,0.67,0.8
-0.16,0.69,0.78
-0.15,0.69,0.75
-0.14,0.7,0.71
-0.13,0.7,0.67
-0.12,0.69,0.64
-0.1,0.7,0.61
-0.1,0.7,0.57
-0.09,0.69,0.54
-0.07,0.69,0.51
-0.06,0.69,0.49
-0.04,0.69,0.4
-0.03,0.68,0.36
0.01,0.67,0.34
0.02,0.66,0.31
0.06,0.66,0.27
0.08,0.65,0.23
0.08,0.63,0.21
0.09,0.64,0.19
0.1,0.64,0.16
0.14,0.65,0.15
0.18,0.65,0.13
0.2,0.65,0.12
0.21,0.65,0.11
0.23,0.63,0.07
0.26,0.6,0.05
0.29,0.57,0.03
0.32,0.54,0.02
0.34,0.53,0.01
0.38,0.54,0.02
0.43,0.56,0.02
0.47,0.59,-0.01
0.47,0.56,-0.03
0.46,0.5,-0.05
0.46,0.44,-0.06
0.51,0.41,-0.09
0.53,0.39,-0.12
0.54,0.4,-0.14
0.61,0.45,-0.21
0.62,0.43,-0.24
0.61,0.39,-0.26
0.6,0.34,-0.29
0.59,0.32,-0.31
0.6,0.32,-0.32
0.62,0.35,-0.35
0.65,0.37,-0.39
0.66,0.34,-0.43
0.69,0.29,-0.47
0.72,0.24,-0.47
0.75,0.19,-0.46
0.79,0.18,-0.45
0.82,0.18,-0.45
0.83,0.17,-0.45
0.84,0.17,-0.47
0.84,0.18,-0.49
0.83,0.16,-0.5
0.83,0.13,-0.51
0.85,0.12,-0.53
0.87,0.09,-0.55
0.89,0.04,-0.56
0.93,0,-0.58
0.98,-0.02,-0.6
1.03,0,-0.62
1.06,0.02,-0.66
1.03,-0.03,-0.66
1,-0.05,-0.66
0.94,-0.09,-0.67
0.92,-0.09,-0.67
0.94,-0.06,-0.68
0.99,-0.04,-0.69
1.03,-0.08,-0.69
1.05,-0.13,-0.7
1.08,-0.17,-0.69
1.11,-0.21,-0.66
1.09,-0.23,-0.65
1,-0.26,-0.65
0.93,-0.29,-0.67
0.95,-0.29,-0.68
1.02,-0.24,-0.66
1.05,-0.2,-0.63
1.09,-0.21,-0.58
1.12,-0.24,-0.57
1.13,-0.27,-0.57
1.08,-0.29,-0.56
0.99,-0.32,-0.57
0.95,-0.35,-0.59
0.95,-0.36,-0.61
0.99,-0.38,-0.62
1.01,-0.39,-0.6
1.02,-0.42,-0.58
1.12,-0.48,-0.54
1.11,-0.49,-0.53
1.06,-0.51,-0.56
1.04,-0.5,-0.6
1.03,-0.48,-0.62
1.05,-0.47,-0.62
1.08,-0.47,-0.59
1.12,-0.47,-0.53
1.19,-0.48,-0.49
1.22,-0.5,-0.48
1.19,-0.51,-0.48
1.16,-0.52,-0.49
1.13,-0.52,-0.53
1.07,-0.52,-0.54
1.04,-0.53,-0.53
1.05,-0.53,-0.5
1.1,-0.55,-0.46
1.16,-0.56,-0.41
1.18,-0.57,-0.4
1.16,-0.59,-0.41
1.12,-0.58,-0.45
1.08,-0.57,-0.47
1.07,-0.57,-0.46
1.07,-0.58,-0.44
1.09,-0.57,-0.41
1.1,-0.57,-0.4
1.09,-0.58,-0.35
1.09,-0.58,-0.35
1.07,-0.58,-0.36
1.06,-0.58,-0.37
1.06,-0.59,-0.37
1.09,-0.59,-0.37
1.09,-0.59,-0.35
1.09,-0.6,-0.33
1.1,-0.59,-0.32
1.12,-0.6,-0.34
1.12,-0.62,-0.36
1.14,-0.61,-0.36
1.16,-0.6,-0.37
1.18,-0.58,-0.37
1.2,-0.56,-0.37
1.23,-0.53,-0.38
1.26,-0.52,-0.39
1.3,-0.51,-0.41
1.33,-0.5,-0.44
1.35,-0.5,-0.45
1.39,-0.51,-0.46
1.41,-0.5,-0.48
1.4,-0.51,-0.49
1.39,-0.52,-0.51
1.38,-0.54,-0.52
1.37,-0.56,-0.54
1.36,-0.58,-0.55
1.33,-0.58,-0.55
1.31,-0.57,-0.57
1.29,-0.57,-0.58
1.27,-0.57,-0.58
1.24,-0.57,-0.58
1.22,-0.57,-0.59
1.21,-0.56,-0.59
1.2,-0.55,-0.59
1.2,-0.55,-0.58
1.21,-0.54,-0.58
1.22,-0.51,-0.59
1.21,-0.5,-0.58
1.18,-0.49,-0.58
1.17,-0.46,-0.59
1.15,-0.44,-0.59
1.16,-0.42,-0.57
1.18,-0.41,-0.54
1.15,-0.41,-0.54
1.14,-0.38,-0.55
1.11,-0.36,-0.54
1.1,-0.36,-0.55
1.08,-0.35,-0.56
1.07,-0.31,-0.54
1.06,-0.3,-0.52
1.03,-0.3,-0.5
0.99,-0.29,-0.48
0.93,-0.21,-0.47
0.91,-0.17,-0.45
0.92,-0.14,-0.43
0.9,-0.11,-0.42
0.87,-0.08,-0.43
0.84,-0.06,-0.43
0.84,-0.02,-0.41
0.84,0.03,-0.39
0.8,0.06,-0.37
0.77,0.1,-0.35
0.75,0.13,-0.32
0.74,0.15,-0.3
0.73,0.17,-0.3
0.72,0.23,-0.29
0.7,0.25,-0.27
0.69,0.27,-0.27
0.67,0.33,-0.27
0.63,0.32,-0.29
0.6,0.32,-0.26
0.69,0.45,-0.21
0.64,0.46,-0.2
0.52,0.41,-0.16
0.55,0.46,-0.15
0.57,0.52,-0.16
0.57,0.55,-0.17
0.52,0.5,-0.15
0.51,0.51,-0.12
0.51,0.54,-0.11
0.51,0.59,-0.09
0.47,0.59,-0.06
0.45,0.64,-0.05
0.39,0.65,-0.01
0.34,0.62,0.03
0.32,0.62,0.03
0.3,0.62,0.06
0.3,0.63,0.07
0.28,0.6,0.08
0.26,0.6,0.1
0.26,0.64,0.11
0.27,0.65,0.12
0.21,0.61,0.15
0.15,0.58,0.16
0.13,0.61,0.19
0.12,0.63,0.22
0.13,0.65,0.24
0.13,0.67,0.26
0.06,0.63,0.28
0.03,0.63,0.28
0.06,0.65,0.29
0.03,0.61,0.32
0,0.6,0.35
-0.01,0.64,0.34
-0.04,0.65,0.39
0.01,0.69,0.43
0.01,0.68,0.46
-0.03,0.65,0.5
-0.11,0.6,0.53
-0.16,0.6,0.57
-0.14,0.63,0.61
-0.13,0.65,0.64
-0.13,0.66,0.66
-0.16,0.66,0.68
-0.19,0.66,0.7
-0.2,0.64,0.72
-0.22,0.61,0.75
-0.21,0.61,0.78
-0.24,0.59,0.81
-0.25,0.59,0.83
-0.22,0.64,0.84
-0.2,0.65,0.84
-0.22,0.64,0.85
-0.22,0.64,0.86
-0.21,0.65,0.87
-0.21,0.65,0.87
-0.2,0.67,0.88
-0.18,0.67,0.87
-0.17,0.67,0.87
-0.15,0.68,0.86
-0.13,0.68,0.85
-0.12,0.68,0.85
-0.11,0.67,0.84
-0.11,0.67,0.82
-0.1,0.67,0.8
-0.09,0.68,0.79
-0.07,0.7,0.77
-0.06,0.71,0.74
-0.03,0.71,0.72
-0.01,0.71,0.7
0.01,0.72,0.69
0,0.71,0.66
0,0.7,0.63
0,0.7,0.61
0,0.69,0.61
0.02,0.71,0.58
0.06,0.71,0.55
0.07,0.7,0.53
0.08,0.7,0.49
0.09,0.68,0.47
0.11,0.67,0.45
0.11,0.66,0.44
0.12,0.68,0.41
0.15,0.69,0.35
0.15,0.67,0.33
0.15,0.65,0.3
0.13,0.62,0.27
0.2,0.64,0.24
0.21,0.62,0.22
0.22,0.6,0.2
0.22,0.59,0.18
0.25,0.6,0.16
0.26,0.58,0.13
0.27,0.55,0.11
0.29,0.54,0.09
0.32,0.54,0.08
0.34,0.52,0.06
0.34,0.49,0.04
0.37,0.5,0.04
0.42,0.54,0.03
0.44,0.55,0.03
0.48,0.54,0.01
0.49,0.5,-0.05
0.46,0.45,-0.08
0.47,0.41,-0.09
0.51,0.4,-0.11
0.59,0.41,-0.15
0.64,0.42,-0.18
0.69,0.43,-0.22
0.72,0.42,-0.28
0.73,0.39,-0.31
0.73,0.35,-0.32
0.71,0.29,-0.34
0.68,0.32,-0.36
0.7,0.37,-0.38
0.74,0.39,-0.4
0.77,0.34,-0.43
0.78,0.25,-0.43
0.79,0.18,-0.42
0.79,0.14,-0.42
0.75,0.11,-0.44
0.75,0.12,-0.48
0.78,0.16,-0.51
0.8,0.2,-0.52
0.83,0.16,-0.52
0.87,0.08,-0.5
0.88,0,-0.48
0.87,-0.05,-0.46
0.85,-0.08,-0.45
0.82,-0.08,-0.45
0.82,-0.05,-0.46
0.86,-0.02,-0.48
0.91,0.03,-0.5
0.96,0.01,-0.52
1.01,-0.06,-0.54
1.04,-0.13,-0.56
1.03,-0.17,-0.57
1.01,-0.2,-0.56
1.02,-0.22,-0.58
1.08,-0.21,-0.58
1.11,-0.18,-0.56
1.13,-0.17,-0.56
1.15,-0.2,-0.58
1.16,-0.26,-0.58
1.16,-0.32,-0.51
1.16,-0.34,-0.48
1.16,-0.34,-0.51
1.15,-0.35,-0.51
1.16,-0.37,-0.51
1.19,-0.38,-0.52
1.22,-0.39,-0.51
1.22,-0.43,-0.48
1.2,-0.49,-0.44
1.19,-0.51,-0.41
1.2,-0.5,-0.41
1.21,-0.49,-0.42
1.21,-0.47,-0.43
1.22,-0.44,-0.42
1.22,-0.45,-0.41
1.23,-0.46,-0.41
1.22,-0.48,-0.42
1.22,-0.5,-0.42
1.21,-0.51,-0.39
1.2,-0.54,-0.36
1.22,-0.55,-0.33
1.21,-0.55,-0.35
1.2,-0.57,-0.32
1.2,-0.59,-0.29
1.17,-0.61,-0.27
1.15,-0.6,-0.29
1.18,-0.57,-0.3
1.24,-0.55,-0.27
1.29,-0.56,-0.23
1.32,-0.56,-0.18
1.32,-0.57,-0.14
1.33,-0.57,-0.14
1.34,-0.56,-0.16
1.34,-0.55,-0.17
1.35,-0.55,-0.19
1.37,-0.55,-0.19
1.4,-0.55,-0.17
1.42,-0.55,-0.14
1.42,-0.55,-0.13
1.42,-0.55,-0.14
1.42,-0.54,-0.17
1.42,-0.54,-0.19
1.41,-0.54,-0.21
1.39,-0.55,-0.22
1.39,-0.56,-0.21
1.39,-0.56,-0.21
1.38,-0.57,-0.24
1.37,-0.56,-0.26
1.36,-0.56,-0.28
1.37,-0.56,-0.3
1.38,-0.56,-0.3
1.37,-0.56,-0.3
1.36,-0.58,-0.31
1.33,-0.58,-0.33
1.32,-0.57,-0.35
1.31,-0.56,-0.35
1.31,-0.55,-0.36
1.31,-0.56,-0.37
1.3,-0.57,-0.38
1.3,-0.58,-0.4
1.3,-0.56,-0.41
1.3,-0.53,-0.41
1.29,-0.5,-0.41
1.29,-0.48,-0.4
1.29,-0.48,-0.42
1.28,-0.48,-0.44
1.26,-0.49,-0.46
1.25,-0.51,-0.45
1.25,-0.5,-0.43
1.24,-0.47,-0.42
1.22,-0.44,-0.43
1.2,-0.42,-0.44
1.17,-0.41,-0.44
1.11,-0.41,-0.43
1.1,-0.38,-0.42
1.09,-0.34,-0.41
1.06,-0.3,-0.4
1.03,-0.26,-0.39
1.02,-0.25,-0.39
1.02,-0.24,-0.39
0.99,-0.21,-0.39
0.95,-0.17,-0.39
0.94,-0.14,-0.38
0.94,-0.1,-0.37
0.91,-0.07,-0.36
0.89,-0.03,-0.35
0.86,0,-0.34
0.83,0.03,-0.33
0.81,0.07,-0.32
0.79,0.1,-0.3
0.79,0.15,-0.29
0.77,0.18,-0.29
0.75,0.18,-0.28
0.74,0.2,-0.27
0.72,0.24,-0.26
0.69,0.26,-0.28
0.67,0.28,-0.29
0.64,0.31,-0.27
0.64,0.32,-0.29
0.64,0.37,-0.24
0.63,0.4,-0.24
0.63,0.44,-0.25
0.56,0.47,-0.21
0.49,0.51,-0.12
0.48,0.55,-0.07
0.49,0.61,-0.06
0.47,0.59,-0.07
0.45,0.56,-0.1
0.46,0.61,-0.07
0.43,0.61,-0.03
0.43,0.62,-0.02
0.46,0.68,-0.01
0.46,0.69,-0.02
0.45,0.7,-0.02
0.44,0.72,-0.02
0.44,0.72,-0.02
0.38,0.68,-0.03
0.31,0.63,0
0.29,0.64,0.04
0.25,0.63,0.05
0.21,0.61,0.1
0.17,0.57,0.14
0.21,0.59,0.14
0.25,0.65,0.16
0.24,0.69,0.17
0.2,0.65,0.18
0.14,0.63,0.17
0.03,0.61,0.19
0.01,0.59,0.26
0.02,0.61,0.28
0.02,0.63,0.31
-0.06,0.6,0.37
-0.14,0.61,0.4
-0.11,0.69,0.41
-0.12,0.69,0.41
-0.11,0.66,0.41
-0.06,0.65,0.45
-0.12,0.6,0.49
-0.19,0.58,0.52
-0.19,0.61,0.54
-0.21,0.61,0.56
-0.24,0.61,0.6
-0.25,0.62,0.63
-0.27,0.62,0.65
-0.29,0.61,0.68
-0.29,0.62,0.7
-0.27,0.63,0.69
-0.26,0.63,0.72
-0.25,0.64,0.75
-0.27,0.63,0.79
-0.28,0.63,0.83
-0.29,0.62,0.87
-0.32,0.63,0.88
-0.31,0.64,0.89
-0.3,0.64,0.9
-0.29,0.64,0.9
-0.29,0.63,0.91
-0.28,0.63,0.92
-0.26,0.63,0.92
-0.27,0.63,0.91
-0.27,0.62,0.9
-0.27,0.61,0.9
-0.26,0.61,0.88
-0.25,0.62,0.87
-0.24,0.62,0.85
-0.23,0.62,0.85
-0.23,0.63,0.84
-0.23,0.64,0.82
-0.23,0.65,0.8
-0.21,0.65,0.78
-0.2,0.65,0.75
-0.18,0.65,0.73
-0.17,0.65,0.71
-0.16,0.64,0.68
-0.15,0.63,0.65
-0.14,0.62,0.62
-0.13,0.61,0.59
-0.13,0.61,0.54
-0.11,0.64,0.51
-0.08,0.64,0.48
-0.08,0.61,0.44
-0.06,0.59,0.41
-0.04,0.58,0.39
-0.01,0.59,0.38
0.02,0.61,0.36
0.02,0.61,0.33
0.04,0.6,0.29
0.07,0.61,0.26
0.07,0.58,0.24
0.08,0.53,0.22
0.09,0.5,0.21
0.13,0.5,0.22
0.18,0.53,0.22
0.23,0.53,0.2
0.27,0.51,0.16
0.28,0.49,0.13
0.28,0.45,0.12
0.29,0.41,0.09
0.3,0.37,0.08
0.35,0.34,0.08
0.42,0.35,0.03
0.47,0.35,0.02
0.53,0.35,0.02
0.57,0.37,-0.07
0.59,0.35,-0.13
0.59,0.32,-0.15
0.6,0.27,-0.16
0.62,0.23,-0.19
0.65,0.22,-0.23
0.7,0.22,-0.24
0.73,0.24,-0.23
0.77,0.25,-0.24
0.79,0.23,-0.25
0.84,0.23,-0.26
0.89,0.18,-0.27
0.88,0.11,-0.3
0.86,0.09,-0.33
0.88,0.12,-0.37
0.91,0.15,-0.39
0.94,0.14,-0.39
0.96,0.09,-0.4
0.99,0.04,-0.41
1.02,-0.02,-0.44
1.06,-0.07,-0.47
1.04,-0.08,-0.49
0.99,-0.1,-0.53
0.99,-0.08,-0.57
1.06,-0.01,-0.59
1.12,0.06,-0.64
1.12,0.02,-0.65
1.06,-0.17,-0.63
1.03,-0.25,-0.61
1.01,-0.28,-0.61
1.04,-0.27,-0.63
1.07,-0.21,-0.65
1.09,-0.12,-0.66
1.12,-0.11,-0.66
1.14,-0.18,-0.66
1.15,-0.27,-0.65
1.13,-0.34,-0.63
1.1,-0.4,-0.65
1.08,-0.43,-0.67
1.12,-0.43,-0.66
1.18,-0.39,-0.64
1.21,-0.34,-0.63
1.22,-0.33,-0.63
1.22,-0.38,-0.61
1.22,-0.44,-0.61
1.24,-0.46,-0.64
1.25,-0.45,-0.63
1.27,-0.43,-0.62
1.3,-0.42,-0.62
1.31,-0.42,-0.63
1.31,-0.41,-0.62
1.31,-0.42,-0.6
1.31,-0.44,-0.57
1.31,-0.47,-0.57
1.32,-0.47,-0.56
1.32,-0.48,-0.55
1.33,-0.5,-0.53
1.36,-0.49,-0.5
1.37,-0.48,-0.48
1.4,-0.46,-0.47
1.42,-0.44,-0.46
1.43,-0.43,-0.45
1.44,-0.42,-0.44
1.47,-0.43,-0.43
1.5,-0.44,-0.42
1.51,-0.44,-0.4
1.51,-0.44,-0.38
1.53,-0.45,-0.35
1.54,-0.45,-0.35
1.53,-0.44,-0.37
1.53,-0.45,-0.39
1.51,-0.46,-0.42
1.49,-0.48,-0.43
1.47,-0.49,-0.42
1.45,-0.49,-0.41
1.44,-0.48,-0.4
1.44,-0.48,-0.4
1.44,-0.49,-0.41
1.42,-0.49,-0.42
1.4,-0.5,-0.45
1.37,-0.51,-0.47
1.36,-0.53,-0.47
1.35,-0.54,-0.49
1.36,-0.53,-0.49
1.37,-0.52,-0.48
1.37,-0.51,-0.47
1.37,-0.5,-0.46
1.37,-0.5,-0.47
1.35,-0.51,-0.49
1.33,-0.51,-0.5
1.3,-0.51,-0.52
1.29,-0.51,-0.52
1.31,-0.5,-0.51
1.31,-0.48,-0.51
1.29,-0.45,-0.49
1.26,-0.44,-0.47
1.23,-0.43,-0.47
1.19,-0.43,-0.48
1.17,-0.43,-0.49
1.15,-0.42,-0.49
1.12,-0.39,-0.5
1.09,-0.34,-0.5
1.08,-0.3,-0.5
1.07,-0.27,-0.49
1.05,-0.26,-0.49
0.99,-0.23,-0.47
0.94,-0.22,-0.47
0.91,-0.17,-0.46
0.87,-0.12,-0.45
0.83,-0.1,-0.45
0.8,-0.08,-0.44
0.78,-0.05,-0.43
0.75,0.01,-0.41
0.74,0.1,-0.39
0.74,0.16,-0.39
0.75,0.18,-0.39
0.73,0.18,-0.37
0.7,0.19,-0.35
0.67,0.21,-0.35
0.65,0.23,-0.35
0.61,0.26,-0.34
0.58,0.28,-0.31
0.55,0.28,-0.29
0.55,0.29,-0.27
0.56,0.31,-0.27
0.54,0.35,-0.25
0.52,0.38,-0.25
0.51,0.41,-0.25
0.52,0.47,-0.23
0.51,0.5,-0.2
0.49,0.52,-0.16
0.46,0.55,-0.12
0.35,0.56,-0.11
0.32,0.59,-0.11
0.35,0.67,-0.07
0.34,0.73,-0.03
0.25,0.73,0
0.25,0.76,-0.01
0.29,0.79,-0.02
0.22,0.7,0
0.18,0.66,0
0.25,0.71,-0.01
0.26,0.74,0.02
0.23,0.68,0.08
0.23,0.69,0.07
0.18,0.69,0.08
0.24,0.67,0.09
0.22,0.63,0.09
0.15,0.62,0.13
0.22,0.7,0.11
0.25,0.69,0.12
0.15,0.64,0.18
0.16,0.7,0.18
0.17,0.72,0.1
0.07,0.63,0.16
0.03,0.59,0.25
-0.04,0.57,0.26
-0.11,0.58,0.32
-0.03,0.65,0.35
-0.01,0.66,0.34
-0.11,0.61,0.38
-0.24,0.57,0.42
-0.29,0.58,0.46
-0.41,0.57,0.49
-0.5,0.54,0.52
-0.6,0.51,0.59
-0.64,0.53,0.62
-0.62,0.55,0.61
-0.61,0.58,0.63
-0.57,0.59,0.65
-0.52,0.59,0.66
-0.51,0.55,0.7
-0.58,0.51,0.78
-0.62,0.5,0.81
-0.64,0.5,0.79
-0.69,0.49,0.78
-0.74,0.48,0.8
-0.73,0.49,0.84
-0.7,0.5,0.86
-0.67,0.51,0.87
-0.65,0.51,0.89
-0.65,0.51,0.89
-0.64,0.52,0.89
-0.64,0.53,0.89
-0.65,0.55,0.89
-0.64,0.55,0.88
-0.62,0.55,0.86
-0.6,0.55,0.83
-0.57,0.55,0.8
-0.54,0.55,0.77
-0.49,0.56,0.74
-0.46,0.57,0.74
-0.45,0.58,0.73
-0.41,0.59,0.68
-0.37,0.61,0.64
-0.36,0.6,0.61
-0.36,0.59,0.58
-0.35,0.58,0.55
-0.32,0.58,0.51
-0.26,0.58,0.46
-0.22,0.59,0.43
-0.19,0.58,0.41
-0.15,0.57,0.37
-0.12,0.57,0.33
-0.13,0.55,0.31
-0.12,0.54,0.31
-0.1,0.53,0.31
-0.05,0.53,0.29
0,0.52,0.24
0.03,0.53,0.16
0.06,0.49,0.14
0.08,0.48,0.14
0.11,0.48,0.13
0.15,0.5,0.11
0.22,0.51,0.12
0.27,0.51,0.09
0.3,0.48,0.06
0.33,0.43,0.05
0.34,0.39,0.02
0.33,0.36,0.02
0.34,0.36,0.03
0.39,0.39,0.01
0.42,0.4,-0.04
0.46,0.38,-0.08
0.51,0.36,-0.09
0.55,0.35,-0.08
0.6,0.33,-0.07
0.66,0.31,-0.07
0.7,0.3,-0.11
0.72,0.27,-0.18
0.74,0.24,-0.23
0.76,0.2,-0.27
0.78,0.17,-0.28
0.81,0.2,-0.26
0.88,0.25,-0.27
0.96,0.26,-0.32
0.98,0.13,-0.4
0.97,0.05,-0.42
0.96,0,-0.44
0.94,0.01,-0.46
0.99,0.04,-0.49
1.05,0.05,-0.5
1.07,0.03,-0.5
1.1,0.01,-0.5
1.13,-0.02,-0.52
1.14,-0.05,-0.55
1.12,-0.08,-0.57
1.09,-0.11,-0.6
1.06,-0.14,-0.6
1.06,-0.13,-0.57
1.09,-0.06,-0.56
1.13,-0.01,-0.59
1.16,-0.04,-0.61
1.15,-0.1,-0.61
1.16,-0.14,-0.61
1.17,-0.18,-0.61
1.15,-0.23,-0.61
1.13,-0.27,-0.6
1.13,-0.26,-0.59
1.15,-0.24,-0.57
1.16,-0.24,-0.55
1.17,-0.27,-0.53
1.15,-0.34,-0.52
1.1,-0.35,-0.51
1.1,-0.32,-0.52
1.12,-0.3,-0.54
1.14,-0.31,-0.55
1.14,-0.33,-0.54
1.13,-0.37,-0.51
1.14,-0.4,-0.5
1.15,-0.44,-0.5
1.16,-0.5,-0.48
1.18,-0.55,-0.45
1.16,-0.56,-0.43
1.16,-0.53,-0.42
1.16,-0.48,-0.43
1.16,-0.44,-0.44
1.19,-0.41,-0.44
1.2,-0.4,-0.42
1.2,-0.43,-0.39
1.21,-0.46,-0.36
1.23,-0.5,-0.36
1.25,-0.52,-0.36
1.25,-0.52,-0.36
1.25,-0.53,-0.34
1.24,-0.52,-0.34
1.22,-0.52,-0.34
1.22,-0.52,-0.32
1.24,-0.51,-0.29
1.3,-0.51,-0.28
1.32,-0.51,-0.28
1.32,-0.51,-0.28
1.33,-0.52,-0.26
1.32,-0.53,-0.24
1.31,-0.53,-0.23
1.31,-0.54,-0.23
1.3,-0.55,-0.23
1.31,-0.55,-0.24
1.33,-0.54,-0.22
1.36,-0.54,-0.2
1.37,-0.53,-0.2
1.37,-0.52,-0.21
1.36,-0.53,-0.23
1.35,-0.53,-0.25
1.35,-0.53,-0.27
1.35,-0.53,-0.26
1.36,-0.51,-0.26
1.36,-0.51,-0.27
1.37,-0.51,-0.28
1.37,-0.51,-0.29
1.38,-0.52,-0.3
1.4,-0.53,-0.31
1.41,-0.55,-0.32
1.41,-0.56,-0.33
1.43,-0.56,-0.35
1.45,-0.54,-0.37
1.46,-0.52,-0.38
1.46,-0.5,-0.38
1.45,-0.49,-0.38
1.44,-0.51,-0.39
1.44,-0.54,-0.4
1.43,-0.55,-0.41
1.43,-0.55,-0.42
1.43,-0.54,-0.42
1.43,-0.51,-0.42
1.41,-0.49,-0.41
1.38,-0.48,-0.41
1.36,-0.46,-0.42
1.34,-0.45,-0.43
1.31,-0.45,-0.44
1.3,-0.45,-0.43
1.3,-0.45,-0.42
1.27,-0.46,-0.43
1.25,-0.45,-0.44
1.21,-0.43,-0.45
1.18,-0.39,-0.43
1.15,-0.35,-0.41
1.12,-0.3,-0.42
1.11,-0.23,-0.42
1.09,-0.21,-0.43
1.07,-0.24,-0.41
1.03,-0.24,-0.4
0.98,-0.2,-0.37
0.96,-0.14,-0.34
0.95,-0.08,-0.34
0.93,-0.05,-0.35
0.89,-0.05,-0.34
0.83,-0.03,-0.33
0.78,0.01,-0.32
0.75,0.06,-0.33
0.73,0.1,-0.34
0.69,0.14,-0.33
0.66,0.19,-0.34
0.65,0.21,-0.33
0.64,0.2,-0.31
0.62,0.2,-0.27
0.6,0.23,-0.25
0.62,0.27,-0.28
0.59,0.25,-0.27
0.55,0.25,-0.24
0.53,0.33,-0.21
0.52,0.41,-0.18
0.47,0.41,-0.15
0.43,0.4,-0.13
0.42,0.46,-0.11
0.35,0.45,-0.06
0.37,0.49,0
0.35,0.57,0.05
0.33,0.59,0.05
0.31,0.56,0.03
0.25,0.52,0.11
0.27,0.55,0.14
0.26,0.55,0.1
0.21,0.55,0.1
0.23,0.58,0.09
0.13,0.59,0.09
0.07,0.58,0.16
0.04,0.54,0.28
0,0.57,0.32
0.1,0.66,0.29
-0.01,0.6,0.32
-0.08,0.56,0.35
-0.04,0.58,0.32
-0.09,0.55,0.34
-0.05,0.58,0.36
-0.07,0.62,0.34
-0.14,0.6,0.4
-0.17,0.6,0.47
-0.27,0.59,0.48
-0.31,0.58,0.47
-0.26,0.58,0.45
-0.33,0.54,0.45
-0.38,0.54,0.55
-0.38,0.52,0.58
-0.41,0.51,0.62
-0.42,0.51,0.64
-0.44,0.52,0.67
-0.45,0.56,0.7
-0.51,0.56,0.71
-0.58,0.54,0.71
-0.63,0.53,0.72
-0.66,0.53,0.74
-0.64,0.56,0.78
-0.64,0.56,0.81
-0.63,0.56,0.83
-0.62,0.57,0.84
-0.63,0.56,0.85
-0.64,0.57,0.87
-0.65,0.57,0.88
-0.65,0.58,0.87
-0.64,0.58,0.88
-0.62,0.59,0.89
-0.59,0.6,0.9
-0.56,0.59,0.9
-0.53,0.58,0.87
-0.51,0.58,0.86
-0.48,0.57,0.85
-0.46,0.57,0.84
-0.44,0.57,0.83
-0.41,0.58,0.79
-0.39,0.6,0.76
-0.38,0.61,0.74
-0.36,0.63,0.74
-0.33,0.63,0.72
-0.31,0.63,0.7
-0.31,0.62,0.66
-0.27,0.64,0.6
-0.25,0.65,0.58
-0.26,0.64,0.56
-0.24,0.62,0.53
-0.17,0.63,0.51
-0.13,0.63,0.48
-0.13,0.6,0.45
-0.14,0.58,0.44
-0.11,0.58,0.4
-0.06,0.58,0.38
-0.02,0.58,0.35
0.02,0.6,0.3
0.04,0.59,0.27
0.06,0.59,0.25
0.07,0.58,0.27
0.07,0.57,0.26
0.1,0.56,0.24
0.12,0.56,0.24
0.14,0.56,0.18
0.17,0.58,0.12
0.21,0.55,0.1
0.22,0.5,0.1
0.24,0.48,0.11
0.26,0.49,0.09
0.29,0.49,0.06
0.32,0.49,0.04
0.34,0.47,0.01
0.37,0.44,-0.02
0.39,0.4,-0.04
0.4,0.39,-0.05
0.43,0.38,-0.06
0.45,0.36,-0.06
0.48,0.34,-0.1
0.51,0.32,-0.15
0.53,0.33,-0.21
0.53,0.31,-0.23
0.54,0.26,-0.22
0.55,0.23,-0.23
0.59,0.21,-0.22
0.64,0.23,-0.23
0.67,0.25,-0.25
0.7,0.27,-0.32
0.71,0.25,-0.39
0.72,0.17,-0.46
0.74,0.07,-0.49
0.76,-0.08,-0.47
0.86,-0.08,-0.44
0.92,-0.03,-0.44
0.97,-0.01,-0.45
0.98,-0.06,-0.47
0.98,-0.14,-0.51
0.98,-0.2,-0.54
0.96,-0.24,-0.56
0.92,-0.28,-0.55
0.92,-0.26,-0.53
0.98,-0.18,-0.53
1.06,-0.13,-0.56
1.14,-0.16,-0.58
1.19,-0.23,-0.57
1.22,-0.29,-0.57
1.2,-0.35,-0.56
1.14,-0.39,-0.57
1.1,-0.41,-0.59
1.13,-0.4,-0.57
1.2,-0.36,-0.54
1.25,-0.33,-0.53
1.29,-0.36,-0.54
1.32,-0.41,-0.54
1.3,-0.48,-0.5
1.25,-0.53,-0.5
1.18,-0.56,-0.53
1.16,-0.57,-0.52
1.25,-0.49,-0.52
1.28,-0.45,-0.53
1.31,-0.48,-0.53
1.31,-0.54,-0.51
1.3,-0.58,-0.5
1.27,-0.59,-0.49
1.22,-0.59,-0.5
1.21,-0.56,-0.5
1.22,-0.53,-0.51
1.24,-0.49,-0.5
1.27,-0.52,-0.49
1.31,-0.57,-0.47
1.34,-0.59,-0.42
1.34,-0.59,-0.41
1.35,-0.61,-0.43
1.33,-0.6,-0.43
1.32,-0.58,-0.42
1.34,-0.55,-0.38
1.36,-0.53,-0.36
1.41,-0.54,-0.36
1.48,-0.54,-0.36
1.53,-0.51,-0.33
1.54,-0.49,-0.31
1.55,-0.47,-0.32
1.56,-0.47,-0.32
1.57,-0.48,-0.31
1.57,-0.51,-0.31
1.57,-0.53,-0.32
1.57,-0.53,-0.32
1.56,-0.52,-0.31
1.56,-0.53,-0.3
1.54,-0.55,-0.3
1.53,-0.57,-0.33
1.52,-0.59,-0.36
1.49,-0.6,-0.38
1.46,-0.61,-0.38
1.43,-0.61,-0.39
1.41,-0.61,-0.4
1.4,-0.63,-0.4
1.39,-0.65,-0.4
1.37,-0.67,-0.4
1.36,-0.68,-0.4
1.36,-0.66,-0.42
1.38,-0.62,-0.43
1.39,-0.6,-0.44
1.4,-0.6,-0.44
1.39,-0.6,-0.42
1.37,-0.6,-0.41
1.37,-0.6,-0.41
1.36,-0.61,-0.42
1.35,-0.6,-0.44
1.34,-0.58,-0.47
1.28,-0.53,-0.48
1.28,-0.53,-0.47
1.28,-0.55,-0.44
1.27,-0.56,-0.43
1.24,-0.54,-0.43
1.22,-0.51,-0.44
1.2,-0.49,-0.47
1.16,-0.46,-0.47
1.11,-0.44,-0.44
1.07,-0.42,-0.42
1.05,-0.39,-0.41
1.02,-0.36,-0.41
1,-0.33,-0.41
0.98,-0.31,-0.42
0.97,-0.3,-0.42
0.95,-0.27,-0.39
0.94,-0.2,-0.34
0.95,-0.1,-0.31
0.95,-0.03,-0.31
0.93,0,-0.3
0.9,0.05,-0.28
0.87,0.09,-0.27
0.83,0.06,-0.27
0.81,0.09,-0.26
0.8,0.18,-0.23
0.78,0.2,-0.21
0.73,0.22,-0.18
0.71,0.24,-0.17
0.68,0.27,-0.16
0.67,0.33,-0.11
0.64,0.33,-0.1
0.58,0.28,-0.11
0.52,0.34,-0.1
0.5,0.42,-0.11
0.5,0.44,-0.13
0.49,0.44,-0.14
0.45,0.42,-0.14
0.39,0.38,-0.13
0.36,0.39,-0.11
0.35,0.44,-0.07
0.29,0.47,-0.05
0.32,0.52,-0.02
0.36,0.57,-0.01
0.28,0.55,-0.03
0.21,0.55,-0.04
0.22,0.6,-0.06
0.22,0.63,-0.02
0.24,0.67,0.01
0.16,0.66,0.02
0.1,0.63,0.07
0.05,0.61,0.11
0,0.64,0.15
0.17,0.75,0.06
0.03,0.63,0.17
0.05,0.61,0.27
0.07,0.64,0.23
0.07,0.61,0.24
-0.07,0.57,0.25
0.04,0.62,0.22
0.07,0.62,0.25
-0.18,0.6,0.28
-0.32,0.59,0.26
-0.36,0.61,0.28
-0.38,0.62,0.34
-0.4,0.63,0.35
-0.34,0.68,0.37
-0.34,0.65,0.39
-0.36,0.61,0.41
-0.39,0.58,0.44
-0.42,0.57,0.45
-0.42,0.6,0.45
-0.41,0.63,0.49
-0.52,0.58,0.55
-0.61,0.58,0.6
-0.6,0.6,0.63
-0.63,0.58,0.66
-0.67,0.59,0.71
-0.7,0.59,0.72
-0.73,0.56,0.77
-0.76,0.56,0.78
-0.76,0.54,0.8
-0.74,0.55,0.83
-0.74,0.55,0.85
-0.74,0.54,0.87
-0.73,0.53,0.87
-0.71,0.53,0.87
-0.69,0.53,0.87
-0.68,0.54,0.87
-0.66,0.55,0.85
-0.63,0.57,0.83
-0.6,0.57,0.8
-0.56,0.57,0.78
-0.53,0.56,0.78
-0.52,0.55,0.77
-0.48,0.57,0.73
-0.44,0.6,0.68
-0.46,0.61,0.66
-0.45,0.61,0.65
-0.4,0.63,0.63
-0.34,0.63,0.57
-0.27,0.6,0.54
-0.26,0.58,0.52
-0.23,0.58,0.45
-0.14,0.59,0.42
-0.08,0.6,0.36
0,0.59,0.33
0.03,0.58,0.32
0.06,0.6,0.28
0.08,0.59,0.26
0.13,0.59,0.22
0.17,0.58,0.17
0.17,0.56,0.13
0.19,0.56,0.1
0.18,0.55,0.11
0.19,0.53,0.1
0.23,0.52,0.09
0.27,0.53,0.07
0.31,0.54,0.06
0.36,0.53,0.04
0.38,0.52,0
0.38,0.49,-0.02
0.36,0.46,-0.02
0.36,0.42,-0.04
0.37,0.41,-0.07
0.41,0.4,-0.06
0.44,0.38,-0.07
0.46,0.38,-0.08
0.48,0.36,-0.1
0.49,0.32,-0.14
0.51,0.28,-0.19
0.5,0.26,-0.21
0.51,0.19,-0.18
0.54,0.23,-0.19
0.59,0.3,-0.24
0.65,0.33,-0.31
0.64,0.31,-0.38
0.58,0.25,-0.42
0.52,0.16,-0.45
0.51,0.09,-0.47
0.56,0.05,-0.46
0.64,0.01,-0.49
0.66,-0.04,-0.51
0.68,-0.09,-0.51
0.72,-0.12,-0.54
0.77,-0.12,-0.6
0.8,-0.13,-0.65
0.79,-0.16,-0.69
0.76,-0.21,-0.71
0.75,-0.28,-0.75
0.82,-0.34,-0.78
0.93,-0.39,-0.79
1,-0.37,-0.79
1.07,-0.3,-0.8
1.13,-0.28,-0.83
1.14,-0.3,-0.88
1.09,-0.34,-0.91
1.04,-0.4,-0.92
1.13,-0.39,-0.88
1.2,-0.31,-0.85
1.22,-0.3,-0.82
1.19,-0.39,-0.8
1.17,-0.46,-0.78
1.13,-0.48,-0.76
1.1,-0.5,-0.76
1.15,-0.54,-0.79
1.23,-0.52,-0.78
1.26,-0.44,-0.74
1.28,-0.38,-0.71
1.29,-0.41,-0.67
1.28,-0.46,-0.63
1.22,-0.5,-0.62
1.15,-0.54,-0.63
1.13,-0.57,-0.67
1.16,-0.57,-0.68
1.2,-0.55,-0.65
1.21,-0.54,-0.62
1.23,-0.57,-0.57
1.28,-0.6,-0.47
1.28,-0.59,-0.42
1.18,-0.57,-0.43
1.09,-0.59,-0.47
1.03,-0.6,-0.52
0.99,-0.6,-0.48
1.02,-0.62,-0.4
1.09,-0.65,-0.36
1.17,-0.64,-0.3
1.14,-0.63,-0.28
1.07,-0.62,-0.31
1.01,-0.61,-0.35
0.98,-0.63,-0.37
0.94,-0.64,-0.37
0.9,-0.64,-0.36
0.92,-0.64,-0.33
1,-0.66,-0.27
1.03,-0.68,-0.22
0.97,-0.67,-0.2
0.92,-0.69,-0.22
0.91,-0.72,-0.26
0.87,-0.73,-0.31
0.83,-0.74,-0.3
0.81,-0.75,-0.25
0.85,-0.76,-0.2
0.91,-0.76,-0.18
0.95,-0.74,-0.16
0.97,-0.73,-0.13
0.97,-0.73,-0.14
0.97,-0.7,-0.18
0.98,-0.7,-0.2
1,-0.71,-0.2
1.09,-0.69,-0.14
1.07,-0.71,-0.13
1.04,-0.71,-0.12
1.02,-0.7,-0.13
1,-0.7,-0.16
0.96,-0.71,-0.18
0.91,-0.74,-0.21
0.88,-0.71,-0.2
0.84,-0.71,-0.2
0.81,-0.75,-0.22
0.75,-0.79,-0.22
0.73,-0.74,-0.22
0.75,-0.67,-0.22
0.7,-0.73,-0.24
0.68,-0.74,-0.25
0.66,-0.73,-0.25
0.64,-0.73,-0.27
0.63,-0.74,-0.28
0.62,-0.74,-0.28
0.59,-0.73,-0.29
0.58,-0.73,-0.29
0.58,-0.74,-0.3
0.57,-0.74,-0.3
0.56,-0.73,-0.31
0.55,-0.73,-0.31
0.54,-0.72,-0.32
0.53,-0.71,-0.33
0.53,-0.7,-0.33
0.54,-0.69,-0.34
0.53,-0.68,-0.34
0.53,-0.66,-0.35
0.54,-0.65,-0.35
0.54,-0.64,-0.35
0.54,-0.63,-0.35
0.53,-0.62,-0.35
0.54,-0.61,-0.36
0.55,-0.62,-0.36
0.56,-0.63,-0.36
0.57,-0.63,-0.35
0.59,-0.62,-0.32
0.62,-0.62,-0.31
0.65,-0.61,-0.31
0.67,-0.63,-0.31
0.67,-0.65,-0.32
0.68,-0.66,-0.31
0.68,-0.67,-0.31
0.68,-0.67,-0.29
0.71,-0.68,-0.28
0.73,-0.7,-0.27
0.75,-0.71,-0.27
0.81,-0.73,-0.22
0.84,-0.73,-0.2
0.78,-0.71,-0.19
0.82,-0.72,-0.19
0.81,-0.75,-0.2
0.78,-0.76,-0.18
0.78,-0.71,-0.14
0.91,-0.63,-0.1
0.88,-0.66,-0.1
0.72,-0.77,-0.12
0.75,-0.74,-0.09
0.83,-0.67,-0.07
0.83,-0.69,-0.05
0.8,-0.74,-0.04
0.85,-0.74,0.03
0.86,-0.7,0.02
0.74,-0.73,-0.03
0.74,-0.75,-0.02
0.8,-0.71,-0.02
0.73,-0.72,0.01
0.71,-0.74,0.04
0.73,-0.75,0.08
0.75,-0.73,0.08
0.73,-0.75,0.09
0.67,-0.77,0.08
