Acc_x,Acc_y,Acc_z
0.27,0.28,0.88
0.25,0.32,0.87
0.24,0.34,0.87
0.24,0.37,0.88
0.24,0.39,0.9
0.22,0.41,0.94
0.2,0.43,0.95
0.18,0.46,0.95
0.15,0.49,0.92
0.14,0.52,0.91
0.14,0.54,0.89
0.11,0.56,0.87
0.08,0.59,0.85
0.06,0.6,0.85
0.06,0.6,0.86
0.07,0.59,0.87
0.08,0.58,0.88
0.09,0.59,0.86
0.1,0.6,0.84
0.12,0.61,0.85
0.14,0.6,0.86
0.16,0.58,0.87
0.2,0.56,0.87
0.23,0.54,0.87
0.24,0.52,0.86
0.24,0.49,0.85
0.23,0.47,0.84
0.22,0.46,0.82
0.21,0.45,0.81
0.2,0.45,0.8
0.21,0.45,0.79
0.23,0.43,0.78
0.24,0.41,0.76
0.23,0.38,0.74
0.21,0.35,0.76
0.2,0.34,0.78
0.18,0.34,0.8
0.16,0.35,0.81
0.15,0.36,0.8
0.16,0.38,0.81
0.18,0.4,0.83
0.19,0.43,0.86
0.2,0.47,0.99
0.23,0.52,1.06
0.23,0.51,1.08
0.24,0.5,1.05
0.24,0.49,0.99
0.24,0.47,0.91
0.22,0.45,0.84
0.19,0.43,0.78
0.18,0.41,0.77
0.17,0.39,0.8
0.16,0.39,0.85
0.15,0.39,0.91
0.14,0.39,0.95
0.14,0.39,0.97
0.13,0.4,0.95
0.13,0.41,0.91
0.13,0.41,0.85
0.13,0.43,0.8
0.13,0.44,0.78
0.13,0.45,0.79
0.14,0.46,0.81
0.14,0.49,0.83
0.14,0.51,0.86
0.13,0.53,0.88
0.12,0.54,0.88
0.11,0.55,0.86
0.1,0.57,0.85
0.08,0.56,0.83
0.08,0.55,0.83
0.07,0.54,0.84
0.06,0.53,0.86
0.06,0.53,0.87
0.08,0.53,0.87
0.11,0.53,0.87
0.15,0.53,0.85
0.18,0.53,0.83
0.21,0.54,0.8
0.24,0.55,0.79
0.27,0.55,0.78
0.3,0.54,0.78
0.31,0.53,0.8
0.3,0.52,0.83
0.25,0.52,0.85
0.22,0.53,0.85
0.22,0.53,0.85
0.21,0.53,0.85
0.2,0.52,0.87
0.23,0.5,0.91
0.28,0.48,0.98
0.29,0.47,1.05
0.25,0.45,1.08
0.24,0.44,1.05
0.23,0.44,0.85
0.21,0.44,0.77
0.18,0.44,0.73
0.17,0.43,0.74
0.15,0.42,0.76
0.12,0.42,0.79
0.14,0.41,0.83
0.16,0.41,0.88
0.16,0.42,0.93
0.15,0.42,0.97
0.15,0.42,0.99
0.16,0.43,0.97
0.16,0.43,0.92
0.18,0.42,0.87
0.21,0.42,0.83
0.23,0.41,0.83
0.23,0.39,0.84
0.24,0.38,0.86
0.23,0.36,0.87
0.22,0.35,0.88
0.22,0.35,0.88
0.21,0.37,0.88
0.19,0.39,0.89
0.17,0.41,0.89
0.14,0.43,0.89
0.11,0.44,0.89
0.09,0.45,0.87
0.09,0.45,0.84
0.08,0.47,0.84
0.1,0.49,0.85
0.12,0.51,0.88
0.12,0.52,0.9
0.12,0.54,0.9
0.13,0.56,0.89
0.15,0.58,0.88
0.16,0.56,0.85
0.17,0.54,0.82
0.19,0.52,0.78
0.22,0.5,0.75
0.24,0.48,0.71
0.25,0.46,0.69
0.27,0.43,0.7
0.18,0.42,0.72
0.08,0.4,0.74
0.11,0.41,0.74
0.2,0.43,0.75
0.21,0.44,0.77
0.17,0.46,0.81
0.21,0.47,0.86
0.3,0.49,0.91
0.43,0.51,1.01
0.52,0.53,1.12
0.44,0.52,1.15
0.32,0.5,1
0.17,0.52,0.91
0.12,0.51,0.83
0.08,0.5,0.78
0.08,0.49,0.77
0.09,0.48,0.77
0.12,0.47,0.8
0.15,0.45,0.84
0.16,0.42,0.88
0.17,0.41,0.92
0.17,0.4,0.94
0.19,0.41,0.94
0.21,0.42,0.9
0.24,0.42,0.85
0.27,0.43,0.81
0.29,0.43,0.79
0.27,0.43,0.81
0.24,0.41,0.84
0.21,0.38,0.85
0.2,0.36,0.87
0.2,0.36,0.88
0.21,0.35,0.88
0.21,0.36,0.87
0.22,0.35,0.85
0.24,0.35,0.83
0.24,0.35,0.83
0.25,0.34,0.87
0.25,0.36,0.9
0.24,0.37,0.92
0.23,0.38,0.94
0.22,0.39,0.94
0.22,0.4,0.93
0.23,0.42,0.92
0.22,0.43,0.91
0.21,0.44,0.89
0.2,0.46,0.88
0.19,0.49,0.88
0.17,0.52,0.88
0.16,0.55,0.88
0.14,0.59,0.88
0.13,0.6,0.87
0.12,0.6,0.85
0.12,0.6,0.83
0.12,0.6,0.81
0.14,0.6,0.79
0.16,0.61,0.77
0.21,0.64,0.78
0.25,0.66,0.79
0.28,0.66,0.8
0.29,0.66,0.8
0.28,0.65,0.8
0.28,0.62,0.8
0.26,0.6,0.81
0.21,0.59,0.81
0.21,0.57,0.81
0.23,0.56,0.81
0.25,0.55,0.83
0.26,0.53,0.85
0.27,0.5,0.87
0.25,0.49,0.89
0.22,0.47,0.89
0.22,0.45,0.87
0.23,0.43,0.83
0.24,0.41,0.79
0.24,0.39,0.76
0.25,0.38,0.74
0.25,0.38,0.73
0.23,0.39,0.76
0.21,0.41,0.82
0.19,0.44,0.87
0.17,0.47,0.88
0.17,0.48,0.88
0.19,0.48,0.89
0.23,0.48,0.89
0.27,0.48,0.89
0.29,0.45,0.86
0.29,0.42,0.83
0.29,0.37,0.84
0.29,0.34,0.9
0.23,0.34,0.93
0.18,0.33,0.96
0.13,0.32,0.98
0.1,0.31,0.97
0.1,0.32,0.94
0.11,0.33,0.89
0.12,0.36,0.85
0.14,0.38,0.83
0.16,0.4,0.84
0.18,0.42,0.86
0.2,0.44,0.88
0.22,0.47,0.9
0.24,0.5,0.94
0.26,0.53,0.97
0.27,0.57,0.97
0.26,0.59,0.94
0.24,0.62,0.9
0.22,0.63,0.87
0.19,0.64,0.85
0.18,0.65,0.83
0.2,0.66,0.8
0.23,0.65,0.78
0.25,0.63,0.78
0.26,0.62,0.77
0.28,0.61,0.76
0.3,0.59,0.75
0.31,0.57,0.74
0.32,0.55,0.75
0.32,0.52,0.75
0.31,0.5,0.74
0.29,0.48,0.73
0.29,0.46,0.72
0.29,0.43,0.73
0.28,0.41,0.78
0.27,0.39,0.82
0.24,0.38,0.84
0.21,0.38,0.85
0.19,0.38,0.83
0.16,0.39,0.79
0.14,0.4,0.77
0.14,0.4,0.76
0.14,0.4,0.77
0.17,0.4,0.82
0.21,0.41,0.93
0.23,0.41,1.05
0.25,0.41,1.13
0.25,0.41,1.14
0.23,0.41,1.11
0.2,0.41,1.05
0.17,0.4,0.98
0.12,0.4,0.9
0.07,0.39,0.82
0.03,0.37,0.74
-0.02,0.36,0.73
-0.03,0.37,0.75
-0.01,0.38,0.79
0.03,0.39,0.84
0.09,0.42,0.89
0.16,0.46,0.92
0.23,0.49,0.91
0.3,0.5,0.87
0.35,0.5,0.84
0.37,0.5,0.82
0.37,0.49,0.8
0.37,0.48,0.77
0.35,0.46,0.75
0.32,0.45,0.76
0.28,0.45,0.77
0.25,0.46,0.79
0.21,0.47,0.83
0.18,0.48,0.85
0.22,0.49,0.85
0.22,0.49,0.86
0.02,0.44,0.95
-0.1,0.4,1.01
-0.02,0.41,0.99
0.03,0.42,0.95
0.07,0.41,0.92
0.13,0.41,0.88
0.23,0.42,0.89
0.31,0.43,0.94
0.38,0.42,0.99
0.46,0.4,1
0.54,0.4,1
0.57,0.39,1.04
0.55,0.38,1.06
0.51,0.38,1.06
0.5,0.4,1.03
0.45,0.41,0.97
0.37,0.41,0.89
0.31,0.4,0.81
0.26,0.4,0.78
0.24,0.39,0.78
0.24,0.39,0.79
0.25,0.38,0.8
0.27,0.37,0.79
0.29,0.36,0.79
0.3,0.35,0.79
0.31,0.33,0.81
0.31,0.31,0.87
0.28,0.29,0.95
0.25,0.27,1.02
0.25,0.25,1.04
0.28,0.23,1.02
0.28,0.23,0.92
0.27,0.21,0.89
0.24,0.18,0.88
0.21,0.16,0.88
0.2,0.15,0.89
0.18,0.15,0.91
0.16,0.15,0.91
0.13,0.15,0.91
0.11,0.16,0.92
0.11,0.18,0.92
0.11,0.2,0.91
0.12,0.23,0.9
0.14,0.27,0.9
0.16,0.32,0.91
0.19,0.35,0.92
0.23,0.37,0.91
0.28,0.39,0.9
0.34,0.4,0.87
0.38,0.4,0.83
0.41,0.39,0.79
0.41,0.38,0.77
0.36,0.38,0.76
0.29,0.37,0.77
0.24,0.37,0.81
0.22,0.38,0.86
0.2,0.4,0.91
0.18,0.43,0.92
0.18,0.45,0.92
0.19,0.45,0.93
0.22,0.44,0.92
0.22,0.43,0.91
0.21,0.42,0.91
0.19,0.42,0.94
0.19,0.43,0.99
0.21,0.46,1.01
0.22,0.49,1.01
0.19,0.5,1.02
0.14,0.47,1.03
0.15,0.43,1.06
0.18,0.4,1.06
0.21,0.38,1.04
0.25,0.36,1.04
0.25,0.33,1.03
0.25,0.31,1.01
0.27,0.3,0.99
0.29,0.31,0.95
0.32,0.32,0.9
0.35,0.32,0.9
0.37,0.29,0.93
0.38,0.27,0.96
0.38,0.26,0.98
0.39,0.23,0.97
0.38,0.21,0.9
0.3,0.23,0.88
0.26,0.24,0.87
0.26,0.26,0.84
0.27,0.27,0.8
0.27,0.26,0.77
0.28,0.25,0.78
0.29,0.22,0.82
0.3,0.17,0.87
0.3,0.15,0.92
0.31,0.15,0.96
0.31,0.15,0.96
0.32,0.16,0.95
0.32,0.16,0.92
0.31,0.17,0.88
0.3,0.17,0.84
0.29,0.17,0.82
0.26,0.18,0.82
0.24,0.19,0.83
0.24,0.2,0.84
0.25,0.22,0.85
0.28,0.24,0.87
0.3,0.26,0.9
0.33,0.28,0.91
0.37,0.3,0.9
0.39,0.32,0.88
0.42,0.32,0.88
0.43,0.33,0.89
0.46,0.34,0.87
0.46,0.35,0.84
0.43,0.38,0.82
0.37,0.43,0.81
0.32,0.46,0.79
0.29,0.48,0.78
0.25,0.5,0.79
0.17,0.5,0.81
0.1,0.52,0.84
0.05,0.53,0.89
0.14,0.54,0.91
0.27,0.56,0.9
0.28,0.57,0.89
0.25,0.54,0.93
0.23,0.5,0.99
0.25,0.48,1.06
0.27,0.46,1.12
0.22,0.44,1.19
0.1,0.42,1.22
0.05,0.4,1.16
0.11,0.39,1.04
0.19,0.4,0.92
0.26,0.41,0.85
0.31,0.39,0.83
0.35,0.36,0.83
0.38,0.28,0.86
0.38,0.26,0.91
0.39,0.24,0.93
0.42,0.23,0.91
0.44,0.24,0.88
0.45,0.24,0.83
0.46,0.25,0.8
0.45,0.27,0.8
0.39,0.27,0.83
0.34,0.26,0.89
0.31,0.24,0.94
0.31,0.22,0.96
0.3,0.21,0.95
0.3,0.2,0.92
0.3,0.2,0.87
0.3,0.21,0.83
0.3,0.22,0.8
0.29,0.23,0.78
0.28,0.23,0.78
0.27,0.24,0.81
0.27,0.26,0.85
0.28,0.28,0.9
0.28,0.3,0.92
0.29,0.33,0.92
0.3,0.35,0.9
0.29,0.38,0.88
0.29,0.41,0.87
0.27,0.42,0.87
0.26,0.41,0.87
0.25,0.42,0.85
0.24,0.45,0.83
0.24,0.5,0.83
0.24,0.57,0.84
0.23,0.62,0.87
0.23,0.64,0.91
0.24,0.63,0.94
0.26,0.61,0.95
0.28,0.6,0.95
0.29,0.58,0.93
0.3,0.56,0.92
0.3,0.55,0.9
0.29,0.54,0.86
0.27,0.52,0.82
0.25,0.5,0.78
0.23,0.47,0.77
0.23,0.44,0.79
0.23,0.41,0.83
0.24,0.37,0.87
0.25,0.32,0.9
0.26,0.29,0.93
0.27,0.26,0.95
0.28,0.25,0.93
0.29,0.23,0.81
0.28,0.22,0.75
0.29,0.21,0.73
0.3,0.2,0.76
0.28,0.2,0.83
0.27,0.22,0.92
0.27,0.24,1.01
0.25,0.28,1.07
0.24,0.34,1.09
0.26,0.39,1.08
0.3,0.42,1.02
0.33,0.45,0.91
0.33,0.46,0.8
0.32,0.45,0.73
0.31,0.43,0.7
0.28,0.42,0.73
0.24,0.4,0.81
0.21,0.38,0.88
0.19,0.36,0.93
0.19,0.33,0.97
0.19,0.29,0.98
0.19,0.27,0.96
0.2,0.25,0.95
0.21,0.24,0.96
0.21,0.23,0.94
0.22,0.23,0.91
0.24,0.23,0.85
0.21,0.26,0.82
0.19,0.32,0.81
0.16,0.38,0.83
0.14,0.45,0.87
0.14,0.49,0.91
0.15,0.52,0.94
0.16,0.54,0.94
0.19,0.53,0.93
0.22,0.5,0.91
0.24,0.47,0.9
0.25,0.45,0.91
0.25,0.45,0.94
0.25,0.45,0.95
0.22,0.43,0.93
0.17,0.41,0.9
0.15,0.38,0.87
0.13,0.35,0.85
0.12,0.33,0.85
0.12,0.35,0.83
0.13,0.36,0.82
0.15,0.37,0.81
0.14,0.39,0.8
0.08,0.39,0.8
0.12,0.39,0.81
0.24,0.42,0.81
0.25,0.45,0.85
0.11,0.51,0.9
0.08,0.54,0.93
0.08,0.57,0.94
0.09,0.58,0.97
0.1,0.59,1.02
0.09,0.58,1.05
0.11,0.56,1.06
0.14,0.55,1.07
0.14,0.54,1.07
0.14,0.51,1.04
0.16,0.48,1
0.2,0.45,0.96
0.23,0.43,0.93
0.24,0.4,0.9
0.27,0.36,0.87
0.3,0.31,0.86
0.32,0.25,0.84
0.33,0.21,0.82
0.35,0.19,0.82
0.34,0.18,0.85
0.32,0.19,0.88
0.3,0.2,0.89
0.27,0.21,0.89
0.24,0.22,0.9
0.23,0.24,0.91
0.23,0.25,0.92
0.23,0.26,0.93
0.24,0.26,0.9
0.25,0.28,0.84
0.26,0.32,0.8
0.27,0.35,0.78
0.26,0.37,0.79
0.24,0.38,0.82
0.2,0.38,0.87
0.18,0.38,0.93
0.17,0.38,0.97
0.17,0.38,0.99
0.18,0.38,0.97
0.19,0.37,0.94
0.19,0.37,0.9
0.18,0.38,0.86
0.16,0.41,0.84
0.14,0.43,0.83
0.14,0.43,0.84
0.14,0.43,0.86
0.15,0.43,0.89
0.15,0.44,0.93
0.15,0.47,0.96
0.16,0.5,0.99
0.16,0.53,1
0.16,0.56,0.98
0.17,0.58,0.97
0.16,0.61,0.92
0.15,0.63,0.9
0.16,0.63,0.87
0.15,0.63,0.85
0.14,0.63,0.84
0.14,0.6,0.83
0.13,0.57,0.84
0.12,0.52,0.84
0.13,0.47,0.82
0.14,0.44,0.8
0.14,0.41,0.8
0.17,0.4,0.81
0.2,0.38,0.82
0.24,0.36,0.83
0.25,0.34,0.83
0.28,0.32,0.85
0.28,0.3,0.88
0.26,0.28,0.91
0.22,0.28,0.92
0.18,0.28,0.9
0.18,0.28,0.88
0.19,0.28,0.86
0.2,0.28,0.86
0.2,0.28,0.87
0.2,0.28,0.88
0.2,0.3,0.91
0.21,0.34,0.99
0.24,0.35,1.03
0.24,0.36,1.06
0.23,0.36,1.04
0.22,0.36,0.97
0.2,0.37,0.89
0.19,0.38,0.83
0.2,0.4,0.79
0.2,0.42,0.77
0.19,0.42,0.76
0.18,0.41,0.79
0.18,0.4,0.85
0.17,0.41,0.91
0.17,0.42,0.95
0.18,0.44,0.95
0.19,0.45,0.92
0.21,0.46,0.87
0.22,0.45,0.83
0.23,0.45,0.8
0.23,0.44,0.79
0.23,0.43,0.81
0.22,0.42,0.84
0.22,0.41,0.87
0.23,0.39,0.89
0.24,0.37,0.89
0.25,0.36,0.86
0.25,0.35,0.8
0.28,0.36,0.78
0.29,0.36,0.76
0.28,0.34,0.72
0.23,0.33,0.68
0.15,0.31,0.65
0.1,0.29,0.66
0.07,0.29,0.67
0.08,0.29,0.69
0.18,0.33,0.71
0.28,0.41,0.72
0.29,0.46,0.71
0.24,0.47,0.7
0.18,0.48,0.77
0.17,0.5,0.88
0.19,0.56,0.99
0.19,0.63,1.03
0.08,0.68,1.03
-0.04,0.7,1.06
-0.02,0.7,1.06
-0.07,0.72,1.07
-0.14,0.71,1.15
-0.19,0.68,1.22
-0.24,0.64,1.3
-0.21,0.58,1.33
-0.15,0.54,1.28
-0.11,0.5,1.14
0,0.42,1.08
0.05,0.39,1.03
0.08,0.37,1
0.11,0.33,0.99
0.11,0.3,0.98
0.1,0.28,0.97
0.12,0.26,0.95
0.13,0.24,0.94
0.13,0.21,0.96
0.13,0.18,1.01
0.15,0.14,1.03
0.17,0.12,1.01
0.18,0.13,0.97
0.21,0.15,0.91
0.21,0.19,0.86
0.21,0.21,0.82
0.18,0.23,0.8
0.15,0.24,0.83
0.15,0.25,0.89
0.15,0.29,0.94
0.16,0.32,0.98
0.15,0.32,0.97
0.09,0.32,0.94
0.03,0.32,0.89
-0.02,0.33,0.85
-0.06,0.34,0.82
-0.09,0.32,0.84
-0.05,0.32,0.87
-0.01,0.32,0.9
0.03,0.33,0.95
0.06,0.34,0.97
0.06,0.35,0.98
0.06,0.35,0.96
0.05,0.34,0.96
0.04,0.35,0.96
0.05,0.37,0.96
0.06,0.38,0.96
0.09,0.39,0.94
0.13,0.4,0.91
0.15,0.4,0.88
0.16,0.37,0.86
0.15,0.34,0.84
0.15,0.3,0.85
0.13,0.26,0.86
0.1,0.24,0.87
0.07,0.24,0.88
0.05,0.25,0.89
0.03,0.27,0.9
0.03,0.27,0.92
0.02,0.28,0.94
0.02,0.3,0.94
0.01,0.34,0.93
0,0.41,0.95
-0.02,0.46,0.96
-0.06,0.52,0.97
-0.11,0.59,0.96
-0.15,0.64,0.96
-0.18,0.65,0.97
-0.18,0.65,1
-0.17,0.66,1.03
-0.16,0.66,1.07
-0.14,0.64,1.08
-0.11,0.62,1.06
-0.1,0.59,1.05
-0.08,0.54,1.03
-0.06,0.5,1.01
-0.04,0.47,0.99
-0.04,0.45,0.98
-0.05,0.43,0.94
-0.04,0.41,0.88
-0.04,0.38,0.84
-0.03,0.35,0.8
0,0.3,0.77
0.05,0.26,0.78
0.13,0.22,0.82
0.2,0.17,0.9
0.21,0.12,1
0.19,0.1,1.08
0.16,0.13,0.97
0.07,0.14,0.85
0.04,0.14,0.76
0.03,0.15,0.73
0.05,0.15,0.76
0.1,0.15,0.81
0.15,0.15,0.88
0.19,0.15,0.94
0.21,0.18,0.96
0.15,0.26,0.95
0.05,0.33,0.92
0,0.39,0.88
-0.03,0.42,0.85
-0.03,0.42,0.85
0,0.44,0.9
0.02,0.46,0.95
0,0.47,0.99
-0.02,0.49,1.01
-0.07,0.5,0.9
-0.09,0.44,0.89
-0.06,0.44,0.98
-0.08,0.48,1
-0.08,0.46,1.04
-0.08,0.46,1.06
-0.11,0.46,1.07
-0.13,0.46,1.06
-0.14,0.48,1.05
-0.15,0.47,1.04
-0.15,0.47,1.03
-0.14,0.47,1.01
-0.12,0.46,0.98
-0.1,0.44,0.94
-0.07,0.43,0.91
-0.06,0.42,0.89
-0.05,0.4,0.89
-0.04,0.38,0.88
-0.04,0.35,0.89
-0.03,0.34,0.89
-0.02,0.34,0.89
-0.02,0.35,0.89
-0.03,0.38,0.86
-0.02,0.42,0.83
0,0.43,0.82
0.01,0.44,0.8
0.02,0.43,0.82
0.04,0.42,0.86
0.04,0.41,0.9
0.01,0.41,0.94
-0.02,0.41,0.97
-0.05,0.41,0.99
-0.05,0.4,1
-0.05,0.4,1
-0.05,0.39,0.96
-0.04,0.36,0.92
-0.03,0.36,0.88
-0.03,0.33,0.86
-0.01,0.3,0.86
0.01,0.28,0.89
0.06,0.24,0.93
0.13,0.21,0.95
0.16,0.19,0.94
0.15,0.16,0.88
0.16,0.12,0.82
0.18,0.09,0.77
0.17,0.09,0.72
0.13,0.09,0.71
0.08,0.1,0.75
0.08,0.14,0.8
0.1,0.2,0.86
0.14,0.24,0.91
0.2,0.27,0.95
0.25,0.29,0.97
0.26,0.31,0.98
0.25,0.34,0.97
0.21,0.37,0.94
0.14,0.41,0.9
0.08,0.43,0.88
0.02,0.41,0.89
-0.01,0.38,0.94
-0.03,0.35,1
-0.01,0.35,1.06
0,0.36,1.09
-0.01,0.38,1.09
-0.02,0.38,1.05
0,0.36,0.99
0.01,0.35,0.94
0.02,0.33,0.9
0.03,0.31,0.88
0.03,0.28,0.89
0.02,0.25,0.91
0.02,0.24,0.93
0.03,0.22,0.94
0.04,0.18,0.97
0.06,0.16,0.94
0.06,0.18,0.88
0.06,0.19,0.85
0.03,0.21,0.82
0.03,0.22,0.85
-0.01,0.27,0.84
-0.09,0.33,0.79
-0.11,0.38,0.83
-0.15,0.46,0.84
-0.22,0.54,0.87
-0.27,0.61,0.99
-0.28,0.67,1.03
-0.31,0.78,1.07
-0.29,0.79,1.11
-0.2,0.74,1.15
-0.12,0.7,1.16
-0.08,0.65,1.12
-0.09,0.61,1.05
-0.12,0.58,0.98
-0.15,0.55,0.93
-0.15,0.51,0.91
-0.13,0.49,0.91
-0.11,0.45,0.91
-0.1,0.42,0.91
-0.09,0.39,0.92
-0.08,0.37,0.94
-0.08,0.37,0.96
-0.07,0.36,0.96
-0.06,0.36,0.94
-0.05,0.35,0.92
0,0.34,0.9
0.05,0.32,0.87
0.1,0.32,0.86
0.15,0.31,0.89
0.18,0.31,0.89
0.17,0.32,0.88
0.16,0.33,0.83
0.15,0.32,0.69
0.16,0.28,0.66
0.21,0.29,0.68
0.22,0.33,0.75
0.21,0.37,0.83
0.2,0.4,0.92
0.16,0.4,1
0.12,0.37,1.02
0.09,0.34,0.99
0.09,0.32,0.92
0.1,0.3,0.85
0.11,0.28,0.8
0.12,0.25,0.78
0.14,0.24,0.79
0.14,0.24,0.81
0.14,0.23,0.84
0.11,0.23,0.86
0.04,0.26,0.87
-0.01,0.3,0.87
-0.05,0.34,0.9
-0.1,0.38,0.97
-0.12,0.42,1.06
-0.12,0.46,1.11
-0.11,0.49,1.12
-0.1,0.51,1.09
-0.09,0.53,1.06
-0.1,0.54,1.03
-0.11,0.51,0.98
-0.09,0.49,0.95
-0.08,0.46,0.93
-0.07,0.43,0.92
-0.06,0.41,0.9
-0.06,0.4,0.88
-0.05,0.38,0.85
-0.02,0.38,0.83
0.02,0.37,0.82
0.05,0.37,0.8
0.07,0.37,0.8
0.08,0.37,0.81
0.09,0.36,0.83
0.09,0.35,0.85
0.08,0.34,0.87
0.05,0.33,0.9
0.02,0.31,0.95
0.03,0.3,0.99
0.06,0.32,1.02
0.04,0.33,1.04
-0.01,0.34,1.05
-0.04,0.35,1.04
-0.02,0.37,1.01
0.02,0.39,0.98
0.05,0.41,0.98
0.06,0.44,0.99
0.09,0.49,0.93
0.08,0.51,0.91
0.02,0.51,0.89
0.08,0.5,0.85
0.19,0.5,0.8
0.17,0.52,0.82
0.09,0.52,0.83
0.12,0.5,0.81
0.23,0.47,0.8
0.43,0.45,0.81
0.66,0.45,0.87
0.73,0.44,0.93
0.62,0.42,0.94
0.46,0.4,0.9
0.33,0.4,0.85
0.22,0.4,0.82
0.17,0.38,0.79
0.17,0.35,0.78
0.18,0.31,0.8
0.19,0.27,0.86
0.2,0.24,0.92
0.19,0.21,0.97
0.2,0.19,1.01
0.23,0.18,1
0.26,0.18,0.94
0.27,0.2,0.87
0.26,0.21,0.8
0.24,0.24,0.81
0.23,0.25,0.84
0.22,0.26,0.89
0.2,0.27,0.93
0.19,0.28,0.97
0.17,0.31,0.99
0.15,0.35,0.99
0.12,0.39,0.97
0.08,0.42,0.94
0.04,0.46,0.91
0.01,0.49,0.89
-0.01,0.51,0.86
-0.03,0.51,0.86
-0.03,0.49,0.85
-0.01,0.48,0.86
0.03,0.45,0.88
0.05,0.44,0.9
0.05,0.42,0.9
0.06,0.42,0.92
0.06,0.42,0.93
0.06,0.42,0.91
0.06,0.4,0.9
0.06,0.4,0.9
0.09,0.4,0.92
0.17,0.4,0.93
0.25,0.41,0.87
0.34,0.44,0.88
0.41,0.45,0.91
0.45,0.46,0.94
0.48,0.46,0.97
0.51,0.45,0.99
0.54,0.44,0.99
0.55,0.44,0.98
0.54,0.44,0.96
0.53,0.42,0.92
0.56,0.41,0.88
0.56,0.41,0.85
0.53,0.4,0.83
0.48,0.39,0.82
0.43,0.39,0.83
0.4,0.39,0.82
0.39,0.38,0.79
0.38,0.37,0.74
0.4,0.36,0.7
0.45,0.33,0.69
0.47,0.3,0.7
0.48,0.28,0.74
0.47,0.26,0.78
0.42,0.23,0.78
0.38,0.21,0.78
0.36,0.2,0.79
0.36,0.2,0.8
0.44,0.24,0.82
0.49,0.23,0.83
0.53,0.23,0.84
0.55,0.24,0.86
0.53,0.24,0.88
0.49,0.25,0.89
0.46,0.28,0.89
0.46,0.31,0.89
0.46,0.34,0.89
0.46,0.36,0.88
0.45,0.38,0.87
0.45,0.41,0.87
0.47,0.43,0.87
0.47,0.44,0.87
0.46,0.45,0.87
0.45,0.44,0.88
0.41,0.43,0.88
0.34,0.44,0.88
0.28,0.46,0.86
0.26,0.44,0.82
0.27,0.43,0.78
0.27,0.43,0.75
0.28,0.43,0.76
0.34,0.44,0.76
0.38,0.45,0.77
0.38,0.45,0.81
0.43,0.43,0.83
0.46,0.45,0.86
0.46,0.45,0.89
0.46,0.45,0.91
0.43,0.47,0.91
0.37,0.48,0.88
0.33,0.48,0.87
0.31,0.48,0.88
0.33,0.49,0.89
0.33,0.51,0.88
0.31,0.53,0.87
0.31,0.53,0.89
0.31,0.53,0.91
0.3,0.53,0.9
0.3,0.51,0.9
0.29,0.48,0.91
0.24,0.44,0.96
0.18,0.41,0.99
0.18,0.38,0.94
0.19,0.38,0.86
0.21,0.37,0.79
0.2,0.35,0.75
0.18,0.31,0.74
0.21,0.27,0.77
0.3,0.26,0.85
0.38,0.25,0.98
0.4,0.3,1.11
0.35,0.32,1.09
0.32,0.34,1
0.28,0.35,0.88
0.24,0.33,0.77
0.23,0.31,0.72
0.22,0.3,0.71
0.21,0.29,0.7
0.2,0.28,0.73
0.21,0.26,0.78
0.23,0.26,0.85
0.26,0.26,0.9
0.32,0.27,0.91
0.37,0.29,0.9
0.37,0.32,0.89
0.37,0.34,0.88
0.35,0.37,0.86
0.31,0.41,0.87
0.26,0.44,0.89
0.21,0.46,0.93
0.18,0.48,0.96
0.14,0.5,0.97
0.11,0.51,0.96
0.09,0.52,0.93
0.08,0.54,0.9
0.07,0.55,0.89
0.08,0.54,0.89
0.16,0.54,0.89
0.19,0.54,0.88
0.2,0.53,0.87
0.2,0.51,0.87
0.2,0.5,0.88
0.2,0.49,0.88
0.19,0.48,0.87
0.18,0.48,0.85
0.17,0.48,0.84
0.17,0.48,0.81
0.15,0.47,0.77
0.13,0.45,0.74
0.14,0.43,0.73
0.16,0.41,0.75
0.15,0.39,0.79
0.17,0.38,0.83
0.22,0.39,0.88
0.27,0.4,0.91
0.29,0.4,0.9
0.29,0.4,0.88
0.28,0.41,0.85
0.25,0.41,0.83
0.22,0.4,0.81
0.22,0.41,0.82
0.22,0.42,0.86
0.21,0.45,0.98
0.26,0.44,1
0.27,0.44,0.99
0.27,0.42,0.98
0.27,0.4,0.98
0.28,0.38,0.97
0.3,0.36,0.96
0.32,0.34,0.94
0.33,0.31,0.9
0.33,0.28,0.86
0.3,0.26,0.82
0.27,0.24,0.82
0.24,0.25,0.86
0.19,0.26,0.9
0.13,0.28,0.91
0.08,0.3,0.87
0.05,0.32,0.83
0.03,0.34,0.81
0.03,0.36,0.82
0.07,0.38,0.85
0.1,0.4,0.87
0.14,0.4,0.9
0.18,0.42,0.92
0.2,0.43,0.95
0.21,0.44,0.96
0.21,0.45,0.97
0.21,0.45,0.95
0.17,0.46,0.92
0.14,0.47,0.89
0.11,0.49,0.87
0.09,0.5,0.87
0.09,0.5,0.89
0.09,0.5,0.9
0.09,0.51,0.9
0.1,0.53,0.89
0.13,0.55,0.88
0.16,0.56,0.88
0.18,0.57,0.87
0.21,0.58,0.84
0.24,0.58,0.79
0.27,0.57,0.75
0.29,0.54,0.72
0.32,0.51,0.7
0.35,0.47,0.72
0.34,0.44,0.74
0.3,0.41,0.76
0.27,0.39,0.77
0.25,0.37,0.8
0.23,0.34,0.84
0.2,0.31,0.87
0.19,0.3,0.89
0.19,0.31,0.92
0.21,0.33,1
0.25,0.39,1.03
0.28,0.42,1.05
0.3,0.44,1.03
0.31,0.43,0.98
0.31,0.4,0.92
0.29,0.37,0.9
0.25,0.35,0.89
0.19,0.35,0.91
0.13,0.36,0.92
0.07,0.37,0.92
0.01,0.37,0.91
-0.04,0.34,0.89
-0.07,0.32,0.87
-0.09,0.3,0.87
-0.08,0.28,0.9
-0.05,0.28,0.93
-0.01,0.29,0.97
0.04,0.3,1
0.09,0.32,1.01
0.13,0.35,0.99
0.15,0.37,0.95
0.18,0.39,0.9
0.19,0.41,0.86
0.18,0.44,0.84
0.18,0.45,0.84
0.2,0.47,0.86
0.23,0.5,0.87
0.25,0.5,0.88
0.26,0.5,0.88
0.25,0.49,0.88
0.23,0.48,0.89
0.19,0.48,0.89
0.16,0.5,0.89
0.14,0.51,0.89
0.13,0.53,0.9
0.15,0.55,0.91
0.16,0.57,0.91
0.16,0.57,0.92
0.17,0.56,0.91
0.17,0.55,0.9
0.15,0.52,0.89
0.14,0.49,0.88
0.14,0.47,0.86
0.15,0.45,0.84
0.16,0.42,0.83
0.16,0.39,0.82
0.16,0.36,0.82
0.14,0.33,0.82
0.12,0.3,0.84
0.09,0.27,0.88
0.06,0.26,0.91
0.06,0.25,0.94
0.08,0.24,0.96
0.1,0.23,0.93
0.12,0.22,0.9
0.14,0.23,0.87
0.16,0.25,0.84
0.2,0.27,0.82
0.22,0.29,0.81
0.22,0.32,0.79
0.23,0.37,0.79
0.23,0.41,0.82
0.21,0.45,0.87
0.22,0.48,0.93
0.23,0.5,0.97
0.22,0.51,0.95
0.24,0.49,0.92
0.26,0.46,0.91
0.26,0.42,0.92
0.24,0.39,0.95
0.19,0.38,1
0.1,0.37,1.04
0.04,0.35,1.05
0,0.33,1.01
-0.01,0.31,0.96
0.01,0.31,0.91
0.04,0.32,0.88
0.09,0.32,0.89
0.12,0.38,0.93
0.16,0.42,0.96
0.17,0.46,0.98
0.17,0.48,0.98
0.17,0.51,0.95
0.18,0.54,0.91
0.2,0.57,0.89
0.22,0.59,0.86
0.22,0.6,0.85
0.2,0.6,0.85
0.17,0.6,0.85
0.14,0.62,0.86
0.14,0.63,0.87
0.13,0.63,0.89
0.13,0.64,0.89
0.13,0.63,0.88
0.15,0.61,0.86
0.16,0.58,0.84
0.18,0.55,0.82
0.2,0.5,0.79
0.21,0.46,0.77
0.21,0.41,0.77
0.21,0.37,0.78
0.18,0.34,0.8
0.15,0.3,0.81
0.14,0.26,0.82
0.15,0.21,0.88
0.16,0.19,0.89
0.17,0.2,0.87
0.17,0.21,0.82
0.19,0.24,0.77
0.22,0.26,0.77
0.25,0.3,0.8
0.27,0.34,0.86
0.29,0.38,0.94
0.31,0.41,1.04
0.3,0.43,1.13
0.27,0.45,1.15
0.24,0.45,1.12
0.21,0.45,1.04
0.18,0.43,0.95
0.15,0.42,0.87
0.13,0.39,0.8
0.1,0.35,0.77
0.07,0.3,0.78
0.04,0.27,0.84
0.03,0.26,0.92
0.03,0.26,1
0.03,0.26,1.05
0.05,0.27,1.05
0.08,0.29,0.99
0.1,0.3,0.93
0.14,0.32,0.85
0.17,0.38,0.84
0.17,0.42,0.86
0.15,0.46,0.92
0.13,0.49,0.96
0.11,0.51,0.98
0.11,0.54,0.98
0.11,0.55,0.97
0.12,0.55,0.95
0.13,0.55,0.92
0.14,0.55,0.9
0.15,0.55,0.9
0.14,0.54,0.9
0.12,0.53,0.92
0.12,0.52,0.94
0.14,0.51,0.95
0.12,0.51,0.94
0.13,0.51,0.91
0.16,0.52,0.88
0.16,0.52,0.86
0.16,0.52,0.83
0.19,0.51,0.8
0.21,0.48,0.79
0.22,0.44,0.77
0.24,0.41,0.75
0.25,0.4,0.73
0.25,0.38,0.74
0.25,0.33,0.75
0.22,0.3,0.8
0.21,0.27,0.87
0.22,0.24,0.93
0.21,0.23,0.98
0.21,0.23,0.99
0.22,0.24,0.99
0.22,0.27,0.95
0.21,0.29,0.92
0.21,0.31,0.93
0.22,0.32,0.95
0.22,0.32,0.99
0.22,0.32,1.03
0.22,0.32,1.06
0.21,0.33,1.09
0.19,0.32,1.1
0.16,0.32,1.07
0.11,0.31,1
0.08,0.3,0.93
0.04,0.29,0.86
-0.01,0.28,0.81
-0.04,0.28,0.79
-0.06,0.29,0.81
-0.06,0.31,0.86
-0.03,0.33,0.94
0,0.35,1.02
0.09,0.4,1.03
0.15,0.43,1
0.19,0.46,0.95
0.22,0.48,0.91
0.24,0.49,0.88
0.23,0.49,0.85
0.22,0.48,0.84
0.2,0.47,0.83
0.18,0.46,0.83
0.16,0.44,0.84
0.16,0.44,0.86
0.16,0.44,0.89
0.17,0.44,0.91
0.18,0.44,0.92
0.19,0.43,0.91
0.16,0.42,0.91
0.13,0.39,0.91
0.11,0.38,0.9
0.11,0.37,0.9
0.11,0.37,0.91
0.08,0.38,0.89
0.08,0.4,0.87
0.18,0.41,0.87
0.28,0.43,0.88
0.31,0.43,0.89
0.38,0.39,0.94
0.45,0.38,1.01
0.38,0.37,1.01
0.32,0.38,0.96
0.24,0.4,0.91
0.16,0.41,0.88
0.11,0.42,0.85
0.1,0.42,0.83
0.09,0.41,0.81
0.09,0.4,0.8
0.12,0.38,0.8
0.17,0.36,0.82
0.19,0.34,0.84
0.21,0.33,0.87
0.24,0.31,0.89
0.25,0.3,0.88
0.26,0.27,0.87
0.26,0.25,0.86
0.27,0.23,0.86
0.27,0.2,0.91
0.25,0.19,0.96
0.23,0.19,1.02
0.22,0.2,1.05
0.2,0.21,1.02
0.18,0.22,0.95
0.17,0.22,0.9
0.14,0.23,0.87
0.12,0.22,0.89
0.09,0.23,0.91
0.09,0.26,0.93
0.1,0.28,0.95
0.12,0.29,0.95
0.13,0.31,0.95
0.15,0.35,0.95
0.16,0.4,0.97
0.17,0.44,0.98
0.18,0.49,0.98
0.2,0.52,0.97
0.21,0.54,0.96
0.22,0.54,0.94
0.2,0.53,0.92
0.2,0.52,0.89
0.2,0.52,0.87
0.19,0.53,0.84
0.18,0.54,0.82
0.16,0.53,0.81
0.14,0.52,0.8
0.14,0.51,0.8
0.17,0.51,0.81
0.22,0.51,0.82
0.27,0.5,0.84
0.31,0.49,0.88
0.35,0.48,0.91
0.36,0.46,0.96
0.36,0.44,0.95
0.34,0.43,0.93
0.32,0.42,0.92
0.28,0.43,0.9
0.27,0.45,0.84
0.29,0.44,0.78
0.32,0.43,0.76
0.33,0.42,0.77
0.31,0.41,0.79
0.28,0.39,0.82
0.26,0.38,0.86
0.23,0.37,0.89
0.16,0.36,0.93
0.09,0.35,0.95
0.11,0.35,0.95
0.16,0.36,0.93
0.2,0.37,0.88
0.22,0.37,0.84
0.24,0.36,0.83
0.27,0.34,0.88
0.29,0.32,0.95
0.3,0.33,1.02
0.3,0.35,1.09
0.3,0.37,1.12
0.29,0.38,1.1
0.28,0.37,0.93
0.29,0.28,0.84
0.3,0.24,0.76
0.3,0.21,0.74
0.28,0.19,0.77
0.25,0.2,0.81
0.23,0.23,0.86
0.19,0.25,0.92
0.15,0.27,0.96
0.16,0.29,0.98
0.19,0.31,0.97
0.21,0.32,0.95
0.24,0.34,0.93
0.26,0.36,0.92
0.27,0.38,0.9
0.29,0.4,0.89
0.29,0.41,0.89
0.28,0.43,0.89
0.26,0.44,0.88
0.24,0.45,0.86
0.2,0.45,0.86
0.17,0.44,0.85
0.13,0.45,0.84
0.11,0.47,0.83
0.15,0.5,0.82
0.18,0.52,0.83
0.18,0.51,0.87
0.18,0.5,0.87
0.25,0.53,0.85
0.31,0.55,0.85
0.35,0.55,0.86
0.36,0.55,0.9
0.38,0.54,0.92
0.46,0.52,0.91
0.52,0.51,0.89
0.51,0.5,0.89
0.49,0.5,0.88
0.46,0.49,0.86
0.41,0.48,0.84
0.37,0.46,0.84
0.32,0.46,0.84
0.27,0.45,0.82
0.24,0.44,0.79
0.24,0.42,0.79
0.23,0.41,0.78
0.22,0.41,0.76
0.24,0.42,0.74
0.24,0.43,0.74
0.19,0.42,0.75
0.15,0.42,0.77
0.15,0.43,0.78
0.2,0.43,0.79
0.23,0.42,0.89
0.21,0.36,0.94
0.11,0.33,0.98
0.01,0.29,0.98
0.04,0.28,0.95
0.13,0.27,0.92
0.2,0.26,0.95
0.22,0.24,1
0.23,0.21,1.06
0.24,0.19,1.12
0.27,0.2,1.14
0.28,0.22,1.11
0.28,0.24,1.03
0.26,0.25,0.96
0.25,0.26,0.9
0.24,0.25,0.86
0.23,0.25,0.85
0.21,0.27,0.85
0.18,0.31,0.87
0.14,0.34,0.9
0.11,0.37,0.93
0.09,0.42,0.98
0.09,0.48,1.04
0.1,0.52,1.09
0.14,0.54,1.11
0.18,0.55,1.1
0.22,0.54,1
0.27,0.49,0.95
0.29,0.47,0.9
0.29,0.44,0.85
0.3,0.42,0.82
0.31,0.4,0.79
0.31,0.4,0.78
0.31,0.4,0.79
0.29,0.4,0.79
0.27,0.38,0.76
0.25,0.36,0.74
0.24,0.34,0.74
0.24,0.3,0.73
0.24,0.27,0.75
0.23,0.24,0.78
0.23,0.23,0.81
0.23,0.23,0.84
0.23,0.22,0.87
0.22,0.22,0.89
0.2,0.21,0.9
0.2,0.22,0.91
0.2,0.22,0.92
0.18,0.23,0.96
0.15,0.24,1.01
0.13,0.26,1.05
0.11,0.27,1.06
0.11,0.3,1.05
0.12,0.33,1.04
0.19,0.34,1.03
0.24,0.34,1.02
0.26,0.32,1.01
0.26,0.29,1.01
0.23,0.25,1.02
0.21,0.2,1.02
0.2,0.16,1.03
0.19,0.14,1.02
0.19,0.12,1.01
0.2,0.11,0.98
0.2,0.11,0.93
0.19,0.1,0.88
0.2,0.1,0.84
0.18,0.09,0.83
0.12,0.08,0.86
0.1,0.09,0.89
0.08,0.11,0.92
0.05,0.13,0.94
0.03,0.17,0.95
0.01,0.22,0.98
-0.01,0.28,1.02
-0.01,0.34,1.04
0,0.4,1.04
0.03,0.45,1.03
0.05,0.48,1.02
0.07,0.53,0.99
0.12,0.53,0.98
0.13,0.52,0.98
0.15,0.5,0.97
0.14,0.49,0.96
0.13,0.48,0.95
0.12,0.47,0.92
0.11,0.46,0.9
0.1,0.44,0.86
0.09,0.41,0.81
0.11,0.39,0.76
0.13,0.37,0.73
0.15,0.33,0.73
0.17,0.28,0.75
0.17,0.23,0.77
0.16,0.18,0.81
0.13,0.15,0.86
0.1,0.12,0.9
0.08,0.1,0.92
0.06,0.09,0.94
0.05,0.09,0.94
0.06,0.09,0.94
0.1,0.1,0.93
0.1,0.1,0.94
0.1,0.12,0.97
0.14,0.15,0.99
0.14,0.19,1.02
0.13,0.27,1.02
0.1,0.3,1.01
0.08,0.32,1
0.05,0.34,0.99
0.03,0.35,0.98
0.03,0.35,0.97
0.08,0.35,0.95
0.14,0.34,0.93
0.23,0.33,0.93
0.31,0.31,0.95
0.35,0.29,0.96
0.37,0.28,0.97
0.43,0.26,1.01
0.5,0.24,1.06
0.54,0.24,1.07
0.53,0.23,1.02
0.55,0.22,0.93
0.66,0.23,0.86
0.72,0.25,0.84
0.67,0.27,0.82
0.6,0.27,0.8
0.55,0.25,0.79
0.54,0.22,0.76
0.48,0.18,0.72
0.52,0.17,0.71
0.59,0.16,0.6
0.57,0.09,0.59
0.57,0.08,0.59
0.65,0.05,0.58
0.7,0.03,0.63
0.66,0.01,0.68
0.68,-0.02,0.7
0.76,-0.02,0.72
0.79,-0.01,0.73
0.78,-0.01,0.74
0.75,0.01,0.77
0.73,0.04,0.76
0.69,0.06,0.74
0.65,0.09,0.72
0.61,0.12,0.69
0.59,0.16,0.69
0.61,0.21,0.68
0.62,0.22,0.69
0.72,0.22,0.72
0.88,0.21,0.73
0.94,0.18,0.77
0.95,0.16,0.82
0.97,0.16,0.84
0.99,0.16,0.82
0.99,0.16,0.77
1,0.15,0.7
0.98,0.14,0.69
0.81,0.18,0.73
0.77,0.19,0.75
0.73,0.21,0.76
0.71,0.23,0.74
0.75,0.23,0.69
0.83,0.18,0.65
0.88,0.11,0.61
0.87,0.09,0.59
0.85,0.12,0.57
0.84,0.12,0.53
0.77,0.11,0.51
0.64,0.15,0.54
0.57,0.21,0.59
0.61,0.27,0.6
0.67,0.31,0.59
0.69,0.36,0.61
0.69,0.39,0.61
0.7,0.42,0.61
0.64,0.43,0.64
0.54,0.42,0.67
0.55,0.45,0.67
0.58,0.47,0.65
0.52,0.47,0.63
0.49,0.44,0.6
0.46,0.43,0.58
0.43,0.42,0.51
0.42,0.37,0.48
0.41,0.35,0.49
0.35,0.32,0.58
0.28,0.31,0.68
0.23,0.32,0.77
0.2,0.33,0.84
0.21,0.33,0.91
0.23,0.33,0.97
0.3,0.33,1.02
0.33,0.35,1.05
0.25,0.37,1.1
0.19,0.39,1.18
0.13,0.42,1.2
0.06,0.47,1.16
-0.01,0.52,1.19
-0.14,0.52,1.31
-0.21,0.46,1.38
-0.2,0.45,1.42
-0.16,0.48,1.4
-0.04,0.49,1.28
0.1,0.52,1.14
0.18,0.57,1.03
0.21,0.6,0.93
0.23,0.6,0.84
0.24,0.58,0.8
0.26,0.55,0.81
0.27,0.44,0.8
0.31,0.41,0.81
0.32,0.4,0.78
0.34,0.37,0.77
0.37,0.33,0.8
0.4,0.32,0.78
0.42,0.3,0.73
0.43,0.27,0.71
0.44,0.24,0.72
0.39,0.25,0.77
0.29,0.28,0.86
0.21,0.29,0.96
0.16,0.29,1.04
0.13,0.3,1.08
0.1,0.27,1.08
0.1,0.24,1.04
0.09,0.23,0.95
0.07,0.24,0.86
0.06,0.25,0.81
0.07,0.27,0.78
0.1,0.28,0.78
0.13,0.29,0.82
0.17,0.32,0.86
0.21,0.36,0.9
0.25,0.41,0.92
0.27,0.47,0.91
0.26,0.54,0.88
0.27,0.56,0.87
0.23,0.56,0.87
0.17,0.58,0.85
0.11,0.61,0.84
0.06,0.62,0.85
0.01,0.62,0.89
-0.02,0.61,0.91
-0.02,0.59,0.93
-0.01,0.59,0.94
0,0.61,0.94
0,0.63,0.92
0.01,0.63,0.89
0.02,0.64,0.86
0.02,0.62,0.83
0.07,0.58,0.82
0.16,0.54,0.83
0.23,0.5,0.84
0.27,0.45,0.86
0.29,0.41,0.88
0.3,0.39,0.89
0.29,0.38,0.89
0.22,0.39,0.84
0.17,0.4,0.79
0.13,0.39,0.74
0.12,0.37,0.73
0.13,0.32,0.79
0.17,0.28,0.87
0.22,0.24,0.96
0.26,0.22,1.03
0.26,0.23,1.06
0.2,0.26,1.04
0.15,0.28,0.99
0.15,0.3,0.89
0.16,0.3,0.82
0.18,0.29,0.83
0.2,0.3,0.86
0.21,0.33,0.91
0.23,0.36,0.99
0.26,0.36,1.05
0.25,0.36,1.06
0.23,0.36,1.04
0.22,0.36,1.01
0.2,0.36,0.98
0.18,0.35,0.96
0.15,0.34,0.95
0.12,0.33,0.93
0.1,0.32,0.9
0.1,0.32,0.88
0.1,0.32,0.86
0.08,0.33,0.85
0.07,0.35,0.84
0.04,0.37,0.85
-0.01,0.42,0.88
-0.03,0.45,0.89
-0.04,0.47,0.9
-0.03,0.5,0.91
-0.01,0.52,0.92
0.02,0.54,0.91
0.05,0.53,0.87
0.08,0.51,0.82
0.12,0.48,0.79
0.16,0.45,0.76
0.21,0.43,0.74
0.27,0.41,0.75
0.25,0.4,0.8
0.21,0.39,0.85
0.2,0.38,0.87
0.18,0.36,0.88
0.18,0.35,0.88
0.18,0.34,0.89
0.17,0.32,0.93
0.17,0.3,0.94
0.16,0.31,0.92
0.16,0.33,0.88
0.19,0.36,0.86
0.23,0.42,0.87
0.23,0.47,0.92
0.24,0.52,0.99
0.34,0.61,1.01
0.27,0.62,1.03
0.2,0.61,1.03
0.14,0.61,1
0.08,0.61,0.97
0.04,0.59,0.92
0.03,0.56,0.87
0.04,0.53,0.85
0.05,0.49,0.84
0.07,0.46,0.83
0.08,0.41,0.83
0.11,0.37,0.81
0.14,0.35,0.78
0.18,0.34,0.77
0.22,0.34,0.78
0.26,0.34,0.8
0.29,0.33,0.82
0.31,0.32,0.87
0.33,0.32,0.94
0.34,0.32,0.98
0.34,0.33,0.99
0.33,0.33,0.96
0.32,0.34,0.94
0.3,0.33,0.91
0.27,0.32,0.89
0.23,0.28,0.9
0.18,0.27,0.91
0.18,0.27,0.92
0.21,0.27,0.91
0.24,0.27,0.9
0.29,0.27,0.88
0.34,0.29,0.88
0.37,0.32,0.87
0.36,0.35,0.86
0.35,0.37,0.85
0.32,0.39,0.84
0.27,0.42,0.84
0.22,0.45,0.84
0.17,0.48,0.86
0.12,0.51,0.87
0.08,0.54,0.89
0.05,0.56,0.9
0.03,0.58,0.9
0.02,0.59,0.9
0.03,0.59,0.9
0.04,0.6,0.9
0.06,0.61,0.89
0.1,0.62,0.89
0.13,0.62,0.89
0.15,0.61,0.88
0.17,0.58,0.87
0.18,0.55,0.86
0.18,0.48,0.85
0.18,0.44,0.84
0.21,0.39,0.84
0.25,0.35,0.85
0.28,0.3,0.85
0.3,0.26,0.84
0.33,0.24,0.86
0.34,0.24,0.88
0.33,0.24,0.91
0.32,0.25,0.92
0.3,0.27,0.9
0.29,0.28,0.87
0.3,0.28,0.83
0.35,0.31,0.82
0.38,0.35,0.84
0.37,0.41,0.91
0.35,0.46,1
0.31,0.49,1.03
0.27,0.49,1.02
0.24,0.48,0.98
0.24,0.45,0.92
0.23,0.42,0.87
0.22,0.39,0.85
0.22,0.37,0.85
0.22,0.35,0.85
0.21,0.34,0.85
0.19,0.32,0.86
0.2,0.31,0.86
0.2,0.3,0.86
0.22,0.29,0.86
0.24,0.29,0.85
0.26,0.29,0.84
0.29,0.28,0.83
0.32,0.28,0.81
0.34,0.28,0.81
0.35,0.29,0.81
0.36,0.32,0.82
0.36,0.36,0.83
0.35,0.39,0.84
0.32,0.42,0.85
0.29,0.44,0.87
0.26,0.46,0.88
0.25,0.49,0.9
0.24,0.47,0.88
0.23,0.46,0.86
0.24,0.47,0.85
0.24,0.49,0.84
0.24,0.5,0.83
0.23,0.5,0.83
0.19,0.5,0.84
0.16,0.49,0.81
0.16,0.47,0.78
0.16,0.46,0.79
0.14,0.46,0.82
0.15,0.46,0.87
0.21,0.47,0.92
0.26,0.5,0.92
0.3,0.52,0.91
0.27,0.51,0.9
0.22,0.53,0.89
0.16,0.54,0.93
0.06,0.52,0.98
0.02,0.52,0.99
0.01,0.51,0.97
-0.04,0.51,0.95
-0.1,0.5,0.96
-0.11,0.5,1.02
-0.11,0.48,1.06
-0.12,0.46,1.07
-0.12,0.43,1.04
-0.07,0.42,1.02
0.01,0.4,1.01
0.11,0.36,1
0.21,0.32,0.95
0.25,0.3,0.91
0.26,0.28,0.89
0.28,0.27,0.86
0.3,0.26,0.81
0.31,0.27,0.82
0.3,0.28,0.85
0.29,0.26,0.89
0.29,0.25,0.95
0.29,0.24,0.99
0.26,0.23,0.98
0.2,0.24,0.93
0.16,0.26,0.86
0.15,0.28,0.79
0.13,0.29,0.75
0.11,0.28,0.74
0.09,0.26,0.76
0.07,0.24,0.81
0.07,0.23,0.9
0.08,0.24,1.01
0.1,0.25,1.08
0.11,0.27,1.1
0.12,0.3,1.08
0.11,0.33,1.04
0.11,0.35,1
0.1,0.37,0.95
0.07,0.39,0.91
0.05,0.4,0.88
0.04,0.4,0.85
0.03,0.38,0.86
0.03,0.37,0.89
0.05,0.35,0.87
0.12,0.33,0.84
0.17,0.31,0.81
0.21,0.3,0.78
0.25,0.29,0.75
0.27,0.29,0.74
0.27,0.27,0.78
0.27,0.27,0.85
0.28,0.29,0.89
0.27,0.32,0.9
0.25,0.34,0.91
0.22,0.37,0.91
0.21,0.4,0.89
0.22,0.43,0.86
0.24,0.45,0.82
0.29,0.45,0.81
0.33,0.44,0.82
0.31,0.46,0.82
0.26,0.49,0.83
0.19,0.48,0.84
0.12,0.48,0.86
0.04,0.49,0.91
-0.04,0.51,0.98
-0.08,0.51,1.07
-0.09,0.52,1.13
-0.11,0.54,1.16
-0.17,0.54,1.17
-0.21,0.47,1.14
-0.2,0.45,1.1
-0.17,0.44,1.05
-0.12,0.43,1.01
-0.07,0.41,0.97
-0.03,0.39,0.93
0.01,0.37,0.92
0.04,0.36,0.91
0.06,0.34,0.89
0.09,0.33,0.88
0.13,0.33,0.88
0.18,0.31,0.89
0.21,0.3,0.88
0.23,0.31,0.88
0.24,0.32,0.86
0.24,0.32,0.84
0.22,0.32,0.82
0.2,0.31,0.8
0.18,0.29,0.79
0.17,0.28,0.77
0.15,0.28,0.76
0.14,0.27,0.76
0.12,0.27,0.75
0.1,0.26,0.76
0.1,0.24,0.8
0.12,0.22,0.84
0.09,0.22,0.85
0.08,0.21,0.82
0.1,0.19,0.8
0.14,0.15,0.81
0.12,0.15,0.83
-0.01,0.18,0.85
-0.03,0.16,0.88
0,0.13,0.91
-0.02,0.12,0.92
-0.04,0.12,0.93
-0.02,0.1,0.92
-0.04,0.12,0.89
-0.09,0.17,0.88
-0.06,0.18,0.91
-0.01,0.16,0.93
0.01,0.14,0.95
0.04,0.14,0.99
0.02,0.13,1.02
0.03,0.13,1.05
0.08,0.15,1.09
0.09,0.15,1.12
0.09,0.16,1.13
0.04,0.2,1.15
0.01,0.23,1.16
0.04,0.25,1.17
0.12,0.26,1.15
0.13,0.22,1.14
0.13,0.22,1.11
0.17,0.2,1.04
0.04,0.18,0.96
0.01,0.17,0.94
0.12,0.15,0.93
0.09,0.12,0.9
0.04,0.11,0.93
0.2,0.15,0.99
0.37,0.18,1.03
0.4,0.14,1.05
0.33,0.16,1.02
0.44,0.19,0.99
0.52,0.19,0.96
0.45,0.24,0.96
0.4,0.24,0.94
0.34,0.27,0.94
0.35,0.23,1.01
0.36,0.13,1.09
0.34,0.09,1.19
0.35,0.06,1.31
0.37,0.05,1.4
0.42,0.08,1.44
0.46,0.11,1.42
0.48,0.1,1.39
0.48,0.12,1.32
0.51,0.1,1.1
0.49,0.1,1.01
0.49,0.1,0.93
0.48,0.06,0.85
0.4,0.06,0.77
0.31,0.06,0.64
0.32,0.05,0.54
0.45,0.02,0.55
0.6,-0.03,0.61
0.67,0.01,0.66
0.7,0.02,0.7
0.69,0,0.7
0.67,0.02,0.69
0.7,0.04,0.67
0.76,0.07,0.64
0.8,0.1,0.63
0.83,0.13,0.61
0.85,0.14,0.59
0.87,0.15,0.57
0.87,0.16,0.54
0.85,0.16,0.51
0.83,0.15,0.47
0.82,0.14,0.45
0.82,0.13,0.42
0.83,0.13,0.41
0.84,0.13,0.41
0.84,0.12,0.41
0.87,0.1,0.41
0.9,0.1,0.42
0.94,0.1,0.42
0.98,0.1,0.43
1.02,0.1,0.42
1.04,0.1,0.42
1.05,0.09,0.42
1.05,0.09,0.43
1.04,0.11,0.43
1.01,0.12,0.43
0.98,0.13,0.42
0.95,0.13,0.41
0.91,0.14,0.39
0.87,0.14,0.37
0.84,0.13,0.36
0.82,0.1,0.36
0.82,0.09,0.36
0.84,0.08,0.36
0.85,0.05,0.36
0.87,0.04,0.37
0.9,0.03,0.37
0.93,0.03,0.37
0.96,0.03,0.37
0.99,0.03,0.37
1.01,0.03,0.36
1,0.02,0.37
1.02,0.02,0.36
1.01,0.03,0.34
0.99,0.03,0.32
0.97,0.04,0.3
0.95,0.04,0.29
0.95,0.06,0.28
0.96,0.06,0.27
0.99,0.06,0.27
1.02,0.06,0.27
1.01,0.05,0.29
1.02,0.05,0.3
1.04,0.05,0.32
1.08,0.04,0.35
1.1,0.03,0.37
1.1,0.02,0.38
1.09,0.01,0.38
1.06,0.01,0.38
1.02,0.03,0.37
1.01,0.04,0.37
1.03,0.04,0.38
1.03,0.02,0.39
1.01,0.02,0.39
0.97,0.05,0.39
0.93,0.08,0.38
0.91,0.09,0.38
0.9,0.09,0.36
0.85,0.08,0.35
0.83,0.08,0.35
0.83,0.07,0.34
0.83,0.06,0.32
0.84,0.06,0.32
0.89,0.07,0.33
0.98,0.06,0.36
1.12,0.02,0.38
1.26,-0.02,0.37
1.38,-0.08,0.36
1.42,-0.15,0.38
1.41,-0.21,0.39
1.43,-0.24,0.36
1.45,-0.27,0.33
1.41,-0.28,0.3
1.38,-0.26,0.28
1.35,-0.25,0.25
1.31,-0.26,0.22
1.25,-0.26,0.2
1.18,-0.29,0.21
1.11,-0.33,0.23
1.04,-0.37,0.25
0.98,-0.41,0.27
0.92,-0.45,0.29
0.88,-0.48,0.31
0.88,-0.54,0.36
0.93,-0.68,0.36
0.96,-0.71,0.34
0.97,-0.77,0.34
1.01,-0.81,0.36
1.03,-0.83,0.38
0.98,-0.89,0.36
0.92,-0.9,0.36
0.85,-0.92,0.36
0.72,-0.97,0.34
0.6,-0.98,0.3
0.57,-0.86,0.25
0.5,-0.87,0.17
0.38,-0.98,0.06
0.34,-0.97,0.01
0.39,-1.01,-0.04
0.45,-1,-0.06
0.48,-0.99,-0.04
0.48,-1.01,-0.01
0.49,-1.04,0.06
0.5,-1.08,0.12
0.52,-1.09,0.16
0.52,-1.09,0.18
0.51,-1.08,0.18
0.51,-1.09,0.16
0.49,-1.09,0.15
0.45,-1.06,0.14
0.43,-0.99,0.12
0.39,-0.95,0.12
0.38,-0.89,0.11
0.39,-0.83,0.12
0.36,-0.79,0.09
0.3,-0.76,0.06
0.3,-0.76,0.1
0.44,-0.77,0.14
0.64,-0.74,0.13
0.66,-0.7,0.12
0.5,-0.71,0.11
0.38,-0.73,0.07
0.35,-0.75,-0.01
0.35,-0.78,-0.08
0.36,-0.8,-0.13
0.36,-0.81,-0.19
0.32,-0.83,-0.24
0.29,-0.85,-0.29
0.3,-0.85,-0.32
0.32,-0.84,-0.29
0.35,-0.83,-0.25
0.39,-0.82,-0.22
0.42,-0.8,-0.19
0.44,-0.78,-0.15
0.46,-0.77,-0.13
0.45,-0.76,-0.15
0.44,-0.73,-0.22
0.45,-0.7,-0.25
0.44,-0.7,-0.25
0.43,-0.7,-0.25
0.42,-0.71,-0.24
0.4,-0.71,-0.22
0.38,-0.72,-0.21
0.38,-0.71,-0.2
0.37,-0.7,-0.19
0.37,-0.7,-0.19
0.38,-0.72,-0.19
0.38,-0.75,-0.19
0.38,-0.8,-0.18
0.38,-0.86,-0.18
0.39,-0.93,-0.17
0.39,-0.98,-0.15
0.38,-1,-0.13
0.35,-0.99,-0.12
0.33,-0.97,-0.11
0.3,-0.94,-0.1
0.28,-0.91,-0.11
0.27,-0.92,-0.11
0.26,-0.96,-0.12
0.27,-1.02,-0.12
0.28,-1.08,-0.11
0.31,-1.13,-0.09
0.35,-1.16,0
0.42,-1.17,0.07
0.43,-1.16,0.12
0.43,-1.14,0.16
0.41,-1.1,0.19
0.37,-1.06,0.21
0.35,-1.02,0.21
0.33,-1,0.22
0.31,-0.99,0.25
0.29,-1,0.27
0.27,-1.02,0.29
0.27,-1.05,0.32
0.28,-1.08,0.34
0.31,-1.11,0.34
0.33,-1.13,0.33
0.31,-1.16,0.35
0.28,-1.15,0.39
0.28,-1.13,0.44
0.27,-1.14,0.48
0.25,-1.13,0.53
0.23,-1.09,0.59
0.19,-1.09,0.61
0.15,-1.09,0.62
0.12,-1.07,0.65
0.08,-1.08,0.66
0.06,-1.15,0.67
0.07,-1.26,0.74
0.1,-1.53,0.74
0.07,-1.57,0.68
0.02,-1.58,0.55
-0.04,-1.57,0.39
-0.06,-1.58,0.21
0.01,-1.57,0.06
0.12,-1.53,0
0.21,-1.44,0
0.26,-1.35,0.03
0.29,-1.24,0.09
0.28,-1.16,0.16
0.23,-1.12,0.22
0.19,-1.12,0.27
0.21,-1.13,0.25
0.27,-1.14,0.17
0.33,-1.14,0.09
0.39,-1.12,0.04
0.41,-1.07,0.02
0.43,-1.02,0.02
0.43,-0.99,0.04
0.41,-0.95,0.06
0.42,-0.93,0.07
0.45,-0.97,0.05
0.41,-1,0.04
0.43,-0.99,0
0.43,-0.99,-0.03
0.46,-0.99,-0.04
0.48,-0.98,-0.07
0.53,-1,-0.1
0.56,-1.05,-0.12
0.55,-1.09,-0.13
0.57,-1.12,-0.14
0.58,-1.11,-0.14
0.55,-1.09,-0.11
0.54,-1.09,-0.09
0.54,-1.08,-0.06
0.51,-1.08,-0.01
0.49,-1.09,0.04
0.51,-1.12,0.06
0.51,-1.14,0.07
0.51,-1.14,0.07
0.5,-1.13,0.06
0.49,-1.12,0.04
0.48,-1.11,0.02
0.47,-1.09,0.02
0.46,-1.08,0.02
0.44,-1.07,0.04
0.42,-1.06,0.06
0.41,-1.04,0.08
0.39,-1.01,0.09
0.36,-0.98,0.11
0.3,-0.96,0.13
0.25,-0.95,0.14
0.24,-0.95,0.16
0.21,-0.95,0.17
0.19,-0.97,0.17
0.18,-0.99,0.18
0.18,-0.99,0.19
0.16,-0.99,0.2
0.14,-0.99,0.2
0.12,-0.99,0.2
0.09,-0.99,0.22
0.04,-0.99,0.24
-0.02,-0.99,0.26
-0.07,-0.96,0.26
-0.14,-0.93,0.26
-0.2,-0.91,0.28
-0.2,-0.88,0.28
-0.2,-0.9,0.27
-0.19,-0.92,0.25
-0.16,-0.94,0.23
-0.1,-0.95,0.19
-0.05,-0.98,0.17
0,-1.01,0.17
0.02,-1,0.19
0.03,-0.97,0.24
0.05,-0.94,0.29
0.06,-0.93,0.34
0.06,-0.98,0.37
0.04,-1.02,0.37
0.05,-1.06,0.34
0.06,-1.11,0.29
0.06,-1.15,0.24
0.08,-1.19,0.18
0.11,-1.23,0.14
0.13,-1.26,0.11
0.15,-1.28,0.11
0.16,-1.29,0.14
0.17,-1.27,0.19
0.2,-1.23,0.24
0.22,-1.19,0.29
0.23,-1.15,0.35
0.21,-1.12,0.4
0.2,-1.1,0.4
0.21,-1.08,0.38
0.19,-1.05,0.36
0.17,-1.02,0.35
0.17,-1.01,0.35
0.16,-1,0.38
0.16,-0.99,0.4
0.14,-1,0.4
0.15,-1.01,0.42
0.16,-0.99,0.46
0.15,-1,0.49
0.15,-1,0.5
0.15,-0.99,0.53
0.14,-0.99,0.54
0.12,-0.99,0.54
0.12,-0.98,0.55
0.13,-0.96,0.57
0.12,-0.94,0.58
0.09,-0.93,0.58
0.08,-0.93,0.58
0.08,-0.93,0.57
0.07,-0.92,0.55
0.06,-0.92,0.53
0.06,-0.92,0.51
0.08,-0.93,0.51
0.11,-0.94,0.5
0.15,-0.97,0.49
0.18,-1,0.48
0.2,-1.02,0.47
0.23,-1.06,0.46
0.23,-1.1,0.44
0.23,-1.13,0.42
0.23,-1.15,0.39
0.23,-1.17,0.37
0.22,-1.18,0.34
0.23,-1.17,0.32
0.26,-1.17,0.3
0.3,-1.24,0.28
0.44,-1.32,0.29
0.51,-1.39,0.33
0.56,-1.43,0.36
0.59,-1.41,0.4
0.62,-1.43,0.39
0.69,-1.45,0.32
0.67,-1.4,0.26
0.66,-1.42,0.18
0.68,-1.48,0.1
0.66,-1.49,0.07
0.66,-1.51,0.03
0.73,-1.54,-0.02
0.76,-1.56,-0.03
0.75,-1.53,0
0.75,-1.5,0.02
0.71,-1.47,0.05
0.68,-1.43,0.05
0.69,-1.39,0.03
0.67,-1.32,0.02
0.65,-1.27,-0.02
0.63,-1.24,-0.05
0.6,-1.2,-0.08
0.57,-1.15,-0.09
0.53,-1.11,-0.09
0.49,-1.07,-0.06
0.47,-1.05,0.02
0.45,-1.05,0.08
0.45,-1.07,0.14
0.46,-1.09,0.18
0.48,-1.12,0.19
0.48,-1.14,0.17
0.48,-1.15,0.12
0.47,-1.16,0.07
0.45,-1.16,0.04
0.42,-1.13,0.04
0.4,-1.09,0.05
0.38,-1.05,0.08
0.33,-1.01,0.13
0.28,-0.96,0.19
0.27,-0.89,0.23
0.26,-0.84,0.24
0.28,-0.82,0.22
0.27,-0.78,0.22
0.27,-0.77,0.22
0.27,-0.76,0.23
0.22,-0.75,0.25
0.21,-0.74,0.27
0.2,-0.73,0.27
0.18,-0.74,0.24
0.15,-0.73,0.22
0.13,-0.7,0.2
0.12,-0.68,0.21
0.07,-0.68,0.21
0.07,-0.68,0.22
0.05,-0.68,0.24
0.04,-0.69,0.28
0.06,-0.69,0.31
0.08,-0.7,0.34
0.09,-0.72,0.37
0.1,-0.76,0.38
0.14,-0.8,0.35
0.16,-0.84,0.3
0.15,-0.85,0.25
0.12,-0.83,0.22
0.14,-0.8,0.23
0.16,-0.83,0.24
0.18,-0.88,0.23
0.21,-0.95,0.24
0.24,-1.04,0.25
0.27,-1.13,0.26
0.28,-1.22,0.27
0.29,-1.31,0.27
0.29,-1.37,0.27
0.3,-1.43,0.29
0.3,-1.5,0.3
0.3,-1.54,0.28
0.29,-1.57,0.28
0.28,-1.58,0.27
0.28,-1.51,0.25
0.28,-1.46,0.24
0.29,-1.41,0.23
0.3,-1.35,0.24
0.3,-1.29,0.25
0.31,-1.25,0.26
0.31,-1.21,0.28
0.32,-1.17,0.29
0.33,-1.14,0.29
0.36,-1.1,0.29
0.37,-1.08,0.3
0.36,-1.07,0.32
0.36,-1.06,0.33
0.37,-1.04,0.35
0.38,-1.03,0.38
0.38,-1.03,0.4
0.4,-1.04,0.41
0.41,-1.05,0.42
0.41,-1.06,0.42
0.42,-1.07,0.46
0.44,-1.07,0.51
0.45,-1.04,0.53
0.47,-0.99,0.56
0.47,-0.98,0.55
0.47,-0.97,0.57
0.46,-0.96,0.61
0.44,-0.94,0.64
0.41,-0.94,0.65
0.36,-0.93,0.66
0.32,-0.93,0.65
0.29,-0.93,0.63
0.25,-0.92,0.61
0.22,-0.93,0.57
0.19,-0.95,0.54
0.16,-0.96,0.49
0.14,-0.98,0.44
0.13,-1,0.39
0.14,-1.02,0.35
0.16,-1.05,0.31
0.17,-1.09,0.27
0.17,-1.12,0.23
0.15,-1.13,0.19
0.15,-1.15,0.16
0.19,-1.21,0.15
0.23,-1.34,0.18
0.27,-1.51,0.2
0.28,-1.64,0.17
0.23,-1.67,0.12
0.19,-1.64,0.04
0.13,-1.6,-0.06
0.02,-1.57,-0.18
-0.05,-1.53,-0.29
-0.11,-1.53,-0.37
-0.25,-1.51,-0.34
-0.28,-1.48,-0.32
-0.29,-1.43,-0.31
-0.29,-1.4,-0.32
-0.26,-1.38,-0.35
-0.26,-1.36,-0.38
-0.31,-1.35,-0.42
-0.34,-1.31,-0.49
-0.36,-1.23,-0.56
-0.4,-1.14,-0.59
-0.39,-1.03,-0.6
-0.36,-0.96,-0.57
-0.34,-0.94,-0.5
-0.32,-0.93,-0.45
-0.3,-0.88,-0.41
-0.27,-0.84,-0.38
-0.23,-0.81,-0.39
-0.19,-0.79,-0.4
-0.16,-0.77,-0.4
-0.13,-0.75,-0.38
-0.1,-0.73,-0.34
-0.07,-0.73,-0.3
-0.06,-0.75,-0.26
-0.06,-0.78,-0.24
-0.03,-0.79,-0.22
0.01,-0.8,-0.25
0.1,-0.81,-0.24
0.15,-0.81,-0.23
0.19,-0.79,-0.21
0.22,-0.77,-0.17
0.22,-0.77,-0.11
0.22,-0.77,-0.06
0.22,-0.77,-0.01
0.23,-0.78,0.01
0.25,-0.81,0.02
0.27,-0.86,0.02
0.29,-0.91,-0.01
0.35,-0.96,-0.05
0.41,-1.01,-0.09
0.43,-1.06,-0.08
0.41,-1.09,-0.05
0.39,-1.08,-0.01
0.39,-1.07,0.03
0.39,-1.06,0.07
0.41,-1.06,0.09
0.44,-1.06,0.08
0.46,-1.08,0.06
0.46,-1.1,0.04
0.45,-1.11,0.01
0.45,-1.12,-0.02
0.44,-1.13,-0.03
0.42,-1.13,-0.01
0.36,-1.12,0
0.35,-1.11,0.01
0.34,-1.1,0
0.33,-1.09,-0.01
0.33,-1.07,-0.01
0.34,-1.07,-0.03
0.33,-1.07,-0.06
0.29,-1.07,-0.08
0.25,-1.06,-0.1
0.23,-1.05,-0.11
0.22,-1.02,-0.11
0.2,-1,-0.1
0.18,-0.96,-0.08
0.16,-0.93,-0.08
0.13,-0.95,-0.08
0.08,-0.97,-0.06
0.02,-0.96,-0.04
0.02,-0.94,-0.01
0.03,-0.95,0.05
0.02,-0.98,0.1
0.01,-1.02,0.11
-0.04,-1.06,0.08
-0.11,-1.1,0.03
-0.14,-1.15,-0.01
-0.14,-1.19,-0.05
-0.11,-1.2,-0.1
-0.04,-1.17,-0.08
-0.01,-1.16,-0.02
-0.02,-1.13,0.02
-0.07,-1.07,-0.03
-0.05,-1.01,0
-0.23,-0.99,0.05
-0.37,-0.96,0.06
-0.48,-0.91,0.08
-0.61,-0.91,0.06
-0.54,-0.93,0.04
-0.38,-0.93,0.02
-0.14,-0.95,-0.02
0.01,-0.96,-0.05
0.02,-0.94,-0.02
-0.05,-0.94,-0.01
-0.07,-0.98,-0.01
-0.05,-1,0.05
-0.05,-1.01,0.13
-0.12,-1.02,0.16
-0.01,-1.1,0.14
0.25,-1.14,0.15
0.36,-1.12,0.14
0.43,-1.2,0.15
0.48,-1.29,0.16
0.48,-1.4,0.13
0.44,-1.5,0.13
0.23,-1.26,0.05
0.22,-1.12,0.01
0.25,-0.97,-0.02
0.34,-0.84,-0.07
0.45,-0.81,-0.1
0.49,-0.85,-0.01
0.52,-0.92,0.08
0.51,-1,0.09
0.43,-1.04,0.09
0.42,-1.05,0.06
0.45,-1.04,0
0.42,-1,-0.08
0.47,-0.92,-0.03
0.6,-0.88,0
0.66,-0.88,-0.03
0.65,-0.89,0.01
0.64,-0.9,0.02
0.63,-0.91,0.03
0.66,-0.9,0.06
0.7,-0.87,0.1
0.7,-0.82,0.13
0.69,-0.8,0.12
0.64,-0.82,0.14
0.61,-0.83,0.21
0.61,-0.81,0.29
0.61,-0.78,0.37
0.57,-0.71,0.44
0.56,-0.69,0.45
0.54,-0.68,0.44
0.51,-0.67,0.41
0.5,-0.68,0.4
0.5,-0.68,0.41
0.5,-0.7,0.43
0.49,-0.75,0.43
0.49,-0.81,0.43
0.5,-0.83,0.44
0.49,-0.83,0.45
0.49,-0.82,0.45
0.5,-0.8,0.44
0.51,-0.76,0.45
0.52,-0.75,0.47
0.51,-0.76,0.48
0.49,-0.75,0.5
0.48,-0.73,0.48
0.48,-0.73,0.49
0.5,-0.72,0.53
0.52,-0.72,0.56
0.52,-0.72,0.61
0.53,-0.72,0.63
0.54,-0.73,0.63
0.53,-0.71,0.63
0.5,-0.67,0.64
0.46,-0.59,0.65
0.45,-0.54,0.66
0.45,-0.48,0.66
0.44,-0.45,0.66
0.43,-0.44,0.66
0.44,-0.44,0.65
0.46,-0.43,0.66
0.47,-0.45,0.69
0.46,-0.47,0.73
0.46,-0.47,0.76
0.45,-0.49,0.76
0.45,-0.49,0.75
0.44,-0.48,0.75
0.45,-0.48,0.75
0.47,-0.48,0.75
0.48,-0.48,0.74
0.48,-0.48,0.72
0.49,-0.48,0.71
0.49,-0.48,0.7
0.49,-0.47,0.7
0.49,-0.46,0.7
0.48,-0.45,0.72
0.51,-0.45,0.72
0.55,-0.44,0.73
0.56,-0.43,0.74
0.56,-0.43,0.75
0.55,-0.41,0.77
0.55,-0.4,0.76
0.54,-0.4,0.74
0.5,-0.39,0.74
0.48,-0.39,0.73
0.48,-0.37,0.71
0.49,-0.35,0.69
0.5,-0.33,0.7
0.52,-0.32,0.71
0.54,-0.31,0.7
0.55,-0.31,0.71
0.54,-0.32,0.75
0.51,-0.31,0.79
0.49,-0.31,0.82
0.45,-0.32,0.84
0.39,-0.33,0.84
0.36,-0.33,0.83
0.35,-0.32,0.81
0.35,-0.34,0.77
0.36,-0.35,0.73
0.41,-0.36,0.71
0.46,-0.38,0.7
0.5,-0.41,0.7
0.5,-0.43,0.72
0.47,-0.44,0.76
0.45,-0.45,0.85
0.5,-0.43,1.12
0.47,-0.63,1.08
0.35,-0.5,1.03
0.32,-0.47,0.94
0.32,-0.51,0.85
0.32,-0.51,0.81
0.31,-0.48,0.8
0.31,-0.48,0.82
0.33,-0.49,0.83
0.35,-0.49,0.83
0.4,-0.49,0.84
0.46,-0.49,0.84
0.51,-0.5,0.82
0.53,-0.49,0.83
0.52,-0.48,0.84
0.48,-0.48,0.86
0.43,-0.45,0.89
0.4,-0.43,0.91
0.4,-0.46,0.91
0.4,-0.47,0.9
0.39,-0.47,0.9
0.4,-0.48,0.9
0.41,-0.48,0.9
0.39,-0.46,0.92
0.39,-0.46,0.92
0.38,-0.45,0.92
0.39,-0.46,0.92
0.39,-0.45,0.91
0.4,-0.46,0.91
0.4,-0.44,0.9
0.42,-0.43,0.88
0.44,-0.42,0.86
0.45,-0.39,0.85
0.46,-0.37,0.84
0.47,-0.39,0.83
0.47,-0.38,0.83
0.45,-0.33,0.85
0.45,-0.33,0.85
0.45,-0.33,0.85
0.46,-0.33,0.86
0.46,-0.33,0.85
0.45,-0.33,0.85
0.45,-0.32,0.85
0.46,-0.32,0.85
0.47,-0.31,0.84
0.48,-0.31,0.84
0.49,-0.3,0.83
0.49,-0.3,0.82
0.49,-0.3,0.82
0.49,-0.3,0.82
0.49,-0.3,0.82
0.49,-0.31,0.81
0.5,-0.31,0.81
0.49,-0.31,0.83
0.48,-0.31,0.83
0.47,-0.31,0.84
0.47,-0.31,0.84
0.47,-0.31,0.85
0.47,-0.31,0.85
0.47,-0.31,0.85
0.47,-0.31,0.84
0.47,-0.31,0.84
0.48,-0.31,0.84
0.48,-0.31,0.84
0.48,-0.31,0.83
0.49,-0.31,0.83
0.5,-0.31,0.83
0.5,-0.32,0.84
0.49,-0.32,0.84
0.49,-0.31,0.84
0.48,-0.31,0.84
0.48,-0.31,0.84
0.48,-0.3,0.84
0.47,-0.3,0.85
0.47,-0.3,0.85
0.47,-0.3,0.85
0.47,-0.3,0.85
0.47,-0.3,0.85
0.48,-0.3,0.84
0.48,-0.3,0.84
0.49,-0.3,0.84
0.49,-0.3,0.84
0.48,-0.3,0.85
0.47,-0.29,0.84
0.47,-0.29,0.85
0.47,-0.3,0.85
0.46,-0.29,0.85
0.47,-0.29,0.85
0.47,-0.3,0.85
0.47,-0.3,0.85
0.46,-0.29,0.85
0.46,-0.29,0.85
0.46,-0.29,0.85
0.46,-0.29,0.85
0.45,-0.29,0.85
0.45,-0.29,0.85
0.46,-0.29,0.86
0.46,-0.3,0.86
0.45,-0.3,0.86
0.45,-0.29,0.86
0.45,-0.29,0.86
0.46,-0.29,0.86
0.46,-0.29,0.86
0.47,-0.29,0.86
0.47,-0.28,0.87
0.47,-0.28,0.86
0.46,-0.27,0.85
0.47,-0.29,0.84
0.48,-0.29,0.85
0.47,-0.28,0.86
0.46,-0.28,0.85
0.46,-0.28,0.85
0.46,-0.28,0.86
0.46,-0.28,0.86
0.45,-0.27,0.86
0.45,-0.27,0.87
0.45,-0.27,0.87
0.45,-0.27,0.87
0.45,-0.27,0.87
0.45,-0.26,0.86
0.45,-0.26,0.86
0.45,-0.26,0.85
0.45,-0.27,0.85
0.44,-0.27,0.85
0.45,-0.27,0.86
0.46,-0.26,0.86
0.46,-0.26,0.86
0.47,-0.26,0.86
0.47,-0.26,0.86
0.47,-0.26,0.86
0.47,-0.26,0.86
0.47,-0.26,0.86
0.46,-0.26,0.86
0.46,-0.26,0.86
0.46,-0.27,0.86
0.45,-0.27,0.86
0.46,-0.27,0.87
0.46,-0.26,0.87
0.45,-0.27,0.86
0.46,-0.27,0.87
0.46,-0.27,0.86
0.46,-0.27,0.86
0.46,-0.27,0.86
0.46,-0.27,0.86
0.46,-0.26,0.86
0.46,-0.26,0.86
0.46,-0.26,0.86
0.46,-0.26,0.86
0.46,-0.26,0.86
0.46,-0.26,0.86
0.46,-0.26,0.86
0.45,-0.26,0.86
0.45,-0.26,0.86
0.45,-0.26,0.86
0.45,-0.26,0.87
0.45,-0.26,0.87
0.46,-0.26,0.87
0.46,-0.26,0.86
0.46,-0.26,0.86
0.46,-0.26,0.86
0.46,-0.26,0.86
0.46,-0.26,0.86
0.46,-0.26,0.86
0.46,-0.26,0.86
0.45,-0.26,0.86
0.46,-0.26,0.86
0.46,-0.26,0.86
0.45,-0.26,0.86
0.45,-0.26,0.86
0.46,-0.26,0.86
0.46,-0.27,0.86
0.46,-0.26,0.86
0.46,-0.26,0.86
0.46,-0.27,0.86
0.46,-0.26,0.86
0.46,-0.27,0.86
0.47,-0.27,0.86
0.47,-0.27,0.87
0.46,-0.27,0.87
0.46,-0.27,0.86
0.46,-0.27,0.86
0.46,-0.27,0.86
0.46,-0.27,0.86
0.45,-0.27,0.87
0.46,-0.27,0.87
0.47,-0.27,0.86
0.46,-0.27,0.86
0.46,-0.27,0.86
0.46,-0.26,0.86
0.45,-0.26,0.86
0.46,-0.26,0.86
0.46,-0.26,0.86
0.46,-0.26,0.86
0.46,-0.27,0.86
0.46,-0.27,0.86
0.46,-0.27,0.86
0.46,-0.27,0.86
0.46,-0.27,0.86
0.46,-0.27,0.86
0.46,-0.27,0.86
0.46,-0.27,0.86
0.46,-0.28,0.86
0.47,-0.28,0.86
0.46,-0.27,0.86
0.46,-0.27,0.86
0.46,-0.27,0.86
0.46,-0.27,0.86
0.46,-0.27,0.86
0.46,-0.27,0.86
0.46,-0.27,0.86
0.46,-0.28,0.87
0.46,-0.28,0.87
0.46,-0.27,0.86
0.47,-0.27,0.86
0.47,-0.27,0.86
0.47,-0.27,0.86
0.47,-0.27,0.86
0.47,-0.27,0.86
0.46,-0.27,0.85
0.46,-0.27,0.86
0.46,-0.27,0.86
0.46,-0.27,0.86
0.46,-0.27,0.87
0.46,-0.27,0.87
0.46,-0.27,0.86
0.46,-0.28,0.86
0.46,-0.28,0.86
0.46,-0.27,0.86
0.46,-0.27,0.86
0.46,-0.27,0.86
0.46,-0.27,0.86
0.46,-0.27,0.86
0.46,-0.27,0.86
0.45,-0.27,0.86
0.46,-0.27,0.86
0.46,-0.27,0.86
0.46,-0.28,0.86
