Acc_x,Acc_y,Acc_z
0.6,-0.08,0.83
0.58,-0.08,0.78
0.57,-0.08,0.75
0.56,-0.09,0.74
0.58,-0.1,0.75
0.59,-0.11,0.78
0.6,-0.12,0.8
0.61,-0.12,0.83
0.62,-0.12,0.84
0.62,-0.12,0.85
0.61,-0.11,0.84
0.6,-0.11,0.82
0.59,-0.11,0.81
0.58,-0.11,0.79
0.58,-0.11,0.79
0.58,-0.12,0.8
0.59,-0.12,0.81
0.6,-0.11,0.82
0.6,-0.11,0.83
0.6,-0.11,0.83
0.61,-0.11,0.83
0.6,-0.11,0.83
0.6,-0.11,0.82
0.59,-0.11,0.81
0.59,-0.11,0.8
0.59,-0.11,0.8
0.59,-0.11,0.8
0.6,-0.11,0.8
0.61,-0.11,0.81
0.62,-0.12,0.82
0.63,-0.13,0.84
0.64,-0.13,0.85
0.63,-0.12,0.86
0.62,-0.11,0.89
0.6,-0.11,0.89
0.59,-0.11,0.9
0.6,-0.11,0.9
0.63,-0.11,0.89
0.65,-0.11,0.87
0.67,-0.11,0.85
0.7,-0.12,0.85
0.7,-0.13,0.86
0.73,-0.13,0.89
0.75,-0.15,0.91
0.78,-0.14,0.92
0.76,-0.12,0.9
0.74,-0.1,0.88
0.74,-0.09,0.85
0.75,-0.08,0.84
0.75,-0.05,0.83
0.76,-0.02,0.83
0.76,0.02,0.84
0.75,0.04,0.85
0.71,0.07,0.86
0.67,0.09,0.85
0.63,0.1,0.85
0.62,0.12,0.83
0.61,0.12,0.81
0.59,0.12,0.78
0.59,0.12,0.77
0.58,0.12,0.77
0.57,0.12,0.75
0.55,0.13,0.73
0.54,0.14,0.72
0.54,0.14,0.71
0.54,0.15,0.71
0.54,0.16,0.7
0.54,0.16,0.7
0.53,0.15,0.68
0.52,0.17,0.66
0.51,0.17,0.65
0.5,0.17,0.63
0.49,0.18,0.61
0.48,0.18,0.59
0.48,0.18,0.58
0.47,0.18,0.57
0.46,0.18,0.57
0.46,0.19,0.57
0.45,0.18,0.56
0.45,0.18,0.56
0.45,0.17,0.56
0.46,0.16,0.56
0.48,0.15,0.56
0.48,0.15,0.55
0.47,0.15,0.53
0.45,0.15,0.52
0.44,0.14,0.5
0.43,0.14,0.48
0.41,0.13,0.47
0.39,0.12,0.47
0.38,0.11,0.47
0.38,0.09,0.47
0.37,0.07,0.48
0.37,0.04,0.47
0.35,-0.03,0.46
0.33,-0.09,0.45
0.38,-0.12,0.39
0.69,-0.52,0.91
1.67,-0.44,2.09
2.43,0,2.54
2.11,-0.2,2.41
1.39,-0.3,2.3
0.97,-0.18,1.76
0.89,-0.07,1.11
0.71,0.02,0.7
0.48,0.04,0.49
0.36,-0.02,0.4
0.29,-0.07,0.37
0.25,-0.07,0.35
0.24,-0.08,0.35
0.25,-0.12,0.4
0.3,-0.17,0.53
0.39,-0.2,0.7
0.52,-0.21,0.87
0.65,-0.2,1.03
0.78,-0.18,1.13
0.85,-0.16,1.17
0.84,-0.12,1.13
0.77,-0.09,1.02
0.7,-0.07,0.76
0.56,-0.06,0.69
0.51,-0.08,0.65
0.48,-0.1,0.65
0.48,-0.12,0.67
0.47,-0.14,0.72
0.5,-0.15,0.78
0.55,-0.16,0.86
0.6,-0.16,0.91
0.63,-0.15,0.95
0.64,-0.13,0.95
0.63,-0.12,0.92
0.61,-0.1,0.86
0.58,-0.09,0.81
0.56,-0.09,0.77
0.55,-0.09,0.75
0.55,-0.1,0.75
0.56,-0.11,0.77
0.58,-0.12,0.8
0.6,-0.13,0.83
0.61,-0.13,0.84
0.61,-0.12,0.85
0.61,-0.12,0.85
0.6,-0.11,0.84
0.59,-0.11,0.83
0.58,-0.11,0.81
0.57,-0.11,0.81
0.58,-0.13,0.82
0.58,-0.13,0.83
0.59,-0.12,0.86
0.59,-0.12,0.87
0.58,-0.12,0.88
0.57,-0.12,0.91
0.58,-0.11,0.92
0.62,-0.11,0.94
0.66,-0.13,0.95
0.69,-0.14,0.93
0.69,-0.15,0.88
0.68,-0.14,0.84
0.66,-0.12,0.81
0.64,-0.11,0.82
0.65,-0.11,0.83
0.64,-0.1,0.84
0.63,-0.09,0.85
0.64,-0.08,0.87
0.67,-0.08,0.89
0.69,-0.07,0.9
0.69,-0.05,0.9
0.68,-0.03,0.89
0.65,-0.01,0.88
0.64,0,0.86
0.63,0.01,0.84
0.62,0.03,0.82
0.61,0.04,0.8
0.59,0.04,0.79
0.58,0.04,0.77
0.57,0.04,0.76
0.56,0.04,0.75
0.55,0.05,0.73
0.54,0.05,0.73
0.55,0.05,0.72
0.55,0.05,0.7
0.54,0.06,0.69
0.53,0.06,0.67
0.52,0.06,0.66
0.51,0.06,0.65
0.5,0.07,0.64
0.49,0.07,0.64
0.48,0.07,0.63
0.47,0.07,0.62
0.47,0.07,0.62
0.48,0.05,0.62
0.49,0.04,0.63
0.5,0.03,0.63
0.5,0.01,0.63
0.5,0.01,0.63
0.49,0,0.62
0.48,0,0.61
0.47,-0.01,0.6
0.47,-0.01,0.6
0.46,-0.02,0.59
0.45,-0.02,0.59
0.46,-0.04,0.59
0.49,-0.05,0.58
0.48,-0.08,0.57
0.43,-0.11,0.57
0.7,-0.28,0.82
1.04,-0.33,1.61
1.3,-0.11,1.96
1.43,-0.08,1.83
1.13,-0.15,1.84
0.78,-0.11,1.59
0.63,-0.04,1.19
0.57,-0.01,0.86
0.51,0,0.66
0.46,-0.02,0.58
0.43,-0.06,0.55
0.4,-0.09,0.54
0.39,-0.11,0.54
0.41,-0.15,0.57
0.45,-0.18,0.65
0.52,-0.2,0.75
0.6,-0.2,0.85
0.67,-0.19,0.93
0.72,-0.18,0.96
0.71,-0.16,0.94
0.64,-0.1,0.88
0.6,-0.09,0.82
0.56,-0.09,0.77
0.53,-0.09,0.75
0.52,-0.1,0.73
0.53,-0.11,0.74
0.54,-0.13,0.77
0.57,-0.14,0.8
0.59,-0.14,0.84
0.61,-0.13,0.88
0.62,-0.12,0.89
0.61,-0.11,0.89
0.59,-0.1,0.86
0.58,-0.09,0.84
0.57,-0.09,0.81
0.56,-0.09,0.79
0.57,-0.1,0.78
0.57,-0.11,0.79
0.59,-0.12,0.81
0.6,-0.12,0.82
0.6,-0.12,0.84
0.6,-0.12,0.84
0.59,-0.11,0.83
0.59,-0.11,0.83
0.59,-0.11,0.82
0.58,-0.11,0.81
0.59,-0.11,0.82
0.59,-0.11,0.82
0.58,-0.11,0.83
0.59,-0.11,0.84
0.59,-0.11,0.87
0.59,-0.11,0.89
0.59,-0.11,0.89
0.58,-0.12,0.89
0.56,-0.12,0.89
0.58,-0.12,0.88
0.6,-0.12,0.86
0.61,-0.11,0.84
0.62,-0.11,0.83
0.63,-0.11,0.8
0.62,-0.1,0.8
0.63,-0.11,0.82
0.64,-0.11,0.84
0.64,-0.11,0.85
0.64,-0.12,0.86
0.65,-0.12,0.86
0.66,-0.12,0.86
0.66,-0.11,0.86
0.65,-0.11,0.87
0.65,-0.1,0.87
0.66,-0.09,0.87
0.68,-0.08,0.87
0.67,-0.05,0.87
0.66,-0.03,0.86
0.65,-0.02,0.85
0.65,-0.01,0.84
0.65,-0.01,0.84
0.64,0,0.83
0.63,0.01,0.83
0.63,0.02,0.81
0.63,0.03,0.8
0.62,0.03,0.78
0.61,0.05,0.78
0.6,0.05,0.78
0.6,0.05,0.77
0.6,0.05,0.76
0.59,0.06,0.75
0.59,0.07,0.75
0.58,0.07,0.74
0.57,0.08,0.73
0.56,0.08,0.72
0.56,0.09,0.72
0.56,0.1,0.72
0.56,0.1,0.71
0.57,0.1,0.71
0.57,0.1,0.7
0.57,0.1,0.69
0.55,0.1,0.68
0.53,0.11,0.67
0.53,0.11,0.67
0.53,0.11,0.66
0.52,0.11,0.66
0.52,0.1,0.65
0.52,0.1,0.65
0.52,0.09,0.65
0.53,0.08,0.65
0.53,0.07,0.66
0.54,0.06,0.65
0.53,0.06,0.64
0.53,0.05,0.62
0.52,0.05,0.6
0.51,0.05,0.59
0.5,0.05,0.57
0.48,0.04,0.56
0.46,0.04,0.55
0.45,0.03,0.54
0.43,0.02,0.52
0.42,0,0.5
0.41,-0.03,0.49
0.4,-0.04,0.49
0.42,-0.09,0.48
0.49,-0.2,0.4
0.73,-0.5,1.28
1.34,-0.41,2.18
1.56,-0.17,2
1.02,-0.2,1.93
0.68,-0.1,1.59
0.53,-0.04,1.15
0.45,-0.03,0.82
0.39,-0.02,0.61
0.35,-0.03,0.51
0.34,-0.07,0.49
0.34,-0.08,0.47
0.35,-0.11,0.47
0.39,-0.15,0.52
0.48,-0.18,0.64
0.59,-0.18,0.77
0.67,-0.18,0.9
0.75,-0.18,0.98
0.8,-0.16,1.02
0.8,-0.14,1.03
0.75,-0.13,0.99
0.67,-0.11,0.91
0.61,-0.09,0.83
0.56,-0.09,0.75
0.52,-0.09,0.69
0.49,-0.11,0.67
0.49,-0.12,0.69
0.49,-0.13,0.72
0.52,-0.14,0.78
0.57,-0.15,0.89
0.63,-0.14,0.92
0.64,-0.12,0.93
0.63,-0.1,0.91
0.6,-0.09,0.87
0.58,-0.08,0.82
0.56,-0.09,0.79
0.56,-0.1,0.77
0.56,-0.11,0.76
0.57,-0.12,0.78
0.58,-0.13,0.8
0.59,-0.13,0.82
0.6,-0.13,0.84
0.6,-0.14,0.85
0.6,-0.13,0.85
0.59,-0.12,0.84
0.58,-0.12,0.82
0.58,-0.12,0.81
0.58,-0.12,0.8
0.58,-0.12,0.8
0.58,-0.12,0.81
0.58,-0.12,0.81
0.58,-0.12,0.82
0.58,-0.12,0.83
0.58,-0.12,0.84
0.58,-0.12,0.84
0.59,-0.12,0.83
0.59,-0.12,0.82
0.59,-0.11,0.81
0.58,-0.12,0.81
0.59,-0.12,0.81
0.58,-0.12,0.81
0.59,-0.12,0.82
0.6,-0.13,0.83
0.61,-0.13,0.84
0.62,-0.12,0.85
0.62,-0.12,0.86
0.61,-0.11,0.87
0.58,-0.11,0.89
0.54,-0.1,0.91
0.54,-0.09,0.91
0.57,-0.1,0.91
0.62,-0.13,0.91
0.66,-0.14,0.9
0.68,-0.14,0.9
0.7,-0.14,0.91
0.72,-0.13,0.91
0.69,-0.12,0.91
0.68,-0.13,0.9
0.7,-0.12,0.89
0.69,-0.11,0.88
0.69,-0.11,0.88
0.7,-0.09,0.89
0.74,-0.06,0.9
0.75,-0.05,0.92
0.75,-0.04,0.92
0.72,-0.02,0.92
0.71,0,0.9
0.69,0.01,0.89
0.68,0.02,0.88
0.66,0.04,0.85
0.65,0.06,0.82
0.64,0.08,0.81
0.62,0.09,0.79
0.6,0.1,0.77
0.58,0.12,0.75
0.57,0.13,0.73
0.57,0.14,0.72
0.56,0.15,0.7
0.53,0.16,0.68
0.52,0.17,0.66
0.52,0.16,0.65
0.51,0.16,0.64
0.5,0.17,0.63
0.49,0.17,0.61
0.49,0.17,0.59
0.49,0.17,0.57
0.48,0.18,0.55
0.46,0.19,0.51
0.44,0.18,0.51
0.44,0.18,0.51
0.44,0.17,0.51
0.44,0.16,0.52
0.46,0.14,0.53
0.47,0.12,0.54
0.47,0.11,0.53
0.46,0.11,0.52
0.45,0.1,0.5
0.44,0.1,0.48
0.44,0.09,0.47
0.42,0.09,0.46
0.42,0.07,0.45
0.41,0.06,0.44
0.4,0.04,0.43
0.38,0.01,0.44
0.37,-0.02,0.45
0.37,-0.06,0.46
0.36,-0.1,0.46
0.35,-0.15,0.46
0.38,-0.19,0.45
0.54,-0.53,0.75
1.86,-0.51,2.29
2.29,-0.18,2.92
1.78,-0.29,2.29
1.66,-0.33,1.89
0.63,-0.07,1.35
0.54,-0.06,0.88
0.4,-0.02,0.58
0.27,-0.01,0.44
0.22,-0.05,0.39
0.23,-0.08,0.37
0.24,-0.09,0.35
0.25,-0.11,0.38
0.32,-0.15,0.47
0.43,-0.18,0.62
0.54,-0.19,0.81
0.67,-0.19,0.97
0.8,-0.18,1.08
0.89,-0.16,1.11
0.91,-0.13,1.1
0.85,-0.11,1.05
0.74,-0.09,0.95
0.65,-0.07,0.84
0.59,-0.07,0.73
0.54,-0.08,0.66
0.5,-0.1,0.62
0.47,-0.11,0.62
0.46,-0.12,0.66
0.48,-0.13,0.72
0.54,-0.15,0.8
0.61,-0.16,0.87
0.68,-0.15,0.94
0.68,-0.14,0.94
0.65,-0.12,0.9
0.61,-0.1,0.84
0.58,-0.1,0.79
0.56,-0.1,0.76
0.55,-0.11,0.75
0.55,-0.11,0.75
0.57,-0.12,0.76
0.59,-0.13,0.78
0.61,-0.13,0.81
0.63,-0.13,0.83
0.64,-0.13,0.84
0.64,-0.13,0.84
0.62,-0.13,0.83
0.61,-0.12,0.82
0.59,-0.12,0.8
0.58,-0.12,0.79
0.58,-0.12,0.78
0.58,-0.12,0.79
0.59,-0.13,0.79
0.6,-0.13,0.8
0.6,-0.13,0.81
0.61,-0.12,0.82
0.61,-0.12,0.82
0.61,-0.12,0.82
0.6,-0.12,0.81
0.6,-0.12,0.8
0.6,-0.12,0.8
0.61,-0.12,0.8
0.62,-0.12,0.8
0.64,-0.13,0.8
0.64,-0.13,0.82
0.65,-0.13,0.84
0.66,-0.13,0.87
0.65,-0.13,0.89
0.63,-0.12,0.9
0.64,-0.13,0.92
0.68,-0.16,0.92
0.7,-0.17,0.92
0.68,-0.17,0.91
0.67,-0.18,0.89
0.66,-0.17,0.85
0.63,-0.14,0.81
0.63,-0.13,0.79
0.65,-0.12,0.79
0.66,-0.11,0.82
0.66,-0.1,0.84
0.66,-0.09,0.87
0.67,-0.09,0.9
0.68,-0.08,0.9
0.69,-0.06,0.89
0.69,-0.01,0.86
0.68,0,0.85
0.67,0.02,0.85
0.65,0.03,0.85
0.63,0.05,0.84
0.61,0.06,0.84
0.59,0.07,0.84
0.58,0.08,0.83
0.57,0.09,0.8
0.56,0.1,0.78
0.56,0.1,0.76
0.56,0.1,0.74
0.56,0.1,0.73
0.55,0.11,0.71
0.53,0.11,0.7
0.52,0.11,0.7
0.51,0.11,0.69
0.49,0.11,0.68
0.48,0.12,0.66
0.46,0.12,0.64
0.45,0.13,0.61
0.45,0.13,0.6
0.44,0.13,0.59
0.44,0.12,0.58
0.44,0.12,0.58
0.44,0.1,0.58
0.46,0.08,0.59
0.47,0.06,0.58
0.46,0.05,0.57
0.45,0.05,0.54
0.43,0.04,0.52
0.41,0.04,0.51
0.4,0.03,0.49
0.39,0.02,0.48
0.37,0,0.46
0.36,-0.02,0.45
0.36,-0.05,0.43
0.37,-0.06,0.42
0.38,-0.13,0.38
0.42,-0.3,0.34
0.92,-0.34,1.71
1.66,-0.2,2.5
1.86,-0.12,2
1.56,-0.21,2.06
1.14,-0.2,1.85
0.85,-0.08,1.41
0.69,-0.03,0.98
0.56,-0.01,0.68
0.43,-0.01,0.51
0.36,-0.03,0.44
0.32,-0.07,0.41
0.29,-0.08,0.4
0.3,-0.1,0.48
0.42,-0.16,0.63
0.53,-0.18,0.8
0.63,-0.18,0.95
0.72,-0.18,1.05
0.79,-0.17,1.09
0.83,-0.14,1.09
0.78,-0.13,1.03
0.7,-0.11,0.93
0.64,-0.09,0.82
0.59,-0.08,0.73
0.56,-0.09,0.66
0.53,-0.1,0.64
0.52,-0.11,0.65
0.51,-0.13,0.69
0.53,-0.14,0.75
0.58,-0.14,0.81
0.62,-0.15,0.86
0.65,-0.15,0.9
0.67,-0.14,0.92
0.66,-0.12,0.91
0.63,-0.11,0.87
0.6,-0.1,0.82
0.58,-0.09,0.78
0.57,-0.1,0.75
0.57,-0.1,0.75
0.58,-0.11,0.78
0.61,-0.13,0.8
0.62,-0.13,0.82
0.63,-0.13,0.83
0.64,-0.13,0.83
0.63,-0.12,0.82
0.61,-0.12,0.81
0.61,-0.12,0.79
0.6,-0.12,0.78
0.59,-0.12,0.78
0.59,-0.13,0.78
0.6,-0.13,0.79
0.6,-0.13,0.8
0.6,-0.13,0.81
0.61,-0.13,0.81
0.61,-0.12,0.82
0.61,-0.12,0.82
0.61,-0.12,0.81
0.61,-0.12,0.81
0.61,-0.12,0.8
0.61,-0.12,0.79
0.61,-0.12,0.8
0.61,-0.12,0.8
0.61,-0.12,0.81
0.61,-0.12,0.82
0.61,-0.12,0.82
0.62,-0.12,0.84
0.64,-0.12,0.86
0.64,-0.12,0.88
0.63,-0.12,0.9
0.63,-0.12,0.91
0.63,-0.11,0.92
0.65,-0.12,0.92
0.68,-0.12,0.92
0.69,-0.12,0.92
0.7,-0.12,0.91
0.72,-0.11,0.92
0.76,-0.11,0.93
0.75,-0.1,0.95
0.72,-0.09,0.94
0.72,-0.08,0.92
0.71,-0.07,0.9
0.67,-0.06,0.87
0.65,-0.05,0.83
0.65,-0.05,0.81
0.65,-0.05,0.8
0.66,-0.04,0.79
0.68,-0.04,0.8
0.68,-0.03,0.81
0.66,-0.01,0.81
0.66,0.02,0.81
0.66,0.04,0.81
0.65,0.05,0.8
0.59,0.08,0.79
0.57,0.09,0.79
0.55,0.1,0.78
0.55,0.11,0.78
0.56,0.11,0.77
0.56,0.11,0.75
0.55,0.12,0.73
0.55,0.12,0.72
0.55,0.13,0.7
0.55,0.13,0.69
0.54,0.14,0.68
0.53,0.14,0.68
0.52,0.15,0.68
0.5,0.15,0.68
0.49,0.15,0.68
0.48,0.15,0.67
0.47,0.16,0.65
0.48,0.16,0.64
0.48,0.17,0.63
0.48,0.16,0.62
0.49,0.16,0.62
0.49,0.16,0.62
0.49,0.15,0.62
0.5,0.14,0.63
0.5,0.12,0.64
0.52,0.1,0.64
0.53,0.09,0.63
0.51,0.08,0.61
0.5,0.09,0.58
0.48,0.09,0.56
0.46,0.09,0.53
0.44,0.09,0.51
0.43,0.08,0.49
0.41,0.08,0.47
0.4,0.07,0.46
0.39,0.05,0.45
0.37,0.03,0.44
0.36,0,0.44
0.34,-0.03,0.43
0.34,-0.07,0.43
0.4,-0.15,0.39
0.46,-0.26,0.31
0.46,-0.41,0.52
1.6,-0.3,2.2
2.17,-0.08,2.96
1.6,-0.15,2.38
1.27,-0.25,2.33
0.77,-0.15,1.9
0.57,-0.02,1.36
0.49,-0.03,0.94
0.35,0,0.66
0.28,0,0.51
0.28,-0.08,0.41
0.29,-0.08,0.38
0.29,-0.11,0.4
0.36,-0.16,0.48
0.47,-0.19,0.64
0.57,-0.19,0.82
0.69,-0.17,0.98
0.8,-0.17,1.08
0.86,-0.15,1.1
0.87,-0.13,1.09
0.81,-0.12,1.03
0.7,-0.1,0.94
0.6,-0.09,0.83
0.55,-0.09,0.73
0.51,-0.1,0.67
0.48,-0.12,0.63
0.47,-0.13,0.64
0.48,-0.15,0.68
0.51,-0.16,0.75
0.57,-0.16,0.82
0.62,-0.16,0.88
0.65,-0.15,0.92
0.66,-0.14,0.94
0.64,-0.12,0.92
0.61,-0.11,0.88
0.58,-0.1,0.83
0.56,-0.1,0.77
0.55,-0.11,0.75
0.56,-0.12,0.76
0.58,-0.13,0.77
0.6,-0.14,0.8
0.61,-0.14,0.82
0.62,-0.14,0.84
0.62,-0.14,0.84
0.61,-0.13,0.84
0.6,-0.13,0.83
0.59,-0.13,0.82
0.58,-0.13,0.8
0.57,-0.13,0.79
0.57,-0.13,0.79
0.58,-0.13,0.8
0.59,-0.13,0.81
0.59,-0.13,0.82
0.6,-0.13,0.83
0.61,-0.13,0.83
0.6,-0.13,0.83
0.6,-0.12,0.84
0.6,-0.12,0.85
0.6,-0.12,0.86
0.59,-0.13,0.86
0.59,-0.12,0.86
0.59,-0.12,0.86
0.61,-0.12,0.85
0.61,-0.11,0.85
0.61,-0.1,0.85
0.62,-0.1,0.85
0.62,-0.1,0.85
0.63,-0.1,0.86
0.61,-0.08,0.87
0.6,-0.09,0.88
0.62,-0.1,0.87
0.62,-0.1,0.87
0.63,-0.1,0.88
0.65,-0.12,0.9
0.66,-0.13,0.92
0.67,-0.13,0.92
0.69,-0.13,0.93
0.7,-0.13,0.92
0.69,-0.12,0.91
0.68,-0.11,0.91
0.69,-0.1,0.9
0.68,-0.09,0.89
0.66,-0.09,0.86
0.66,-0.08,0.85
0.69,-0.07,0.85
0.72,-0.04,0.85
0.73,-0.01,0.86
0.72,0,0.87
0.71,0,0.88
0.65,0.04,0.86
0.62,0.06,0.84
0.61,0.07,0.82
0.62,0.08,0.8
0.62,0.09,0.78
0.63,0.1,0.77
0.63,0.11,0.75
0.61,0.13,0.74
0.58,0.15,0.73
0.57,0.16,0.72
0.56,0.17,0.71
0.55,0.18,0.71
0.56,0.18,0.7
0.55,0.18,0.7
0.55,0.18,0.69
0.54,0.19,0.67
0.53,0.2,0.65
0.52,0.2,0.63
0.51,0.21,0.62
0.51,0.21,0.62
0.51,0.21,0.62
0.5,0.22,0.61
0.49,0.23,0.59
0.49,0.23,0.58
0.47,0.24,0.57
0.46,0.25,0.56
0.45,0.25,0.56
0.44,0.25,0.55
0.44,0.24,0.55
0.45,0.23,0.56
0.46,0.22,0.57
0.47,0.21,0.57
0.47,0.19,0.57
0.47,0.19,0.57
0.47,0.18,0.55
0.46,0.17,0.53
0.43,0.16,0.51
0.42,0.15,0.49
0.4,0.14,0.47
0.39,0.12,0.44
0.39,0.1,0.42
0.38,0.07,0.42
0.38,0.04,0.41
0.38,0,0.41
0.38,-0.04,0.43
0.37,-0.08,0.44
0.36,-0.13,0.44
0.34,-0.18,0.45
0.4,-0.21,0.39
0.46,-0.46,0.4
1.84,-0.35,2.22
2.46,-0.09,3.27
1.93,-0.33,2.39
0.95,-0.16,1.95
0.64,-0.02,1.36
0.57,-0.03,0.87
0.39,0,0.57
0.24,0.01,0.41
0.21,-0.04,0.35
0.23,-0.07,0.32
0.24,-0.09,0.31
0.26,-0.1,0.31
0.3,-0.12,0.4
0.39,-0.15,0.57
0.52,-0.17,0.78
0.66,-0.16,0.99
0.79,-0.15,1.12
0.89,-0.14,1.19
0.92,-0.12,1.16
0.89,-0.09,1.09
0.79,-0.08,0.99
0.67,-0.06,0.86
0.6,-0.06,0.74
0.54,-0.07,0.66
0.49,-0.09,0.61
0.46,-0.11,0.6
0.45,-0.13,0.63
0.46,-0.15,0.69
0.52,-0.17,0.86
0.64,-0.17,0.92
0.67,-0.16,0.95
0.68,-0.15,0.96
0.66,-0.13,0.92
0.62,-0.11,0.87
0.58,-0.1,0.81
0.56,-0.1,0.77
0.54,-0.11,0.74
0.54,-0.11,0.74
0.56,-0.12,0.75
0.58,-0.12,0.78
0.6,-0.13,0.81
0.62,-0.13,0.83
0.63,-0.13,0.84
0.64,-0.13,0.84
0.64,-0.13,0.83
0.62,-0.12,0.82
0.61,-0.12,0.8
0.6,-0.12,0.79
0.59,-0.12,0.78
0.58,-0.12,0.78
0.58,-0.13,0.79
0.59,-0.13,0.81
0.6,-0.13,0.82
0.6,-0.12,0.82
0.61,-0.12,0.82
0.61,-0.12,0.82
0.61,-0.12,0.81
0.61,-0.13,0.81
0.6,-0.13,0.8
0.6,-0.13,0.8
0.6,-0.13,0.81
0.61,-0.14,0.82
0.61,-0.14,0.82
0.61,-0.13,0.82
0.61,-0.12,0.84
0.62,-0.13,0.85
0.63,-0.13,0.86
0.62,-0.12,0.86
0.62,-0.12,0.86
0.63,-0.12,0.87
0.62,-0.13,0.86
0.61,-0.12,0.85
0.62,-0.11,0.86
0.62,-0.11,0.88
0.62,-0.12,0.89
0.63,-0.13,0.9
0.65,-0.14,0.91
0.64,-0.14,0.9
0.62,-0.14,0.9
0.62,-0.14,0.91
0.65,-0.13,0.9
0.69,-0.13,0.9
0.69,-0.11,0.9
0.7,-0.1,0.89
0.71,-0.09,0.89
0.71,-0.08,0.89
0.7,-0.07,0.89
0.71,-0.05,0.89
0.74,-0.04,0.89
0.75,-0.02,0.89
0.75,0,0.89
0.74,0.02,0.88
0.71,0.05,0.87
0.67,0.06,0.86
0.64,0.08,0.84
0.62,0.1,0.82
0.61,0.12,0.8
0.61,0.12,0.79
0.6,0.13,0.77
0.58,0.14,0.74
0.56,0.16,0.72
0.55,0.17,0.7
0.54,0.18,0.68
0.53,0.19,0.65
0.52,0.2,0.64
0.52,0.2,0.64
0.53,0.2,0.67
0.52,0.2,0.66
0.5,0.2,0.64
0.48,0.21,0.62
0.47,0.22,0.6
0.46,0.22,0.58
0.44,0.23,0.56
0.43,0.24,0.53
0.42,0.24,0.52
0.42,0.24,0.51
0.42,0.24,0.5
0.42,0.23,0.5
0.43,0.22,0.5
0.44,0.21,0.51
0.45,0.2,0.52
0.45,0.19,0.5
0.43,0.18,0.47
0.42,0.18,0.44
0.41,0.17,0.41
0.4,0.16,0.37
0.38,0.14,0.35
0.36,0.12,0.34
0.35,0.1,0.35
0.35,0.06,0.38
0.35,0.02,0.42
0.34,-0.01,0.45
0.33,-0.05,0.48
0.32,-0.15,0.48
0.4,-0.16,0.46
0.55,-0.56,0.93
2.26,-0.59,2.53
2.92,-0.17,3.09
1.9,-0.36,2.58
1.34,-0.45,2.41
0.65,-0.23,1.87
0.46,-0.12,1.25
0.32,-0.05,0.79
0.16,0.01,0.52
0.1,-0.04,0.4
0.12,-0.11,0.37
0.14,-0.13,0.35
0.2,-0.12,0.34
0.27,-0.15,0.38
0.32,-0.2,0.51
0.42,-0.22,0.69
0.55,-0.22,0.87
0.67,-0.21,1.04
0.79,-0.19,1.15
0.9,-0.17,1.19
0.92,-0.15,1.17
0.8,-0.1,1.1
0.66,-0.07,0.99
0.56,-0.07,0.75
0.45,-0.09,0.68
0.41,-0.1,0.63
0.4,-0.12,0.63
0.4,-0.13,0.67
0.45,-0.14,0.73
0.53,-0.15,0.81
0.6,-0.16,0.89
0.65,-0.16,0.95
0.68,-0.15,0.98
0.67,-0.13,0.98
0.62,-0.12,0.93
0.58,-0.11,0.88
0.54,-0.1,0.82
0.51,-0.11,0.78
0.51,-0.12,0.76
0.51,-0.13,0.76
0.53,-0.14,0.78
0.55,-0.14,0.8
0.57,-0.15,0.83
0.59,-0.15,0.85
0.59,-0.14,0.87
0.59,-0.14,0.88
0.58,-0.13,0.87
0.57,-0.13,0.85
0.55,-0.13,0.84
0.55,-0.13,0.84
0.55,-0.15,0.86
0.56,-0.15,0.87
0.57,-0.15,0.88
0.57,-0.14,0.88
0.58,-0.14,0.89
0.61,-0.14,0.88
0.65,-0.15,0.88
0.67,-0.15,0.87
0.66,-0.14,0.88
0.65,-0.15,0.91
0.65,-0.17,0.95
0.64,-0.17,0.96
0.64,-0.17,0.95
0.64,-0.17,0.93
0.64,-0.16,0.91
0.63,-0.15,0.91
0.62,-0.12,0.93
0.63,-0.1,0.96
0.63,-0.1,0.99
0.63,-0.08,1
0.64,-0.07,1
0.65,-0.06,1
0.66,-0.04,1
0.67,-0.02,0.98
0.68,-0.01,0.98
0.66,0,0.99
0.64,0.05,0.95
0.6,0.06,0.93
0.59,0.08,0.91
0.57,0.1,0.89
0.57,0.11,0.89
0.57,0.11,0.89
0.58,0.11,0.87
0.58,0.12,0.85
0.57,0.12,0.83
0.55,0.14,0.8
0.52,0.15,0.77
0.51,0.16,0.75
0.51,0.17,0.75
0.53,0.18,0.75
0.53,0.18,0.75
0.5,0.19,0.72
0.47,0.21,0.69
0.45,0.24,0.65
0.43,0.26,0.63
0.42,0.27,0.62
0.4,0.28,0.61
0.4,0.29,0.6
0.41,0.3,0.59
0.41,0.31,0.58
0.39,0.32,0.57
0.39,0.33,0.57
0.39,0.33,0.55
0.37,0.35,0.53
0.35,0.36,0.5
0.33,0.37,0.47
0.31,0.38,0.45
0.31,0.38,0.44
0.31,0.37,0.44
0.31,0.37,0.44
0.33,0.35,0.44
0.33,0.33,0.43
0.32,0.32,0.41
0.31,0.31,0.38
0.3,0.29,0.36
0.29,0.27,0.36
0.28,0.25,0.37
0.27,0.23,0.37
0.27,0.19,0.38
0.27,0.16,0.39
0.27,0.13,0.38
0.27,0.09,0.37
0.28,0.05,0.35
0.28,0,0.34
0.25,-0.05,0.31
0.23,-0.11,0.28
0.23,-0.18,0.25
0.22,-0.28,0.24
0.54,-0.71,2.24
3.46,-0.05,3.99
2.21,-0.56,3.75
1.17,-0.5,2.92
1,-0.25,1.75
0.82,-0.04,0.9
0.38,0.06,0.49
0.22,0.08,0.27
0.22,0.03,0.17
0.21,-0.02,0.17
0.17,-0.03,0.21
0.15,-0.05,0.26
0.2,-0.09,0.35
0.29,-0.13,0.5
0.38,-0.18,0.72
0.5,-0.2,0.98
0.68,-0.19,1.2
0.86,-0.17,1.34
0.9,-0.14,1.37
0.84,-0.1,1.27
0.77,-0.06,1.08
0.68,-0.03,0.88
0.59,-0.03,0.74
0.52,-0.05,0.65
0.48,-0.07,0.6
0.46,-0.1,0.57
0.46,-0.12,0.64
0.5,-0.17,0.72
0.55,-0.19,0.83
0.61,-0.19,0.92
0.64,-0.18,1
0.64,-0.15,1.02
0.62,-0.12,1
0.6,-0.1,0.94
0.57,-0.08,0.86
0.54,-0.08,0.79
0.52,-0.08,0.75
0.52,-0.1,0.73
0.53,-0.11,0.74
0.55,-0.12,0.77
0.58,-0.12,0.81
0.6,-0.13,0.85
0.61,-0.12,0.87
0.61,-0.12,0.88
0.61,-0.11,0.87
0.59,-0.11,0.85
0.58,-0.11,0.82
0.56,-0.11,0.8
0.56,-0.11,0.79
0.56,-0.12,0.79
0.57,-0.13,0.8
0.57,-0.13,0.81
0.58,-0.13,0.85
0.58,-0.12,0.85
0.57,-0.12,0.85
0.57,-0.12,0.85
0.56,-0.11,0.84
0.57,-0.12,0.83
0.57,-0.12,0.82
0.57,-0.12,0.81
0.57,-0.12,0.81
0.58,-0.12,0.82
0.58,-0.12,0.82
0.59,-0.12,0.82
0.59,-0.12,0.83
0.59,-0.12,0.83
0.58,-0.11,0.83
0.57,-0.11,0.83
0.58,-0.11,0.82
0.58,-0.11,0.82
0.58,-0.12,0.82
0.58,-0.12,0.82
0.58,-0.12,0.82
0.57,-0.12,0.82
0.57,-0.12,0.83
0.57,-0.12,0.83
0.57,-0.12,0.83
0.57,-0.12,0.83
0.57,-0.12,0.83
0.57,-0.12,0.82
0.57,-0.12,0.82
0.57,-0.12,0.83
0.57,-0.12,0.83
0.57,-0.12,0.83
0.57,-0.12,0.83
0.58,-0.12,0.83
0.58,-0.12,0.82
0.58,-0.12,0.82
0.58,-0.12,0.82
0.57,-0.12,0.82
0.57,-0.12,0.82
0.57,-0.12,0.83
0.57,-0.12,0.83
0.57,-0.12,0.83
0.57,-0.12,0.82
0.58,-0.12,0.83
0.58,-0.12,0.82
0.58,-0.12,0.82
0.58,-0.12,0.82
0.58,-0.12,0.82
0.58,-0.12,0.82
0.57,-0.12,0.83
0.57,-0.12,0.83
0.58,-0.12,0.83
0.59,-0.12,0.83
0.59,-0.13,0.84
0.59,-0.13,0.84
0.59,-0.13,0.85
0.58,-0.12,0.86
0.56,-0.11,0.87
0.54,-0.1,0.89
0.54,-0.1,0.91
0.56,-0.12,0.94
0.6,-0.13,0.95
0.62,-0.15,0.95
0.65,-0.16,0.95
0.71,-0.16,0.94
0.73,-0.15,0.94
0.74,-0.16,0.95
0.72,-0.16,0.96
0.69,-0.16,0.96
0.67,-0.15,0.93
0.68,-0.12,0.92
0.68,-0.12,0.92
0.69,-0.11,0.92
0.71,-0.09,0.94
0.75,-0.08,0.96
0.77,-0.07,0.97
0.77,-0.04,0.98
0.76,-0.02,0.98
0.73,0.01,0.96
0.7,0.06,0.91
0.66,0.08,0.9
0.65,0.09,0.89
0.64,0.11,0.88
0.62,0.13,0.85
0.6,0.15,0.82
0.57,0.17,0.77
0.55,0.2,0.73
0.54,0.21,0.7
0.55,0.22,0.69
0.57,0.22,0.7
0.57,0.21,0.7
0.56,0.22,0.68
0.53,0.24,0.65
0.5,0.25,0.63
0.47,0.26,0.61
0.45,0.27,0.59
0.44,0.28,0.6
0.44,0.28,0.61
0.45,0.28,0.62
0.46,0.28,0.63
0.48,0.28,0.63
0.48,0.28,0.61
0.48,0.29,0.58
0.47,0.31,0.56
0.47,0.32,0.55
0.45,0.32,0.52
0.44,0.34,0.51
0.43,0.35,0.5
0.43,0.36,0.5
0.42,0.37,0.5
0.41,0.37,0.52
0.41,0.37,0.54
0.41,0.37,0.55
0.42,0.37,0.57
0.45,0.36,0.6
0.47,0.34,0.62
0.49,0.33,0.63
0.49,0.32,0.62
0.47,0.32,0.6
0.45,0.33,0.57
0.43,0.33,0.53
0.4,0.33,0.5
0.38,0.33,0.48
0.36,0.33,0.45
0.34,0.31,0.43
0.32,0.3,0.42
0.3,0.27,0.42
0.29,0.25,0.4
0.28,0.21,0.38
0.29,0.17,0.36
0.31,0.11,0.37
0.32,0.05,0.42
0.34,-0.07,0.43
0.34,-0.13,0.43
0.31,-0.22,0.41
0.52,-0.29,0.2
0.73,-1.16,1.99
2.13,-1.11,3.31
3.28,-0.19,2.89
2.19,-0.39,2.93
1.06,-0.43,2.43
0.72,-0.22,1.63
0.64,-0.12,0.91
0.42,-0.02,0.52
0.21,-0.01,0.33
0.15,-0.07,0.28
0.14,-0.1,0.28
0.14,-0.11,0.27
0.18,-0.11,0.26
0.25,-0.13,0.31
0.31,-0.16,0.46
0.4,-0.19,0.69
0.54,-0.19,0.95
0.71,-0.17,1.17
0.85,-0.16,1.29
0.93,-0.14,1.29
0.91,-0.11,1.21
0.81,-0.07,0.92
0.61,-0.03,0.78
0.55,-0.04,0.68
0.5,-0.05,0.62
0.46,-0.07,0.59
0.43,-0.09,0.6
0.43,-0.12,0.64
0.46,-0.15,0.72
0.54,-0.16,0.81
0.61,-0.17,0.9
0.66,-0.16,0.96
0.69,-0.15,0.98
0.69,-0.14,0.97
0.65,-0.13,0.93
0.6,-0.1,0.86
0.56,-0.09,0.79
0.54,-0.09,0.74
0.53,-0.1,0.73
0.53,-0.11,0.73
0.54,-0.12,0.76
0.57,-0.13,0.79
0.59,-0.13,0.83
0.61,-0.13,0.85
0.62,-0.13,0.86
0.63,-0.12,0.86
0.62,-0.12,0.85
0.6,-0.11,0.81
0.57,-0.11,0.8
0.56,-0.12,0.79
0.56,-0.12,0.79
0.56,-0.13,0.8
0.57,-0.13,0.82
0.58,-0.13,0.83
0.59,-0.13,0.84
0.6,-0.13,0.85
0.61,-0.13,0.85
0.6,-0.13,0.84
0.59,-0.12,0.83
0.58,-0.11,0.82
0.58,-0.11,0.82
0.58,-0.12,0.82
0.58,-0.12,0.81
0.59,-0.12,0.82
0.61,-0.12,0.83
0.62,-0.13,0.84
0.61,-0.14,0.86
0.61,-0.13,0.86
0.61,-0.12,0.87
0.6,-0.11,0.87
0.59,-0.11,0.86
0.59,-0.1,0.86
0.6,-0.1,0.86
0.61,-0.1,0.86
0.6,-0.1,0.86
0.61,-0.1,0.88
0.62,-0.1,0.89
0.63,-0.11,0.93
0.66,-0.13,0.97
0.69,-0.14,0.99
0.69,-0.14,0.98
0.68,-0.13,0.96
0.66,-0.11,0.93
0.65,-0.1,0.91
0.63,-0.09,0.9
0.63,-0.08,0.9
0.64,-0.06,0.9
0.67,-0.05,0.91
0.72,-0.03,0.92
0.74,-0.02,0.93
0.72,-0.01,0.93
0.67,0.01,0.92
0.62,0.03,0.89
0.6,0.05,0.86
0.58,0.08,0.84
0.59,0.09,0.83
0.59,0.11,0.81
0.59,0.12,0.8
0.6,0.12,0.79
0.59,0.13,0.78
0.57,0.14,0.75
0.55,0.15,0.74
0.53,0.16,0.73
0.51,0.17,0.71
0.51,0.17,0.69
0.51,0.17,0.68
0.52,0.18,0.67
0.53,0.18,0.68
0.53,0.19,0.69
0.52,0.19,0.7
0.5,0.2,0.7
0.49,0.21,0.7
0.49,0.22,0.69
0.48,0.22,0.68
0.48,0.23,0.67
0.48,0.23,0.67
0.48,0.23,0.66
0.48,0.23,0.66
0.48,0.23,0.67
0.48,0.23,0.67
0.48,0.23,0.67
0.48,0.23,0.68
0.48,0.22,0.68
0.49,0.21,0.68
0.49,0.21,0.67
0.5,0.2,0.67
0.5,0.18,0.65
0.52,0.17,0.65
0.52,0.17,0.64
0.52,0.16,0.65
0.51,0.16,0.64
0.48,0.17,0.61
0.44,0.18,0.54
0.4,0.19,0.48
0.37,0.2,0.43
0.36,0.2,0.38
0.35,0.19,0.35
0.34,0.17,0.33
0.33,0.14,0.32
0.3,0.11,0.31
0.26,0.07,0.29
0.22,0.03,0.28
0.17,-0.02,0.24
0.12,-0.06,0.19
0.11,-0.12,0.18
0.13,-0.2,0.2
1.09,-0.9,2.09
2.9,-0.86,3.37
2.94,-0.17,3.29
1.44,-0.36,3.45
0.67,-0.38,2.54
0.66,-0.1,1.48
0.51,0.02,0.48
0.19,0.08,0.36
0.3,-0.06,0.38
0.36,-0.1,0.42
0.42,-0.09,0.46
0.5,-0.18,0.54
0.59,-0.29,0.64
0.7,-0.34,0.74
0.78,-0.35,0.87
0.78,-0.35,0.96
0.73,-0.34,0.99
0.66,-0.31,1
0.55,-0.26,0.99
0.46,-0.22,0.93
0.43,-0.18,0.87
0.44,-0.15,0.8
0.45,-0.13,0.74
0.47,-0.13,0.7
0.52,-0.13,0.69
0.55,-0.14,0.7
0.58,-0.15,0.75
0.59,-0.17,0.81
0.6,-0.17,0.88
0.6,-0.17,0.92
0.58,-0.16,0.93
0.55,-0.15,0.92
0.53,-0.13,0.85
0.5,-0.12,0.82
0.51,-0.12,0.8
0.53,-0.13,0.78
0.54,-0.14,0.8
0.56,-0.16,0.82
0.58,-0.17,0.84
0.59,-0.16,0.85
0.59,-0.16,0.86
0.58,-0.15,0.85
0.56,-0.14,0.83
0.55,-0.14,0.82
0.54,-0.14,0.81
0.54,-0.14,0.81
0.55,-0.15,0.81
0.56,-0.15,0.82
0.57,-0.15,0.83
0.57,-0.15,0.84
0.57,-0.16,0.84
0.56,-0.15,0.84
0.56,-0.16,0.84
0.55,-0.16,0.84
0.54,-0.16,0.84
0.54,-0.15,0.83
0.53,-0.15,0.83
0.54,-0.15,0.83
0.54,-0.15,0.84
0.55,-0.14,0.84
0.55,-0.14,0.84
0.56,-0.14,0.84
0.57,-0.15,0.85
0.57,-0.15,0.85
0.57,-0.14,0.85
0.57,-0.14,0.84
0.57,-0.15,0.83
0.56,-0.16,0.83
0.56,-0.17,0.82
0.55,-0.17,0.81
0.54,-0.17,0.82
0.55,-0.17,0.85
0.55,-0.16,0.88
0.53,-0.17,0.91
0.51,-0.16,0.92
0.51,-0.16,0.93
0.53,-0.16,0.91
0.55,-0.16,0.89
0.57,-0.16,0.87
0.59,-0.15,0.84
0.6,-0.14,0.82
0.62,-0.14,0.82
0.63,-0.14,0.83
0.62,-0.13,0.85
0.6,-0.13,0.89
0.61,-0.12,0.91
0.63,-0.11,0.92
0.64,-0.09,0.92
0.65,-0.08,0.92
0.65,-0.08,0.91
0.66,-0.07,0.92
0.66,-0.06,0.93
0.66,-0.04,0.94
0.66,-0.03,0.94
0.65,-0.01,0.94
0.65,0,0.94
0.65,0,0.93
0.64,0.01,0.92
0.64,0.03,0.91
0.64,0.04,0.91
0.62,0.04,0.9
0.61,0.05,0.89
0.59,0.06,0.88
0.57,0.07,0.87
0.56,0.08,0.86
0.57,0.08,0.86
0.58,0.08,0.86
0.58,0.08,0.85
0.59,0.08,0.83
0.59,0.09,0.81
0.6,0.09,0.79
0.59,0.1,0.76
0.55,0.12,0.74
0.54,0.13,0.74
0.54,0.14,0.72
0.53,0.15,0.72
0.54,0.15,0.73
0.55,0.16,0.73
0.54,0.17,0.73
0.53,0.18,0.73
0.52,0.19,0.73
0.5,0.19,0.71
0.5,0.2,0.69
0.51,0.21,0.68
0.51,0.22,0.67
0.51,0.22,0.66
0.51,0.23,0.66
0.49,0.24,0.65
0.48,0.24,0.64
0.46,0.25,0.63
0.45,0.26,0.62
0.46,0.26,0.63
0.46,0.26,0.65
0.47,0.25,0.64
0.48,0.25,0.65
0.49,0.25,0.67
0.5,0.24,0.68
0.51,0.23,0.7
0.53,0.23,0.71
0.54,0.22,0.72
0.55,0.22,0.74
0.56,0.22,0.75
0.57,0.21,0.76
0.58,0.21,0.77
0.58,0.21,0.78
0.59,0.21,0.79
0.58,0.22,0.81
0.58,0.23,0.82
0.59,0.24,0.84
0.6,0.24,0.86
0.61,0.25,0.88
0.6,0.25,0.88
0.59,0.26,0.87
0.59,0.26,0.87
0.59,0.26,0.87
0.59,0.26,0.88
0.58,0.27,0.88
0.58,0.27,0.88
0.58,0.26,0.87
0.59,0.26,0.86
0.58,0.26,0.85
0.57,0.25,0.84
0.57,0.25,0.83
0.57,0.23,0.81
0.56,0.23,0.79
0.56,0.22,0.77
0.55,0.21,0.74
0.54,0.2,0.72
0.54,0.19,0.69
0.53,0.18,0.66
0.51,0.17,0.62
0.48,0.15,0.57
0.45,0.13,0.51
0.41,0.13,0.45
0.36,0.12,0.39
0.32,0.12,0.34
0.29,0.11,0.32
0.29,0.11,0.31
0.29,0.09,0.32
0.29,0.07,0.32
0.29,0.04,0.28
0.27,0,0.23
0.27,-0.07,0.19
0.27,-0.12,0.13
0.23,-0.18,0.05
0.19,-0.22,-0.03
0.64,-1.52,1.95
1.71,-1.43,3.47
1.76,-0.41,3.32
1.02,-0.44,1.93
0.77,0.1,0.89
0.6,0.32,0.37
0.66,0.27,0.27
0.66,0.04,0.48
0.55,-0.18,0.65
0.42,-0.3,0.72
0.38,-0.38,0.75
0.43,-0.46,0.76
0.5,-0.46,0.74
0.57,-0.39,0.7
0.65,-0.35,0.67
0.75,-0.32,0.68
0.81,-0.31,0.73
0.74,-0.3,0.73
0.66,-0.25,0.72
0.66,-0.2,0.74
0.69,-0.18,0.76
0.7,-0.18,0.79
0.7,-0.18,0.81
0.65,-0.19,0.81
0.56,-0.2,0.81
0.5,-0.22,0.82
0.52,-0.23,0.85
0.56,-0.26,0.84
0.6,-0.26,0.82
0.62,-0.26,0.77
0.61,-0.24,0.77
0.59,-0.24,0.76
0.57,-0.25,0.76
0.58,-0.26,0.77
0.59,-0.26,0.76
0.61,-0.24,0.75
0.63,-0.23,0.75
0.65,-0.22,0.76
0.66,-0.21,0.77
0.65,-0.2,0.77
0.62,-0.21,0.77
0.6,-0.23,0.77
0.61,-0.25,0.77
0.62,-0.25,0.78
0.62,-0.24,0.77
0.62,-0.23,0.76
0.62,-0.22,0.76
0.63,-0.22,0.76
0.63,-0.22,0.76
0.65,-0.22,0.76
0.66,-0.22,0.76
0.65,-0.22,0.76
0.64,-0.22,0.76
0.63,-0.22,0.76
0.63,-0.23,0.77
0.63,-0.24,0.77
0.61,-0.25,0.76
0.6,-0.24,0.76
0.61,-0.23,0.77
0.61,-0.23,0.78
0.6,-0.23,0.78
0.6,-0.24,0.78
0.61,-0.24,0.78
0.61,-0.24,0.78
0.61,-0.23,0.78
0.61,-0.22,0.79
0.61,-0.22,0.8
0.6,-0.23,0.78
0.59,-0.24,0.76
0.6,-0.25,0.75
0.61,-0.24,0.76
0.63,-0.23,0.77
0.65,-0.22,0.79
0.64,-0.21,0.8
0.61,-0.22,0.79
0.58,-0.23,0.78
0.58,-0.23,0.78
0.6,-0.24,0.78
0.62,-0.24,0.78
0.63,-0.23,0.77
0.61,-0.22,0.77
0.6,-0.22,0.77
0.61,-0.24,0.78
0.64,-0.24,0.78
0.64,-0.24,0.78
0.64,-0.23,0.78
0.63,-0.22,0.78
0.61,-0.22,0.78
0.59,-0.22,0.78
0.58,-0.23,0.78
0.58,-0.24,0.79
0.6,-0.24,0.79
0.61,-0.24,0.78
0.63,-0.24,0.77
0.64,-0.24,0.77
0.63,-0.24,0.77
0.62,-0.24,0.77
0.61,-0.24,0.77
0.6,-0.24,0.77
0.61,-0.24,0.78
0.62,-0.24,0.78
0.63,-0.24,0.77
0.62,-0.24,0.76
0.62,-0.24,0.75
0.62,-0.24,0.76
0.63,-0.23,0.76
0.62,-0.23,0.76
0.61,-0.23,0.76
0.61,-0.22,0.78
0.61,-0.22,0.78
0.61,-0.22,0.78
0.63,-0.22,0.78
0.64,-0.22,0.78
0.63,-0.22,0.77
0.61,-0.23,0.76
0.61,-0.24,0.77
0.61,-0.23,0.77
0.61,-0.23,0.78
0.61,-0.22,0.78
0.6,-0.22,0.79
0.6,-0.22,0.79
0.6,-0.22,0.79
0.61,-0.22,0.78
0.61,-0.23,0.77
0.61,-0.24,0.77
0.63,-0.24,0.77
0.64,-0.24,0.77
0.65,-0.23,0.78
0.64,-0.22,0.78
0.64,-0.22,0.79
0.64,-0.22,0.8
0.63,-0.22,0.82
0.63,-0.22,0.83
0.62,-0.22,0.82
0.61,-0.23,0.8
0.6,-0.24,0.79
0.6,-0.24,0.79
0.62,-0.23,0.78
0.63,-0.23,0.77
0.62,-0.23,0.79
0.62,-0.22,0.8
0.61,-0.21,0.82
0.61,-0.2,0.84
0.6,-0.19,0.85
0.61,-0.17,0.86
0.64,-0.17,0.86
0.68,-0.2,0.85
0.72,-0.22,0.85
0.72,-0.24,0.83
0.68,-0.22,0.8
0.63,-0.19,0.77
0.61,-0.16,0.75
0.62,-0.14,0.75
0.62,-0.13,0.77
0.64,-0.13,0.8
0.69,-0.13,0.83
0.75,-0.14,0.85
0.77,-0.13,0.87
0.75,-0.11,0.87
0.73,-0.09,0.87
0.74,-0.08,0.9
0.75,-0.07,0.92
0.73,-0.05,0.93
0.71,-0.03,0.93
0.7,-0.01,0.93
0.68,0,0.92
0.65,0.02,0.91
0.64,0.04,0.9
0.64,0.04,0.88
0.62,0.05,0.86
0.61,0.06,0.85
0.6,0.07,0.85
0.58,0.07,0.83
0.56,0.08,0.81
0.54,0.1,0.8
0.53,0.1,0.78
0.52,0.11,0.76
0.52,0.12,0.75
0.52,0.13,0.74
0.53,0.13,0.73
0.53,0.13,0.72
0.52,0.13,0.71
0.51,0.13,0.7
0.49,0.13,0.7
0.49,0.14,0.7
0.48,0.15,0.69
0.48,0.16,0.68
0.48,0.17,0.68
0.48,0.17,0.68
0.48,0.17,0.68
0.49,0.17,0.68
0.49,0.17,0.68
0.49,0.16,0.69
0.49,0.16,0.7
0.49,0.16,0.7
0.49,0.16,0.7
0.5,0.16,0.7
0.5,0.16,0.7
0.52,0.16,0.71
0.53,0.15,0.73
0.55,0.14,0.73
0.55,0.13,0.74
0.56,0.13,0.74
0.57,0.13,0.73
0.57,0.14,0.73
0.58,0.14,0.72
0.58,0.15,0.72
0.58,0.15,0.71
0.58,0.15,0.71
0.58,0.15,0.71
0.58,0.15,0.72
0.57,0.15,0.73
0.57,0.15,0.73
0.53,0.15,0.72
0.52,0.15,0.72
0.52,0.15,0.71
0.52,0.14,0.71
0.52,0.14,0.71
0.52,0.12,0.71
0.51,0.11,0.7
0.51,0.1,0.69
0.5,0.09,0.68
0.5,0.07,0.65
0.5,0.06,0.63
0.5,0.03,0.6
0.48,0.01,0.58
0.47,-0.02,0.57
0.46,-0.03,0.55
0.43,-0.05,0.54
0.41,-0.06,0.52
0.39,-0.08,0.5
0.36,-0.11,0.45
0.39,-0.14,0.37
0.78,-0.39,0.73
1.93,-0.16,1.93
1.9,0.08,2.57
0.81,-0.16,2.4
0.46,-0.13,2.09
0.41,0.01,1.01
0.5,0.13,0.72
0.55,0.09,0.61
0.62,-0.01,0.66
0.62,-0.13,0.71
0.54,-0.21,0.73
0.46,-0.28,0.79
0.43,-0.36,0.85
0.44,-0.4,0.86
0.5,-0.38,0.83
0.55,-0.35,0.77
0.6,-0.32,0.71
0.66,-0.28,0.71
0.68,-0.26,0.72
0.67,-0.25,0.75
0.68,-0.24,0.77
0.66,-0.23,0.77
0.64,-0.22,0.78
0.62,-0.2,0.81
0.59,-0.19,0.84
0.56,-0.19,0.88
0.52,-0.19,0.92
0.48,-0.2,0.93
0.45,-0.23,0.93
0.45,-0.26,0.9
0.46,-0.29,0.86
0.49,-0.31,0.82
0.57,-0.28,0.81
0.55,-0.26,0.82
0.51,-0.23,0.82
0.51,-0.22,0.83
0.54,-0.22,0.84
0.57,-0.23,0.84
0.58,-0.24,0.82
0.55,-0.25,0.79
0.53,-0.25,0.77
0.55,-0.25,0.79
0.58,-0.25,0.8
0.58,-0.25,0.8
0.57,-0.25,0.8
0.59,-0.24,0.81
0.62,-0.23,0.82
0.62,-0.22,0.82
0.59,-0.23,0.81
0.56,-0.23,0.8
0.55,-0.25,0.8
0.54,-0.26,0.8
0.53,-0.25,0.8
0.54,-0.25,0.8
0.56,-0.24,0.8
0.57,-0.24,0.81
0.58,-0.24,0.8
0.59,-0.23,0.79
0.6,-0.22,0.81
0.6,-0.22,0.81
0.59,-0.23,0.82
0.57,-0.24,0.81
0.54,-0.25,0.8
0.53,-0.26,0.79
0.54,-0.26,0.79
0.55,-0.25,0.8
0.57,-0.24,0.81
0.57,-0.23,0.82
0.58,-0.23,0.82
0.58,-0.24,0.81
0.57,-0.25,0.8
0.57,-0.25,0.8
0.57,-0.25,0.8
0.57,-0.24,0.79
0.56,-0.24,0.79
0.58,-0.24,0.79
0.59,-0.24,0.8
0.6,-0.24,0.81
0.59,-0.24,0.81
0.58,-0.23,0.81
0.57,-0.24,0.8
0.56,-0.24,0.8
0.55,-0.25,0.79
0.55,-0.24,0.79
0.56,-0.24,0.81
0.58,-0.24,0.81
0.58,-0.23,0.81
0.58,-0.24,0.8
0.58,-0.23,0.8
0.58,-0.24,0.79
0.58,-0.24,0.79
0.58,-0.24,0.8
0.58,-0.24,0.81
0.58,-0.24,0.81
0.57,-0.24,0.81
0.57,-0.24,0.8
0.57,-0.24,0.8
0.57,-0.24,0.8
0.59,-0.23,0.8
0.6,-0.23,0.8
0.6,-0.23,0.8
0.59,-0.23,0.81
0.6,-0.23,0.82
0.58,-0.22,0.82
0.55,-0.22,0.81
0.55,-0.22,0.81
0.56,-0.23,0.82
0.57,-0.23,0.82
0.59,-0.23,0.82
0.6,-0.23,0.81
0.61,-0.22,0.8
0.63,-0.22,0.8
0.62,-0.23,0.79
0.6,-0.23,0.79
0.59,-0.23,0.8
0.58,-0.22,0.81
0.57,-0.21,0.82
0.57,-0.21,0.84
0.57,-0.2,0.85
0.56,-0.19,0.87
0.56,-0.18,0.88
0.57,-0.17,0.89
0.58,-0.16,0.88
0.61,-0.16,0.85
0.64,-0.16,0.83
0.64,-0.16,0.81
0.61,-0.15,0.82
0.6,-0.16,0.84
0.61,-0.16,0.83
0.6,-0.14,0.83
0.59,-0.15,0.83
0.6,-0.15,0.83
0.62,-0.15,0.84
0.64,-0.14,0.86
0.66,-0.14,0.88
0.67,-0.15,0.9
0.66,-0.15,0.91
0.63,-0.13,0.9
0.64,-0.13,0.88
0.66,-0.12,0.87
0.68,-0.11,0.87
0.71,-0.1,0.89
0.73,-0.09,0.91
0.73,-0.08,0.92
0.71,-0.07,0.93
0.68,-0.06,0.92
0.67,-0.04,0.9
0.66,-0.02,0.88
0.66,-0.02,0.87
0.66,-0.01,0.87
0.64,0.01,0.87
0.63,0.01,0.86
0.62,0.03,0.85
0.61,0.05,0.83
0.61,0.06,0.8
0.6,0.07,0.77
0.6,0.08,0.76
0.6,0.09,0.75
0.59,0.1,0.74
0.58,0.11,0.75
0.57,0.11,0.75
0.57,0.12,0.74
0.56,0.14,0.7
0.53,0.16,0.67
0.52,0.17,0.66
0.52,0.18,0.65
0.52,0.18,0.66
0.51,0.19,0.66
0.51,0.2,0.66
0.51,0.2,0.65
0.51,0.21,0.64
0.5,0.21,0.64
0.5,0.21,0.63
0.49,0.21,0.62
0.48,0.22,0.61
0.48,0.22,0.61
0.47,0.23,0.6
0.47,0.23,0.61
0.47,0.23,0.6
0.47,0.22,0.61
0.49,0.22,0.63
0.5,0.2,0.64
0.52,0.19,0.66
0.53,0.17,0.66
0.54,0.16,0.65
0.54,0.15,0.64
0.54,0.14,0.63
0.54,0.14,0.62
0.52,0.14,0.61
0.5,0.15,0.6
0.48,0.15,0.59
0.47,0.15,0.58
0.45,0.14,0.58
0.44,0.13,0.58
0.46,0.1,0.59
0.48,0.08,0.59
0.49,0.05,0.6
0.5,0.01,0.61
0.51,-0.02,0.62
0.5,-0.05,0.62
0.49,-0.07,0.61
0.48,-0.09,0.59
0.47,-0.11,0.57
0.46,-0.14,0.56
0.44,-0.17,0.55
0.53,-0.35,0.57
1.19,-0.52,1.39
1.89,-0.35,2.46
1.52,-0.05,2.83
0.94,-0.06,2.58
0.79,-0.14,1.93
0.68,0.01,1.35
0.53,0.05,0.96
0.41,0.02,0.69
0.36,-0.01,0.47
0.35,-0.05,0.35
0.36,-0.07,0.43
0.37,-0.11,0.53
0.41,-0.16,0.64
0.48,-0.19,0.77
0.57,-0.2,0.89
0.64,-0.2,1
0.67,-0.18,1.06
0.67,-0.15,1.08
0.65,-0.12,1.04
0.61,-0.1,0.97
0.57,-0.09,0.89
0.54,-0.09,0.81
0.53,-0.11,0.74
0.53,-0.13,0.7
0.53,-0.14,0.69
0.52,-0.15,0.7
0.54,-0.16,0.74
0.56,-0.17,0.8
0.58,-0.18,0.87
0.6,-0.19,0.91
0.6,-0.19,0.93
0.59,-0.18,0.92
0.56,-0.16,0.88
0.54,-0.14,0.85
0.54,-0.14,0.81
0.54,-0.14,0.77
0.56,-0.15,0.78
0.57,-0.16,0.81
0.58,-0.16,0.83
0.58,-0.16,0.85
0.58,-0.16,0.86
0.57,-0.16,0.86
0.56,-0.15,0.84
0.56,-0.15,0.83
0.56,-0.15,0.82
0.56,-0.14,0.81
0.56,-0.15,0.81
0.56,-0.15,0.81
0.56,-0.16,0.82
0.57,-0.16,0.83
0.57,-0.16,0.83
0.56,-0.16,0.84
0.56,-0.16,0.84
0.56,-0.16,0.84
0.56,-0.15,0.83
0.55,-0.15,0.82
0.55,-0.15,0.82
0.56,-0.15,0.82
0.56,-0.15,0.82
0.57,-0.16,0.83
0.58,-0.15,0.83
0.57,-0.15,0.83
0.56,-0.15,0.82
0.56,-0.15,0.82
0.56,-0.15,0.82
0.57,-0.15,0.82
0.56,-0.15,0.82
0.57,-0.15,0.82
0.57,-0.15,0.83
0.57,-0.15,0.83
0.57,-0.15,0.83
0.57,-0.15,0.83
0.57,-0.15,0.83
0.57,-0.15,0.82
0.57,-0.15,0.83
0.57,-0.15,0.83
0.57,-0.15,0.82
0.57,-0.15,0.82
0.57,-0.15,0.82
0.57,-0.15,0.82
0.57,-0.15,0.82
0.57,-0.15,0.82
0.56,-0.15,0.82
0.57,-0.15,0.83
0.57,-0.15,0.83
0.57,-0.15,0.83
0.57,-0.15,0.83
0.57,-0.14,0.83
0.56,-0.15,0.82
0.57,-0.15,0.82
0.57,-0.15,0.83
0.57,-0.15,0.82
0.57,-0.15,0.82
0.58,-0.15,0.82
0.57,-0.14,0.82
0.57,-0.14,0.82
0.57,-0.14,0.82
0.57,-0.14,0.83
0.57,-0.15,0.83
0.57,-0.15,0.83
0.56,-0.15,0.83
0.56,-0.14,0.83
0.56,-0.15,0.83
0.57,-0.15,0.83
0.57,-0.14,0.83
0.57,-0.14,0.84
0.57,-0.14,0.85
0.56,-0.14,0.87
0.55,-0.14,0.89
0.54,-0.14,0.91
0.54,-0.16,0.92
0.54,-0.16,0.94
0.54,-0.16,0.96
0.56,-0.15,0.92
0.63,-0.13,0.89
0.65,-0.13,0.88
0.68,-0.13,0.87
0.69,-0.15,0.89
0.7,-0.15,0.9
0.72,-0.15,0.89
0.72,-0.16,0.88
0.71,-0.14,0.88
0.7,-0.13,0.88
0.66,-0.13,0.89
0.65,-0.11,0.89
0.66,-0.1,0.89
0.7,-0.09,0.91
0.73,-0.08,0.91
0.75,-0.05,0.91
0.74,-0.03,0.91
0.72,-0.01,0.91
0.71,0,0.9
0.68,0.01,0.9
0.65,0.03,0.89
0.62,0.04,0.86
0.61,0.06,0.83
0.6,0.08,0.8
0.59,0.1,0.77
0.59,0.11,0.76
0.59,0.12,0.74
0.56,0.14,0.72
0.54,0.15,0.7
0.54,0.16,0.68
0.53,0.16,0.66
0.52,0.16,0.64
0.51,0.16,0.63
0.5,0.16,0.63
0.5,0.16,0.61
0.49,0.16,0.59
0.48,0.16,0.58
0.47,0.17,0.56
0.46,0.17,0.55
0.46,0.17,0.54
0.45,0.17,0.54
0.45,0.16,0.54
0.46,0.15,0.55
0.47,0.14,0.57
0.49,0.13,0.58
0.51,0.11,0.59
0.52,0.1,0.59
0.51,0.09,0.59
0.49,0.08,0.58
0.48,0.08,0.57
0.47,0.09,0.58
0.46,0.09,0.59
0.46,0.09,0.59
0.44,0.09,0.54
0.42,0.08,0.5
0.4,0.06,0.45
0.4,0.03,0.39
0.39,0,0.37
0.37,-0.03,0.35
0.33,-0.07,0.29
0.28,-0.12,0.2
0.25,-0.17,0.12
0.38,-0.3,0.02
1.55,-0.45,1.57
2.26,-0.61,3.38
1.36,-0.42,3.43
0.86,-0.23,2.83
0.85,-0.14,1.81
0.52,0.15,0.94
0.32,0.24,0.48
0.42,0.22,0.35
0.5,0.13,0.47
0.5,-0.03,0.64
0.53,-0.17,0.71
0.55,-0.25,0.74
0.56,-0.31,0.8
0.58,-0.34,0.86
0.61,-0.34,0.88
0.61,-0.31,0.85
0.59,-0.24,0.76
0.59,-0.23,0.76
0.61,-0.23,0.76
0.64,-0.22,0.76
0.66,-0.23,0.75
0.68,-0.23,0.74
0.68,-0.23,0.75
0.65,-0.23,0.77
0.6,-0.24,0.79
0.57,-0.24,0.82
0.56,-0.24,0.86
0.56,-0.24,0.88
0.57,-0.23,0.86
0.58,-0.23,0.81
0.6,-0.22,0.78
0.6,-0.21,0.76
0.6,-0.22,0.75
0.59,-0.23,0.76
0.59,-0.23,0.77
0.6,-0.23,0.78
0.6,-0.22,0.79
0.6,-0.22,0.78
0.61,-0.21,0.77
0.62,-0.21,0.75
0.63,-0.21,0.74
0.62,-0.22,0.73
0.62,-0.25,0.76
0.64,-0.25,0.8
0.65,-0.25,0.82
0.66,-0.22,0.82
0.65,-0.21,0.8
0.62,-0.2,0.77
0.62,-0.19,0.75
0.64,-0.2,0.79
0.67,-0.21,0.84
0.68,-0.23,0.85
0.65,-0.23,0.81
0.61,-0.23,0.78
0.58,-0.24,0.76
0.6,-0.25,0.77
0.63,-0.25,0.79
0.61,-0.27,0.76
0.58,-0.28,0.7
0.59,-0.28,0.68
0.62,-0.28,0.69
0.61,-0.28,0.7
0.59,-0.26,0.74
0.59,-0.27,0.77
0.57,-0.29,0.8
0.58,-0.28,0.82
0.63,-0.26,0.8
0.67,-0.26,0.79
0.67,-0.26,0.75
0.58,-0.26,0.74
0.54,-0.28,0.75
0.53,-0.3,0.76
0.56,-0.3,0.8
0.62,-0.29,0.82
0.66,-0.28,0.81
0.68,-0.26,0.79
0.64,-0.25,0.76
0.56,-0.26,0.72
0.5,-0.28,0.69
0.52,-0.28,0.7
0.6,-0.28,0.75
0.66,-0.27,0.8
0.7,-0.26,0.83
0.68,-0.25,0.84
0.63,-0.25,0.81
0.58,-0.26,0.77
0.54,-0.27,0.74
0.54,-0.28,0.72
0.58,-0.29,0.73
0.63,-0.28,0.75
0.66,-0.27,0.77
0.67,-0.26,0.79
0.66,-0.26,0.81
0.61,-0.25,0.82
0.55,-0.25,0.79
0.53,-0.25,0.79
0.56,-0.25,0.79
0.58,-0.25,0.81
0.6,-0.26,0.81
0.64,-0.27,0.78
0.7,-0.27,0.72
0.74,-0.27,0.67
0.75,-0.27,0.66
0.73,-0.29,0.7
0.65,-0.29,0.76
0.57,-0.28,0.81
0.53,-0.26,0.85
0.51,-0.24,0.87
0.5,-0.24,0.88
0.52,-0.24,0.87
0.55,-0.24,0.85
0.6,-0.24,0.82
0.67,-0.24,0.78
0.72,-0.24,0.74
0.74,-0.24,0.72
0.74,-0.23,0.71
0.72,-0.23,0.72
0.68,-0.22,0.74
0.63,-0.21,0.76
0.59,-0.2,0.78
0.55,-0.18,0.85
0.53,-0.16,0.88
0.53,-0.15,0.89
0.54,-0.15,0.9
0.58,-0.14,0.9
0.62,-0.13,0.88
0.64,-0.12,0.86
0.66,-0.12,0.85
0.67,-0.13,0.85
0.65,-0.12,0.82
0.63,-0.11,0.82
0.62,-0.12,0.84
0.59,-0.14,0.84
0.6,-0.14,0.85
0.62,-0.14,0.86
0.65,-0.14,0.86
0.66,-0.14,0.87
0.66,-0.14,0.89
0.67,-0.13,0.92
0.67,-0.13,0.95
0.65,-0.12,0.96
0.63,-0.12,0.95
0.63,-0.11,0.93
0.62,-0.1,0.91
0.62,-0.09,0.88
0.63,-0.07,0.85
0.63,-0.06,0.83
0.66,-0.04,0.83
0.68,-0.02,0.83
0.68,0.01,0.83
0.68,0.03,0.84
0.7,0.05,0.84
0.7,0.06,0.85
0.69,0.07,0.86
0.67,0.08,0.85
0.65,0.1,0.85
0.64,0.11,0.84
0.63,0.13,0.83
0.63,0.14,0.82
0.62,0.15,0.81
0.59,0.16,0.79
0.58,0.17,0.78
0.57,0.18,0.76
0.57,0.18,0.74
0.56,0.18,0.71
0.56,0.2,0.69
0.57,0.21,0.66
0.57,0.22,0.64
0.58,0.23,0.64
0.59,0.23,0.65
0.57,0.25,0.64
0.54,0.26,0.63
0.52,0.27,0.62
0.48,0.29,0.58
0.46,0.29,0.55
0.45,0.29,0.53
0.44,0.3,0.52
0.43,0.31,0.51
0.41,0.32,0.49
0.4,0.33,0.47
0.38,0.33,0.45
0.38,0.32,0.45
0.39,0.3,0.45
0.4,0.28,0.46
0.43,0.26,0.48
0.46,0.23,0.5
0.48,0.21,0.52
0.48,0.2,0.52
0.47,0.2,0.52
0.46,0.19,0.51
0.44,0.18,0.49
0.43,0.17,0.5
0.41,0.15,0.53
0.41,0.14,0.55
0.41,0.13,0.55
0.43,0.11,0.55
0.45,0.09,0.5
0.46,0.07,0.45
0.43,0.03,0.38
0.34,-0.13,0.19
0.2,-0.2,0.14
0.19,-0.26,0.13
0.76,-0.56,0.14
2.22,-1.22,2.06
2.17,-0.99,3.99
0.82,-0.27,3.7
0.65,-0.14,2.64
0.51,0.1,1.4
0.05,0.31,0.64
0.3,0.22,0.3
0.73,0.07,0.33
0.8,-0.08,0.53
0.69,-0.24,0.72
0.56,-0.34,0.86
0.5,-0.39,0.93
0.45,-0.4,0.89
0.38,-0.34,0.81
0.42,-0.26,0.78
0.55,-0.22,0.8
0.69,-0.19,0.86
0.82,-0.18,0.9
0.81,-0.18,0.89
0.69,-0.17,0.81
0.64,-0.13,0.74
0.59,-0.12,0.66
0.57,-0.17,0.77
0.72,-0.2,0.87
0.67,-0.22,0.89
0.55,-0.23,0.87
0.46,-0.26,0.88
0.42,-0.28,0.88
0.45,-0.28,0.86
0.49,-0.29,0.83
0.52,-0.31,0.81
0.53,-0.33,0.73
0.58,-0.33,0.68
0.58,-0.34,0.71
0.55,-0.36,0.75
0.52,-0.37,0.76
0.53,-0.35,0.76
0.59,-0.35,0.75
0.59,-0.39,0.74
0.58,-0.39,0.77
0.61,-0.39,0.78
0.58,-0.39,0.75
0.54,-0.39,0.7
0.61,-0.37,0.71
0.62,-0.34,0.71
0.54,-0.33,0.7
0.55,-0.32,0.7
0.62,-0.34,0.71
0.59,-0.37,0.71
0.63,-0.36,0.7
0.68,-0.34,0.7
0.68,-0.32,0.72
0.61,-0.3,0.72
0.48,-0.29,0.68
0.4,-0.32,0.69
0.49,-0.35,0.76
0.63,-0.35,0.82
0.7,-0.31,0.83
0.71,-0.28,0.81
0.67,-0.26,0.77
0.57,-0.27,0.74
0.46,-0.31,0.69
0.47,-0.35,0.65
0.56,-0.38,0.62
0.65,-0.4,0.69
0.68,-0.38,0.79
0.66,-0.33,0.82
0.62,-0.29,0.8
0.54,-0.28,0.79
0.51,-0.3,0.79
0.54,-0.32,0.8
0.57,-0.33,0.77
0.6,-0.33,0.73
0.62,-0.33,0.7
0.63,-0.33,0.71
0.65,-0.32,0.8
0.57,-0.3,0.85
0.47,-0.3,0.84
0.44,-0.29,0.81
0.46,-0.29,0.78
0.48,-0.29,0.71
0.51,-0.29,0.59
0.58,-0.31,0.49
0.73,-0.33,0.54
0.79,-0.35,0.67
0.77,-0.36,0.79
0.77,-0.36,0.9
0.69,-0.32,0.97
0.54,-0.28,0.97
0.4,-0.23,0.92
0.35,-0.18,0.89
0.38,-0.16,0.86
0.42,-0.16,0.81
0.5,-0.18,0.77
0.62,-0.2,0.81
0.74,-0.21,0.88
0.76,-0.21,0.93
0.7,-0.19,0.93
0.67,-0.19,0.93
0.67,-0.2,0.93
0.63,-0.19,0.89
0.52,-0.17,0.87
0.49,-0.16,0.85
0.5,-0.16,0.85
0.54,-0.17,0.86
0.57,-0.17,0.88
0.56,-0.17,0.89
0.55,-0.17,0.91
0.55,-0.18,0.92
0.56,-0.18,0.91
0.56,-0.19,0.9
0.54,-0.17,0.92
0.53,-0.17,0.95
0.54,-0.18,0.97
0.56,-0.18,0.99
0.57,-0.18,0.99
0.58,-0.18,0.99
0.59,-0.17,0.98
0.58,-0.15,0.98
0.57,-0.14,0.99
0.58,-0.13,0.98
0.59,-0.12,0.97
0.59,-0.11,0.96
0.59,-0.1,0.94
0.58,-0.1,0.93
0.58,-0.08,0.93
0.59,-0.07,0.91
0.58,-0.03,0.91
0.58,-0.01,0.89
0.61,0.01,0.86
0.62,0.04,0.83
0.61,0.06,0.81
0.62,0.08,0.79
0.63,0.09,0.78
0.62,0.12,0.78
0.62,0.15,0.79
0.61,0.17,0.8
0.58,0.2,0.8
0.55,0.22,0.8
0.54,0.22,0.8
0.52,0.23,0.78
0.5,0.25,0.77
0.5,0.25,0.76
0.5,0.26,0.75
0.5,0.27,0.72
0.5,0.29,0.69
0.5,0.3,0.67
0.49,0.31,0.65
0.48,0.32,0.64
0.47,0.33,0.62
0.45,0.34,0.6
0.44,0.34,0.59
0.44,0.34,0.58
0.43,0.33,0.56
0.41,0.33,0.54
0.4,0.33,0.51
0.39,0.34,0.49
0.38,0.34,0.47
0.38,0.33,0.46
0.39,0.31,0.46
0.41,0.3,0.48
0.44,0.28,0.5
0.48,0.24,0.52
0.5,0.21,0.53
0.49,0.19,0.53
0.47,0.17,0.52
0.45,0.17,0.51
0.42,0.16,0.49
0.41,0.15,0.47
0.4,0.14,0.44
0.41,0.13,0.42
0.43,0.11,0.44
0.44,0.09,0.49
0.45,0.08,0.51
0.5,0.07,0.54
0.52,0.07,0.58
0.5,0.07,0.52
0.51,0.08,0.4
0.49,0.12,0.33
0.45,0.11,0.22
0.36,0.01,0.12
0.49,-0.23,0.11
1.19,-0.59,2.06
1.89,-0.68,3.98
1.84,-0.45,4
1.09,-0.31,3.22
0.38,-0.15,1.74
0.19,0.1,0.57
0.28,0.2,0.01
0.36,0.12,0.03
0.34,-0.05,0.31
0.39,-0.22,0.61
0.45,-0.37,0.73
0.46,-0.41,0.73
0.53,-0.38,0.71
0.63,-0.37,0.73
0.69,-0.32,0.79
0.76,-0.22,0.82
0.84,-0.14,0.77
0.85,-0.12,0.69
0.81,-0.15,0.69
0.74,-0.18,0.73
0.64,-0.22,0.75
0.6,-0.24,0.75
0.62,-0.23,0.8
0.64,-0.27,0.9
0.67,-0.27,0.93
0.64,-0.25,0.94
0.57,-0.23,0.91
0.5,-0.21,0.87
0.51,-0.22,0.85
0.57,-0.23,0.83
0.63,-0.24,0.81
0.66,-0.25,0.79
0.66,-0.25,0.78
0.64,-0.26,0.76
0.62,-0.26,0.75
0.6,-0.25,0.76
0.59,-0.25,0.75
0.58,-0.26,0.74
0.58,-0.27,0.74
0.59,-0.27,0.77
0.6,-0.27,0.78
0.61,-0.27,0.79
0.62,-0.26,0.8
0.6,-0.25,0.78
0.58,-0.25,0.76
0.6,-0.26,0.75
0.62,-0.25,0.74
0.63,-0.24,0.73
0.63,-0.25,0.74
0.64,-0.25,0.77
0.61,-0.24,0.78
0.61,-0.25,0.79
0.6,-0.26,0.8
0.6,-0.26,0.79
0.6,-0.25,0.78
0.6,-0.25,0.76
0.61,-0.25,0.75
0.63,-0.25,0.76
0.65,-0.25,0.77
0.65,-0.25,0.8
0.63,-0.26,0.81
0.6,-0.26,0.79
0.59,-0.25,0.76
0.58,-0.25,0.75
0.58,-0.25,0.74
0.6,-0.25,0.74
0.62,-0.25,0.75
0.64,-0.26,0.79
0.64,-0.25,0.8
0.62,-0.25,0.8
0.6,-0.26,0.78
0.6,-0.26,0.76
0.6,-0.25,0.75
0.6,-0.25,0.75
0.61,-0.25,0.75
0.63,-0.25,0.78
0.63,-0.25,0.79
0.61,-0.25,0.78
0.61,-0.25,0.78
0.62,-0.25,0.79
0.61,-0.25,0.79
0.6,-0.25,0.79
0.59,-0.25,0.77
0.6,-0.25,0.76
0.62,-0.25,0.76
0.63,-0.25,0.76
0.62,-0.25,0.76
0.62,-0.25,0.77
0.62,-0.26,0.78
0.61,-0.26,0.78
0.6,-0.25,0.77
0.6,-0.25,0.76
0.61,-0.24,0.76
0.61,-0.24,0.76
0.62,-0.24,0.76
0.63,-0.24,0.77
0.64,-0.25,0.78
0.64,-0.25,0.78
0.62,-0.25,0.77
0.6,-0.26,0.76
0.6,-0.26,0.76
0.6,-0.26,0.77
0.62,-0.25,0.78
0.63,-0.25,0.79
0.63,-0.25,0.78
0.62,-0.26,0.77
0.62,-0.25,0.76
0.61,-0.24,0.76
0.61,-0.24,0.76
0.6,-0.24,0.76
0.61,-0.24,0.77
0.61,-0.24,0.78
0.62,-0.24,0.78
0.62,-0.24,0.79
0.62,-0.25,0.78
0.61,-0.25,0.77
0.6,-0.25,0.77
0.59,-0.25,0.76
0.58,-0.25,0.76
0.59,-0.25,0.76
0.61,-0.25,0.77
0.62,-0.25,0.78
0.63,-0.25,0.77
0.62,-0.25,0.78
0.61,-0.25,0.78
0.61,-0.25,0.78
0.6,-0.25,0.78
0.6,-0.24,0.79
0.6,-0.24,0.8
0.61,-0.24,0.8
0.61,-0.23,0.81
0.62,-0.23,0.82
0.63,-0.23,0.83
0.62,-0.23,0.83
0.61,-0.23,0.84
0.61,-0.23,0.85
0.6,-0.25,0.86
0.6,-0.27,0.86
0.61,-0.28,0.86
0.64,-0.28,0.85
0.65,-0.27,0.85
0.64,-0.26,0.84
0.62,-0.25,0.83
0.61,-0.23,0.83
0.62,-0.22,0.82
0.61,-0.2,0.84
0.62,-0.21,0.85
0.64,-0.2,0.84
0.63,-0.18,0.86
0.63,-0.19,0.87
0.65,-0.19,0.86
0.67,-0.19,0.88
0.7,-0.2,0.9
0.7,-0.2,0.93
0.71,-0.18,0.98
0.72,-0.15,1
0.72,-0.12,1.02
0.72,-0.09,1.04
0.72,-0.06,1.04
0.7,-0.05,1.02
0.7,-0.03,1
0.67,-0.01,0.97
0.64,0.01,0.94
0.62,0.02,0.91
0.61,0.05,0.88
0.59,0.07,0.88
0.6,0.08,0.88
0.62,0.09,0.86
0.63,0.11,0.84
0.62,0.12,0.82
0.6,0.13,0.8
0.57,0.15,0.78
0.54,0.18,0.76
0.53,0.19,0.74
0.54,0.2,0.73
0.54,0.2,0.73
0.54,0.21,0.72
0.54,0.22,0.71
0.53,0.23,0.69
0.53,0.24,0.68
0.53,0.25,0.64
0.53,0.26,0.62
0.54,0.27,0.61
0.54,0.28,0.59
0.54,0.29,0.58
0.55,0.29,0.57
0.55,0.29,0.57
0.53,0.3,0.55
0.52,0.3,0.53
0.51,0.31,0.53
0.5,0.32,0.53
0.49,0.32,0.52
0.48,0.32,0.51
0.47,0.32,0.49
0.46,0.33,0.46
0.45,0.33,0.44
0.45,0.34,0.43
0.45,0.34,0.42
0.46,0.34,0.42
0.45,0.33,0.44
0.45,0.33,0.47
0.44,0.33,0.49
0.44,0.33,0.5
0.46,0.32,0.5
0.46,0.31,0.49
0.46,0.3,0.43
0.66,0.12,0.51
0.59,0.12,0.68
0.45,0.26,0.72
0.41,0.31,0.68
0.44,0.29,0.58
0.49,0.22,0.52
0.63,0.15,0.49
0.76,0.13,0.49
0.77,0.07,0.58
0.72,0.06,0.66
0.74,0.1,0.69
0.72,0.12,0.75
0.62,0.08,0.87
0.59,0.04,0.92
0.52,0.06,0.87
0.43,0.07,0.82
0.35,0.1,0.7
0.33,0.14,0.48
0.35,0.13,0.35
0.39,0.13,0.36
0.41,0.17,0.44
0.42,0.17,0.51
0.44,0.14,0.52
0.51,0.05,0.53
1.7,-0.32,1.8
1.89,-0.26,3.38
0.72,-0.03,3.04
0.13,0.03,2.27
0.1,0.05,1.58
-0.05,0.07,1.06
-0.03,0.06,0.69
0.1,0,0.51
0.25,-0.05,0.45
0.34,-0.08,0.42
0.4,-0.11,0.41
0.44,-0.15,0.4
0.49,-0.18,0.44
0.56,-0.23,0.54
0.66,-0.26,0.69
0.75,-0.27,0.87
0.8,-0.29,1.02
0.75,-0.28,1.13
0.63,-0.26,1.17
0.51,-0.22,1.16
0.43,-0.18,1.09
0.38,-0.14,0.96
0.35,-0.11,0.83
0.36,-0.09,0.74
0.38,-0.09,0.69
0.43,-0.09,0.68
0.48,-0.1,0.71
0.52,-0.11,0.77
0.55,-0.11,0.92
0.57,-0.1,0.98
0.55,-0.1,1.01
0.51,-0.1,1.02
0.46,-0.09,1
0.43,-0.1,0.95
0.42,-0.1,0.9
0.39,-0.09,0.85
0.38,-0.07,0.81
0.4,-0.07,0.8
0.45,-0.08,0.8
0.49,-0.1,0.82
0.52,-0.12,0.86
0.55,-0.15,0.9
0.55,-0.15,0.93
0.54,-0.14,0.96
0.54,-0.15,0.97
0.53,-0.16,0.95
0.51,-0.14,0.93
0.49,-0.14,0.9
0.48,-0.14,0.88
0.46,-0.14,0.86
0.45,-0.13,0.86
0.43,-0.11,0.87
0.43,-0.11,0.87
0.45,-0.11,0.87
0.47,-0.1,0.86
0.5,-0.1,0.85
0.49,-0.09,0.85
0.47,-0.09,0.86
0.47,-0.1,0.86
0.48,-0.09,0.88
0.47,-0.1,0.89
0.47,-0.1,0.91
0.47,-0.1,0.92
0.47,-0.09,0.93
0.46,-0.09,0.93
0.46,-0.09,0.92
0.47,-0.08,0.91
0.49,-0.08,0.9
0.49,-0.1,0.9
0.49,-0.11,0.9
0.48,-0.11,0.91
0.47,-0.11,0.9
0.47,-0.11,0.9
0.46,-0.12,0.9
0.46,-0.13,0.89
0.47,-0.12,0.89
0.48,-0.12,0.88
0.48,-0.12,0.88
0.48,-0.12,0.87
0.49,-0.12,0.86
0.5,-0.12,0.85
0.52,-0.12,0.83
0.53,-0.13,0.82
0.55,-0.13,0.81
0.56,-0.14,0.8
0.57,-0.13,0.8
0.57,-0.14,0.78
0.57,-0.14,0.77
0.58,-0.14,0.75
0.59,-0.14,0.74
0.6,-0.14,0.74
0.61,-0.14,0.73
0.61,-0.13,0.73
0.58,-0.13,0.75
0.55,-0.14,0.77
0.54,-0.14,0.79
0.54,-0.15,0.81
0.53,-0.16,0.82
0.53,-0.17,0.83
0.53,-0.18,0.83
0.54,-0.2,0.83
0.55,-0.22,0.82
0.55,-0.24,0.81
0.54,-0.27,0.8
0.54,-0.29,0.79
0.54,-0.3,0.79
0.53,-0.31,0.78
0.54,-0.33,0.75
0.54,-0.34,0.75
0.54,-0.35,0.76
0.54,-0.36,0.78
0.55,-0.37,0.79
0.55,-0.38,0.81
0.56,-0.39,0.82
0.56,-0.4,0.83
0.56,-0.4,0.84
0.55,-0.4,0.83
0.55,-0.39,0.81
0.56,-0.39,0.79
0.56,-0.39,0.77
0.57,-0.39,0.75
0.57,-0.4,0.74
0.57,-0.41,0.73
0.57,-0.41,0.72
0.56,-0.41,0.73
0.56,-0.41,0.73
0.56,-0.42,0.73
0.56,-0.44,0.73
0.59,-0.44,0.72
0.62,-0.43,0.73
0.61,-0.43,0.73
0.61,-0.44,0.73
0.62,-0.44,0.73
0.62,-0.44,0.71
0.62,-0.44,0.7
0.62,-0.44,0.69
0.62,-0.45,0.68
