Acc_x,Acc_y,Acc_z
0.67,-0.35,0.8
0.66,-0.34,0.8
0.67,-0.35,0.82
0.67,-0.35,0.83
0.68,-0.34,0.84
0.69,-0.35,0.85
0.69,-0.35,0.85
0.68,-0.35,0.87
0.65,-0.35,0.87
0.63,-0.35,0.86
0.61,-0.35,0.85
0.61,-0.36,0.83
0.6,-0.38,0.79
0.58,-0.41,0.77
0.56,-0.43,0.78
0.55,-0.43,0.81
0.53,-0.43,0.82
0.49,-0.44,0.81
0.44,-0.45,0.79
0.39,-0.45,0.75
0.35,-0.45,0.71
0.33,-0.44,0.67
0.35,-0.45,0.64
0.39,-0.48,0.64
0.44,-0.48,0.69
0.47,-0.47,0.7
0.44,-0.42,0.69
0.41,-0.39,0.66
0.39,-0.37,0.64
0.39,-0.35,0.64
0.41,-0.33,0.65
0.45,-0.33,0.66
0.51,-0.34,0.69
0.55,-0.33,0.71
0.58,-0.31,0.71
0.59,-0.31,0.69
0.57,-0.3,0.7
0.57,-0.28,0.77
0.56,-0.18,0.82
0.68,-0.1,0.78
0.8,-0.12,0.73
0.71,-0.13,0.81
0.74,-0.11,0.95
0.71,-0.16,1.07
0.51,-0.2,1.1
0.4,-0.15,1.08
0.38,-0.14,0.97
0.35,-0.17,0.85
0.28,-0.23,0.72
0.26,-0.33,0.6
0.29,-0.46,0.52
0.59,-0.79,0.6
0.67,-0.93,0.62
0.61,-1.01,0.56
0.53,-1.05,0.48
0.42,-1.07,0.4
0.36,-1.05,0.35
0.38,-1,0.34
0.4,-0.93,0.31
0.41,-0.85,0.34
0.48,-0.75,0.38
0.51,-0.71,0.4
0.55,-0.73,0.35
0.56,-0.78,0.26
0.55,-0.84,0.23
0.53,-0.89,0.17
0.47,-0.91,0.11
0.46,-0.9,0.09
0.52,-0.88,0.07
0.54,-0.86,0.06
0.54,-0.89,0.07
0.45,-0.97,0.08
0.35,-0.99,0.06
0.33,-0.98,0.05
0.32,-0.97,0.05
0.35,-0.95,0.08
0.36,-0.96,0.1
0.35,-0.99,0.09
0.35,-0.99,0.07
0.36,-0.98,0.03
0.38,-0.96,0.01
0.37,-0.95,0.03
0.32,-0.96,0.04
0.28,-0.98,0.02
0.24,-0.98,-0.01
0.28,-0.99,-0.01
0.33,-0.97,-0.04
0.31,-0.96,-0.06
0.31,-0.98,-0.07
0.29,-1.01,-0.07
0.23,-1.01,-0.08
0.23,-0.99,-0.07
0.23,-0.97,-0.08
0.23,-0.96,-0.12
0.26,-0.96,-0.11
0.27,-0.98,-0.1
0.23,-1,-0.12
0.19,-1,-0.14
0.21,-1,-0.14
0.23,-0.99,-0.15
0.24,-0.98,-0.17
0.25,-0.98,-0.17
0.22,-0.99,-0.18
0.2,-0.99,-0.16
0.19,-1,-0.15
0.17,-1,-0.17
0.17,-0.98,-0.18
0.18,-0.98,-0.18
0.18,-0.98,-0.2
0.22,-1,-0.21
0.23,-1,-0.18
0.19,-0.97,-0.15
0.17,-0.98,-0.17
0.14,-0.98,-0.18
0.17,-0.99,-0.19
0.16,-1.01,-0.22
0.15,-0.98,-0.2
0.17,-0.98,-0.16
0.16,-1,-0.16
0.14,-1,-0.13
0.14,-1.01,-0.12
0.11,-1.02,-0.17
0.11,-1,-0.21
0.16,-0.99,-0.21
0.17,-0.99,-0.2
0.17,-0.99,-0.19
0.18,-1,-0.17
0.17,-1.02,-0.15
0.17,-1.02,-0.17
0.15,-1.01,-0.14
0.12,-0.99,-0.12
0.1,-0.97,-0.1
0.11,-0.98,-0.1
0.11,-1,-0.11
0.32,-1.13,-0.09
0.34,-1.11,-0.1
0.2,-0.96,-0.16
0.22,-1,-0.16
0.15,-1.03,-0.1
0.11,-1.01,-0.05
0.11,-0.99,-0.07
0.16,-0.94,-0.04
0.18,-0.94,-0.05
0.16,-0.96,-0.07
0.21,-1,-0.04
0.23,-1.03,-0.05
0.23,-1.03,-0.04
0.24,-1,-0.04
0.24,-0.97,-0.04
0.24,-0.97,-0.03
0.23,-0.99,-0.01
0.25,-0.99,0.02
0.31,-0.98,0.04
0.36,-0.99,0.04
0.34,-0.99,0.02
0.32,-0.99,0.02
0.17,-0.96,0.03
0.23,-0.96,0.08
0.34,-1,0.13
0.4,-0.99,0.16
0.44,-0.96,0.17
0.44,-0.94,0.18
0.39,-0.93,0.19
0.37,-0.92,0.2
0.4,-0.91,0.23
0.36,-0.89,0.23
0.37,-0.9,0.26
0.44,-0.91,0.31
0.48,-0.88,0.3
0.52,-0.85,0.26
0.51,-0.86,0.19
0.45,-0.9,0.17
0.42,-0.93,0.2
0.41,-0.92,0.25
0.39,-0.88,0.29
0.4,-0.86,0.3
0.44,-0.85,0.28
0.47,-0.85,0.25
0.5,-0.84,0.25
0.52,-0.84,0.28
0.51,-0.82,0.3
0.53,-0.81,0.31
0.53,-0.82,0.31
0.52,-0.81,0.31
0.51,-0.8,0.32
0.52,-0.81,0.33
0.55,-0.78,0.33
0.55,-0.79,0.33
0.54,-0.79,0.33
0.54,-0.78,0.31
0.55,-0.79,0.29
0.56,-0.81,0.28
0.56,-0.81,0.28
0.55,-0.81,0.28
0.55,-0.8,0.26
0.56,-0.81,0.23
0.51,-0.84,0.16
0.5,-0.85,0.15
0.52,-0.86,0.15
0.56,-0.86,0.17
0.56,-0.84,0.19
0.47,-0.91,0.03
0.47,-0.91,0.03
0.48,-0.92,-0.01
0.51,-0.92,-0.03
0.53,-0.91,-0.02
0.55,-0.9,0
0.54,-0.9,0.01
0.5,-0.91,0.01
0.44,-0.93,-0.01
0.42,-0.95,-0.02
0.43,-0.97,-0.03
0.41,-1,-0.02
0.39,-1.04,0
0.44,-1.09,0.02
0.51,-1.16,0.03
0.57,-1.23,0.02
0.59,-1.34,-0.01
0.56,-1.51,-0.05
0.51,-1.66,-0.1
0.5,-1.61,-0.05
0.5,-1.5,0.07
0.52,-1.46,0.18
0.54,-1.46,0.23
0.48,-1.44,0.15
0.41,-1.38,-0.05
0.37,-1.36,-0.17
0.38,-1.34,-0.15
0.4,-1.32,-0.09
0.41,-1.31,0.03
0.35,-1.26,0.06
0.3,-1.21,-0.05
0.29,-1.2,-0.11
0.2,-1.16,-0.07
0.1,-1.09,-0.06
0.02,-1.03,-0.09
-0.04,-0.99,-0.12
-0.07,-0.95,-0.12
-0.06,-0.92,-0.12
-0.07,-0.89,-0.12
-0.07,-0.79,-0.13
-0.05,-0.72,-0.15
-0.05,-0.67,-0.16
-0.05,-0.63,-0.17
-0.01,-0.6,-0.17
0.05,-0.57,-0.16
0.07,-0.54,-0.13
0.07,-0.53,-0.1
0.07,-0.54,-0.07
0.06,-0.53,-0.03
-0.01,-0.52,0.02
-0.12,-0.52,0.09
-0.18,-0.56,0.13
-0.18,-0.63,0.17
-0.16,-0.7,0.19
-0.11,-0.74,0.18
-0.11,-0.77,0.17
-0.14,-0.79,0.12
-0.17,-0.83,0.09
-0.17,-0.88,0.07
-0.1,-0.92,0.02
0.01,-0.98,-0.02
0.09,-1.04,-0.02
0.16,-1.1,-0.01
0.23,-1.15,0.02
0.27,-1.16,0.09
0.35,-1.2,0.11
0.37,-1.19,0.07
0.38,-1.16,0.03
0.37,-1.13,-0.01
0.38,-1.09,-0.05
0.42,-1.05,-0.09
0.43,-1,-0.13
0.42,-0.95,-0.14
0.42,-0.91,-0.13
0.42,-0.89,-0.12
0.41,-0.89,-0.09
0.41,-0.89,-0.05
0.4,-0.87,-0.01
0.38,-0.87,0.01
0.36,-0.86,0.02
0.36,-0.87,0
0.36,-0.88,0
0.31,-0.89,0.02
0.27,-0.9,0.05
0.28,-0.92,0.09
0.27,-0.94,0.14
0.23,-0.96,0.18
0.22,-0.97,0.21
0.24,-0.97,0.21
0.26,-0.97,0.22
0.26,-0.96,0.2
0.32,-0.96,0.18
0.34,-0.96,0.16
0.34,-0.97,0.15
0.32,-0.97,0.17
0.3,-0.98,0.18
0.32,-0.97,0.16
0.36,-0.97,0.14
0.37,-0.97,0.13
0.38,-0.97,0.12
0.39,-0.96,0.1
0.39,-0.95,0.08
0.41,-0.95,0.07
0.4,-0.95,0.07
0.4,-0.94,0.07
0.4,-0.93,0.07
0.39,-0.93,0.08
0.39,-0.93,0.08
0.39,-0.92,0.08
0.4,-0.91,0.08
0.41,-0.91,0.08
0.41,-0.91,0.08
0.42,-0.91,0.07
0.43,-0.91,0.07
0.44,-0.91,0.07
0.44,-0.91,0.08
0.45,-0.91,0.08
0.45,-0.93,0.09
0.45,-0.93,0.09
0.44,-0.94,0.1
0.44,-0.94,0.1
0.43,-0.94,0.11
0.43,-0.94,0.12
0.44,-0.93,0.12
0.43,-0.93,0.13
0.42,-0.94,0.13
0.44,-0.93,0.13
0.46,-0.93,0.12
0.48,-0.93,0.11
0.49,-0.93,0.11
0.49,-0.92,0.11
0.48,-0.92,0.11
0.47,-0.92,0.11
0.46,-0.9,0.12
0.45,-0.88,0.12
0.45,-0.87,0.12
0.46,-0.87,0.11
0.46,-0.85,0.1
0.46,-0.83,0.09
0.45,-0.82,0.07
0.45,-0.81,0.05
0.45,-0.8,0.04
0.44,-0.78,0.04
0.43,-0.79,0.05
0.43,-0.79,0.06
0.42,-0.79,0.07
0.39,-0.78,0.07
0.38,-0.77,0.07
0.38,-0.76,0.04
0.37,-0.74,0.03
0.36,-0.72,0.03
0.46,-0.74,0.01
0.44,-0.74,0.04
0.33,-0.74,0.08
0.33,-0.75,0.08
0.33,-0.74,0.09
0.33,-0.75,0.1
0.34,-0.75,0.1
0.31,-0.75,0.09
0.28,-0.75,0.08
0.31,-0.76,0.05
0.33,-0.76,0.06
0.35,-0.74,0.09
0.34,-0.75,0.13
0.31,-0.73,0.18
0.29,-0.72,0.21
0.31,-0.75,0.2
0.31,-0.75,0.19
0.28,-0.76,0.2
0.3,-0.78,0.26
0.29,-0.79,0.31
0.27,-0.79,0.34
0.31,-0.8,0.37
0.33,-0.79,0.37
0.3,-0.79,0.38
0.32,-0.81,0.39
0.39,-0.83,0.38
0.41,-0.83,0.39
0.4,-0.83,0.4
0.39,-0.84,0.39
0.41,-0.84,0.37
0.44,-0.84,0.36
0.42,-0.84,0.35
0.41,-0.85,0.36
0.44,-0.86,0.37
0.51,-0.86,0.41
0.55,-0.87,0.45
0.51,-0.88,0.49
0.44,-0.89,0.51
0.4,-0.9,0.52
0.4,-0.89,0.53
0.42,-0.88,0.53
0.44,-0.87,0.52
0.49,-0.87,0.5
0.54,-0.87,0.47
0.59,-0.88,0.47
0.62,-0.89,0.49
0.59,-0.89,0.52
0.57,-0.88,0.55
0.55,-0.87,0.56
0.55,-0.87,0.57
0.56,-0.86,0.57
0.57,-0.85,0.58
0.59,-0.85,0.59
0.62,-0.84,0.6
0.63,-0.83,0.6
0.64,-0.81,0.62
0.64,-0.81,0.62
0.64,-0.8,0.63
0.65,-0.8,0.64
0.66,-0.81,0.66
0.67,-0.82,0.69
0.69,-0.83,0.72
0.72,-0.84,0.75
0.75,-0.87,0.78
0.76,-0.87,0.8
0.76,-0.86,0.8
0.74,-0.82,0.8
0.69,-0.76,0.8
0.66,-0.69,0.77
0.65,-0.63,0.74
0.66,-0.57,0.72
0.69,-0.49,0.71
0.7,-0.46,0.68
0.69,-0.43,0.65
0.66,-0.4,0.62
0.63,-0.36,0.6
0.61,-0.33,0.6
0.59,-0.3,0.61
0.57,-0.29,0.63
0.55,-0.3,0.66
0.54,-0.31,0.69
0.54,-0.31,0.72
0.56,-0.33,0.75
0.57,-0.34,0.77
0.58,-0.35,0.79
0.6,-0.35,0.8
0.62,-0.36,0.79
0.62,-0.36,0.77
0.63,-0.37,0.75
0.62,-0.37,0.72
0.63,-0.37,0.7
0.64,-0.38,0.69
0.65,-0.39,0.69
0.65,-0.39,0.7
0.65,-0.39,0.7
0.65,-0.4,0.7
0.64,-0.4,0.7
0.61,-0.4,0.7
0.6,-0.4,0.7
0.58,-0.41,0.71
0.56,-0.42,0.7
0.56,-0.44,0.69
0.56,-0.46,0.68
0.56,-0.47,0.68
0.56,-0.49,0.67
0.57,-0.49,0.67
0.57,-0.5,0.66
0.57,-0.51,0.66
0.58,-0.51,0.66
0.59,-0.51,0.66
0.59,-0.5,0.66
0.58,-0.5,0.67
0.58,-0.49,0.67
0.58,-0.48,0.67
0.57,-0.48,0.67
0.57,-0.48,0.67
0.58,-0.48,0.67
0.59,-0.48,0.66
0.59,-0.48,0.66
0.59,-0.48,0.66
0.6,-0.48,0.66
0.6,-0.48,0.66
0.6,-0.48,0.66
0.6,-0.47,0.66
0.6,-0.46,0.67
0.6,-0.46,0.68
0.6,-0.45,0.68
0.6,-0.45,0.68
0.6,-0.44,0.68
0.6,-0.44,0.67
0.61,-0.44,0.67
0.61,-0.44,0.67
0.63,-0.43,0.66
0.64,-0.44,0.65
0.64,-0.44,0.63
0.65,-0.43,0.62
0.65,-0.43,0.62
0.65,-0.43,0.62
0.64,-0.44,0.62
0.63,-0.45,0.61
0.64,-0.45,0.62
0.67,-0.45,0.63
0.7,-0.46,0.65
0.72,-0.44,0.66
0.73,-0.43,0.67
0.73,-0.42,0.66
0.73,-0.41,0.66
0.74,-0.41,0.66
0.75,-0.42,0.68
0.78,-0.47,0.79
0.88,-0.49,0.86
0.89,-0.48,0.87
0.82,-0.44,0.8
0.73,-0.39,0.68
0.69,-0.37,0.58
0.7,-0.37,0.54
0.77,-0.4,0.55
0.85,-0.45,0.58
0.9,-0.49,0.61
0.9,-0.51,0.6
0.87,-0.54,0.57
0.84,-0.57,0.56
0.82,-0.59,0.55
0.8,-0.63,0.56
0.78,-0.69,0.58
0.76,-0.75,0.58
0.73,-0.8,0.57
0.7,-0.85,0.57
0.69,-0.9,0.54
0.68,-0.94,0.5
0.68,-1.02,0.44
0.7,-1.11,0.39
0.72,-1.15,0.35
0.73,-1.18,0.33
0.73,-1.22,0.32
0.73,-1.24,0.33
0.69,-1.28,0.34
0.66,-1.29,0.36
0.62,-1.29,0.38
0.58,-1.27,0.38
0.55,-1.24,0.36
0.53,-1.19,0.35
0.51,-1.16,0.33
0.5,-1.12,0.32
0.47,-1.07,0.31
0.46,-1.02,0.29
0.46,-0.96,0.28
0.45,-0.91,0.28
0.42,-0.86,0.28
0.4,-0.81,0.27
0.39,-0.77,0.26
0.37,-0.74,0.24
0.35,-0.71,0.23
0.35,-0.67,0.23
0.36,-0.66,0.25
0.36,-0.65,0.27
0.36,-0.62,0.32
0.35,-0.57,0.37
0.36,-0.55,0.39
0.42,-0.55,0.37
0.46,-0.54,0.33
0.43,-0.51,0.34
0.35,-0.5,0.3
0.35,-0.5,0.24
0.36,-0.48,0.19
0.37,-0.5,0.14
0.37,-0.54,0.09
0.36,-0.56,0.05
0.36,-0.57,0.02
0.38,-0.57,0.01
0.39,-0.58,0
0.39,-0.58,-0.01
0.38,-0.59,0
0.37,-0.61,0.01
0.36,-0.64,0.02
0.36,-0.66,0.04
0.37,-0.67,0.05
0.37,-0.68,0.07
0.37,-0.68,0.09
0.38,-0.69,0.09
0.4,-0.7,0.09
0.43,-0.74,0.08
0.46,-0.78,0.08
0.5,-0.82,0.06
0.53,-0.86,0.06
0.55,-0.9,0.08
0.57,-0.93,0.11
0.57,-0.94,0.15
0.6,-0.91,0.15
0.6,-0.9,0.14
0.6,-0.9,0.13
0.6,-0.89,0.11
0.61,-0.89,0.1
0.6,-0.89,0.1
0.6,-0.88,0.1
0.59,-0.88,0.1
0.57,-0.88,0.1
0.55,-0.88,0.1
0.53,-0.87,0.1
0.51,-0.86,0.11
0.5,-0.86,0.1
0.5,-0.86,0.09
0.49,-0.86,0.08
0.46,-0.87,0.08
0.46,-0.88,0.06
0.46,-0.89,0.07
0.45,-0.89,0.1
0.46,-0.89,0.1
0.48,-0.88,0.1
0.49,-0.89,0.1
0.49,-0.89,0.11
0.49,-0.89,0.11
0.49,-0.89,0.11
0.49,-0.89,0.11
0.5,-0.89,0.11
0.5,-0.89,0.11
0.51,-0.89,0.11
0.52,-0.88,0.12
0.51,-0.88,0.11
0.5,-0.88,0.11
0.49,-0.88,0.1
0.48,-0.89,0.09
0.48,-0.89,0.09
0.48,-0.89,0.09
0.48,-0.9,0.09
0.48,-0.9,0.09
0.48,-0.9,0.09
0.48,-0.89,0.09
0.49,-0.89,0.1
0.49,-0.89,0.1
0.49,-0.89,0.1
0.49,-0.89,0.1
0.48,-0.88,0.11
0.49,-0.89,0.1
0.49,-0.88,0.1
0.5,-0.88,0.1
0.51,-0.88,0.1
0.51,-0.89,0.1
0.51,-0.89,0.1
0.51,-0.89,0.1
0.52,-0.89,0.1
0.5,-0.89,0.1
0.51,-0.89,0.1
0.5,-0.89,0.09
0.5,-0.89,0.1
0.5,-0.89,0.1
0.5,-0.89,0.1
0.5,-0.89,0.1
0.5,-0.89,0.1
0.5,-0.89,0.1
0.5,-0.89,0.1
0.48,-0.88,0.1
0.48,-0.89,0.1
0.49,-0.89,0.1
0.49,-0.89,0.11
0.49,-0.89,0.1
0.49,-0.89,0.1
0.48,-0.9,0.1
0.49,-0.9,0.1
0.49,-0.89,0.1
0.49,-0.89,0.11
0.49,-0.88,0.12
0.49,-0.88,0.12
0.5,-0.88,0.12
0.49,-0.87,0.12
0.48,-0.87,0.11
0.48,-0.9,0.11
0.48,-0.89,0.12
0.47,-0.88,0.12
0.46,-0.87,0.12
0.46,-0.87,0.12
0.46,-0.87,0.12
0.44,-0.87,0.13
0.44,-0.86,0.13
0.47,-0.86,0.13
0.48,-0.87,0.13
0.49,-0.86,0.13
0.49,-0.86,0.13
0.49,-0.85,0.14
0.48,-0.86,0.15
0.47,-0.87,0.15
0.48,-0.86,0.15
0.48,-0.86,0.16
0.47,-0.87,0.16
0.47,-0.87,0.16
0.47,-0.87,0.16
0.48,-0.86,0.16
0.47,-0.86,0.15
0.46,-0.86,0.15
0.47,-0.85,0.14
0.45,-0.84,0.14
0.43,-0.84,0.15
0.44,-0.83,0.15
0.45,-0.82,0.16
0.45,-0.84,0.17
0.45,-0.84,0.18
0.43,-0.83,0.19
0.41,-0.84,0.19
0.42,-0.84,0.19
0.44,-0.84,0.19
0.43,-0.83,0.19
0.42,-0.82,0.2
0.41,-0.81,0.19
0.42,-0.8,0.18
0.42,-0.8,0.17
0.42,-0.8,0.17
0.4,-0.79,0.17
0.39,-0.79,0.18
0.4,-0.77,0.19
0.39,-0.76,0.19
0.38,-0.75,0.18
0.38,-0.75,0.17
0.37,-0.74,0.17
0.36,-0.73,0.18
0.35,-0.73,0.19
0.35,-0.73,0.2
0.35,-0.73,0.2
0.35,-0.73,0.21
0.34,-0.73,0.21
0.34,-0.73,0.21
0.33,-0.73,0.22
0.33,-0.73,0.23
0.33,-0.74,0.24
0.33,-0.74,0.25
0.33,-0.74,0.27
0.32,-0.75,0.28
0.33,-0.77,0.26
0.36,-0.78,0.25
0.38,-0.81,0.25
0.38,-0.82,0.25
0.36,-0.84,0.26
0.35,-0.85,0.28
0.36,-0.86,0.28
0.37,-0.87,0.29
0.39,-0.86,0.3
0.41,-0.88,0.32
0.42,-0.9,0.32
0.42,-0.91,0.32
0.4,-0.93,0.32
0.41,-0.94,0.31
0.42,-0.94,0.3
0.45,-0.95,0.29
0.48,-0.97,0.29
0.49,-0.97,0.31
0.47,-0.96,0.38
0.5,-0.94,0.4
0.53,-0.94,0.41
0.52,-0.95,0.41
0.51,-0.96,0.41
0.54,-0.97,0.4
0.54,-0.97,0.4
0.52,-0.98,0.42
0.53,-0.97,0.43
0.56,-0.96,0.44
0.56,-0.95,0.44
0.54,-0.94,0.43
0.52,-0.93,0.43
0.52,-0.92,0.41
0.53,-0.92,0.4
0.54,-0.92,0.4
0.54,-0.93,0.43
0.55,-0.93,0.45
0.57,-0.93,0.48
0.57,-0.92,0.49
0.57,-0.91,0.48
0.58,-0.9,0.48
0.58,-0.89,0.47
0.59,-0.88,0.46
0.61,-0.88,0.46
0.62,-0.87,0.48
0.63,-0.87,0.49
0.64,-0.84,0.49
0.64,-0.84,0.5
0.65,-0.84,0.53
0.64,-0.83,0.55
0.64,-0.83,0.55
0.65,-0.82,0.55
0.66,-0.82,0.57
0.62,-0.79,0.61
0.58,-0.76,0.64
0.59,-0.72,0.66
0.61,-0.69,0.65
0.64,-0.66,0.64
0.67,-0.62,0.65
0.68,-0.59,0.64
0.7,-0.55,0.62
0.72,-0.51,0.61
0.74,-0.48,0.6
0.77,-0.45,0.58
0.77,-0.42,0.56
0.76,-0.39,0.54
0.78,-0.37,0.52
0.77,-0.34,0.52
0.77,-0.32,0.54
0.75,-0.32,0.56
0.73,-0.32,0.59
0.7,-0.32,0.61
0.69,-0.31,0.64
0.68,-0.32,0.65
0.69,-0.33,0.67
0.7,-0.33,0.69
0.69,-0.34,0.7
0.69,-0.35,0.7
0.69,-0.36,0.69
0.68,-0.36,0.69
0.68,-0.36,0.68
0.68,-0.36,0.67
0.67,-0.36,0.66
0.67,-0.37,0.65
0.67,-0.37,0.65
0.67,-0.36,0.65
0.67,-0.36,0.66
0.67,-0.36,0.67
0.67,-0.36,0.68
0.66,-0.36,0.7
0.65,-0.37,0.71
0.64,-0.37,0.71
0.63,-0.37,0.71
0.62,-0.38,0.71
0.61,-0.39,0.7
0.62,-0.39,0.68
0.63,-0.4,0.66
0.64,-0.4,0.65
0.65,-0.41,0.66
0.66,-0.41,0.67
0.65,-0.42,0.68
0.64,-0.42,0.69
0.64,-0.42,0.69
0.64,-0.42,0.69
0.64,-0.43,0.68
0.64,-0.43,0.66
0.65,-0.43,0.65
0.65,-0.43,0.63
0.66,-0.43,0.63
0.67,-0.42,0.62
0.67,-0.42,0.63
0.67,-0.43,0.63
0.67,-0.42,0.64
0.67,-0.42,0.65
0.66,-0.41,0.66
0.66,-0.41,0.66
0.65,-0.41,0.66
0.65,-0.41,0.65
0.65,-0.41,0.65
0.65,-0.41,0.64
0.66,-0.42,0.63
0.66,-0.43,0.63
0.66,-0.43,0.64
0.65,-0.44,0.65
0.65,-0.44,0.66
0.64,-0.44,0.66
0.64,-0.44,0.67
0.63,-0.45,0.67
0.63,-0.45,0.66
0.63,-0.45,0.66
0.64,-0.45,0.66
0.64,-0.44,0.66
0.64,-0.45,0.65
0.65,-0.45,0.65
0.65,-0.44,0.65
0.65,-0.45,0.65
0.65,-0.45,0.65
0.65,-0.45,0.65
0.65,-0.45,0.65
0.64,-0.44,0.65
0.64,-0.44,0.66
0.64,-0.44,0.66
0.64,-0.45,0.66
0.64,-0.45,0.66
0.64,-0.44,0.65
0.64,-0.45,0.65
0.64,-0.45,0.65
0.64,-0.45,0.65
0.64,-0.45,0.65
0.63,-0.45,0.66
0.63,-0.45,0.66
0.64,-0.44,0.66
0.64,-0.44,0.66
0.64,-0.44,0.65
0.65,-0.44,0.65
0.65,-0.44,0.65
0.64,-0.44,0.66
0.64,-0.44,0.66
0.64,-0.44,0.66
0.65,-0.44,0.66
0.65,-0.44,0.65
0.64,-0.44,0.65
0.65,-0.44,0.65
0.65,-0.44,0.65
0.65,-0.44,0.65
0.65,-0.44,0.65
0.65,-0.44,0.65
0.65,-0.44,0.65
0.65,-0.44,0.65
0.65,-0.44,0.64
0.66,-0.44,0.65
0.66,-0.44,0.65
0.66,-0.44,0.65
0.65,-0.44,0.65
0.66,-0.44,0.65
0.65,-0.44,0.65
0.65,-0.44,0.64
0.65,-0.44,0.64
0.65,-0.44,0.64
0.65,-0.44,0.64
0.65,-0.44,0.64
0.65,-0.45,0.64
0.66,-0.45,0.64
0.66,-0.45,0.64
0.65,-0.45,0.64
0.65,-0.45,0.64
0.65,-0.45,0.64
0.65,-0.45,0.64
0.65,-0.45,0.64
0.66,-0.45,0.64
0.66,-0.45,0.64
0.65,-0.45,0.64
0.65,-0.45,0.64
0.65,-0.45,0.64
0.65,-0.44,0.64
0.65,-0.44,0.65
0.65,-0.44,0.65
0.66,-0.44,0.65
0.66,-0.44,0.65
0.66,-0.44,0.65
0.66,-0.44,0.65
0.66,-0.43,0.65
0.66,-0.43,0.65
0.66,-0.43,0.64
0.66,-0.43,0.64
0.66,-0.43,0.64
0.66,-0.44,0.64
0.66,-0.44,0.64
0.66,-0.44,0.64
0.66,-0.44,0.64
0.66,-0.45,0.64
0.66,-0.45,0.63
0.66,-0.45,0.63
0.67,-0.45,0.64
0.67,-0.45,0.64
0.66,-0.45,0.63
0.66,-0.44,0.63
0.66,-0.44,0.64
0.66,-0.44,0.63
0.66,-0.44,0.64
0.66,-0.44,0.64
0.66,-0.43,0.64
0.66,-0.44,0.64
0.66,-0.43,0.64
0.67,-0.43,0.64
0.67,-0.44,0.63
0.67,-0.44,0.63
0.66,-0.44,0.63
0.66,-0.44,0.63
0.67,-0.43,0.63
0.67,-0.43,0.63
0.67,-0.43,0.63
0.68,-0.43,0.63
0.69,-0.44,0.62
0.68,-0.44,0.62
0.68,-0.44,0.62
0.68,-0.44,0.63
0.67,-0.44,0.63
0.67,-0.43,0.63
0.67,-0.42,0.62
0.67,-0.43,0.62
0.67,-0.42,0.62
0.67,-0.42,0.62
0.67,-0.42,0.62
0.68,-0.42,0.63
0.68,-0.42,0.63
0.69,-0.42,0.63
0.69,-0.42,0.63
0.69,-0.42,0.62
0.68,-0.42,0.62
0.69,-0.41,0.62
0.69,-0.41,0.61
0.7,-0.4,0.61
0.7,-0.39,0.61
0.7,-0.39,0.61
0.71,-0.39,0.61
0.73,-0.39,0.61
0.72,-0.38,0.61
0.72,-0.38,0.61
0.71,-0.37,0.6
0.7,-0.36,0.6
0.69,-0.36,0.6
0.69,-0.37,0.59
0.69,-0.38,0.6
0.71,-0.39,0.61
0.73,-0.4,0.64
0.75,-0.41,0.66
0.77,-0.43,0.68
0.79,-0.45,0.71
0.82,-0.46,0.73
0.84,-0.48,0.75
0.87,-0.5,0.8
0.88,-0.5,0.81
0.85,-0.49,0.77
0.77,-0.45,0.68
0.69,-0.42,0.56
0.69,-0.42,0.49
0.76,-0.45,0.49
0.86,-0.49,0.55
0.95,-0.5,0.62
0.97,-0.5,0.62
0.91,-0.49,0.52
0.86,-0.55,0.49
0.87,-0.6,0.47
0.86,-0.66,0.46
0.84,-0.72,0.47
0.82,-0.78,0.48
0.8,-0.86,0.49
0.77,-0.93,0.49
0.75,-0.99,0.47
0.73,-1.04,0.42
0.73,-1.16,0.32
0.72,-1.24,0.26
0.69,-1.25,0.26
0.69,-1.29,0.26
0.68,-1.33,0.26
0.68,-1.35,0.26
0.66,-1.39,0.26
0.63,-1.36,0.27
0.6,-1.31,0.26
0.58,-1.29,0.25
0.55,-1.26,0.25
0.54,-1.21,0.24
0.53,-1.18,0.25
0.51,-1.15,0.26
0.49,-1.11,0.25
0.48,-1.06,0.23
0.46,-1.02,0.24
0.43,-0.92,0.24
0.43,-0.87,0.23
0.42,-0.82,0.23
0.41,-0.77,0.24
0.4,-0.71,0.28
0.39,-0.66,0.35
0.4,-0.66,0.41
0.45,-0.62,0.46
0.48,-0.56,0.47
0.49,-0.51,0.46
0.45,-0.48,0.48
0.38,-0.45,0.5
0.38,-0.43,0.45
0.41,-0.41,0.37
0.4,-0.39,0.28
0.4,-0.4,0.18
0.4,-0.4,0.09
0.38,-0.38,0.03
0.35,-0.38,0.01
0.35,-0.4,0
0.37,-0.4,-0.01
0.37,-0.41,-0.02
0.37,-0.43,-0.03
0.35,-0.44,-0.03
0.33,-0.46,-0.03
0.33,-0.48,-0.02
0.33,-0.52,-0.02
0.34,-0.54,-0.01
0.34,-0.57,-0.02
0.35,-0.63,-0.02
0.39,-0.69,-0.01
0.42,-0.74,0
0.43,-0.8,0.03
0.43,-0.86,0.08
0.44,-0.93,0.13
0.46,-0.97,0.18
0.48,-1,0.21
0.52,-1.02,0.22
0.56,-1.02,0.24
0.57,-1.01,0.25
0.59,-1,0.23
0.61,-0.97,0.22
0.62,-0.94,0.19
0.63,-0.93,0.15
0.62,-0.93,0.12
0.61,-0.95,0.12
0.6,-0.95,0.15
0.59,-0.93,0.17
0.59,-0.91,0.16
0.56,-0.91,0.15
0.54,-0.92,0.13
0.53,-0.91,0.12
0.52,-0.9,0.1
0.47,-0.89,0.12
0.48,-0.89,0.1
0.47,-0.88,0.09
0.46,-0.88,0.12
0.46,-0.88,0.12
0.46,-0.87,0.13
0.46,-0.87,0.14
0.46,-0.87,0.14
0.49,-0.86,0.15
0.51,-0.86,0.16
0.53,-0.86,0.16
0.55,-0.86,0.15
0.56,-0.86,0.15
0.56,-0.85,0.15
0.55,-0.85,0.15
0.53,-0.85,0.15
0.54,-0.84,0.15
0.54,-0.85,0.15
0.53,-0.85,0.16
0.53,-0.87,0.16
0.54,-0.88,0.17
0.54,-0.87,0.17
0.53,-0.87,0.17
0.55,-0.87,0.16
0.54,-0.87,0.16
0.51,-0.86,0.16
0.48,-0.86,0.14
0.48,-0.86,0.14
0.49,-0.87,0.14
0.5,-0.87,0.14
0.5,-0.88,0.14
0.49,-0.88,0.15
0.48,-0.88,0.16
0.48,-0.88,0.16
0.48,-0.88,0.16
0.48,-0.88,0.15
0.48,-0.88,0.15
0.48,-0.89,0.15
0.48,-0.89,0.15
0.48,-0.89,0.15
0.49,-0.89,0.15
0.49,-0.89,0.15
0.48,-0.89,0.15
0.48,-0.89,0.15
0.48,-0.89,0.14
0.49,-0.89,0.14
0.49,-0.88,0.15
0.49,-0.88,0.15
0.49,-0.89,0.15
0.49,-0.89,0.15
0.5,-0.89,0.15
0.5,-0.89,0.14
0.49,-0.89,0.15
0.49,-0.89,0.15
0.49,-0.89,0.15
0.49,-0.89,0.15
0.48,-0.89,0.15
0.48,-0.89,0.15
0.48,-0.89,0.16
0.48,-0.89,0.15
0.48,-0.89,0.14
0.48,-0.89,0.13
0.48,-0.88,0.13
0.49,-0.89,0.13
0.49,-0.89,0.14
0.49,-0.89,0.15
0.49,-0.89,0.15
0.49,-0.89,0.15
0.49,-0.88,0.15
0.48,-0.88,0.15
0.48,-0.89,0.15
0.49,-0.89,0.14
0.49,-0.89,0.14
0.49,-0.89,0.15
0.49,-0.88,0.15
0.48,-0.88,0.14
0.49,-0.88,0.14
0.48,-0.87,0.14
0.47,-0.88,0.15
0.49,-0.87,0.15
0.48,-0.87,0.15
0.48,-0.86,0.16
0.49,-0.86,0.16
0.48,-0.86,0.16
0.45,-0.86,0.16
0.43,-0.86,0.16
0.45,-0.86,0.16
0.45,-0.86,0.15
0.44,-0.85,0.15
0.44,-0.85,0.14
0.45,-0.85,0.13
0.44,-0.83,0.13
0.44,-0.81,0.13
0.43,-0.8,0.14
0.41,-0.79,0.15
0.39,-0.8,0.17
0.39,-0.82,0.16
0.41,-0.83,0.15
0.42,-0.86,0.14
0.43,-0.88,0.14
0.46,-0.88,0.15
0.46,-0.88,0.17
0.45,-0.88,0.19
0.45,-0.86,0.22
0.4,-0.81,0.23
0.38,-0.79,0.23
0.39,-0.76,0.22
0.41,-0.75,0.19
0.41,-0.75,0.17
0.4,-0.75,0.15
0.41,-0.74,0.16
0.39,-0.73,0.17
0.37,-0.72,0.19
0.36,-0.71,0.2
0.34,-0.71,0.19
0.33,-0.71,0.19
0.34,-0.71,0.18
0.35,-0.71,0.18
0.37,-0.71,0.18
0.42,-0.71,0.18
0.41,-0.71,0.19
0.35,-0.73,0.21
0.35,-0.75,0.22
0.34,-0.76,0.24
0.33,-0.77,0.25
0.35,-0.77,0.25
0.34,-0.77,0.25
0.32,-0.78,0.24
0.31,-0.81,0.25
0.33,-0.84,0.26
0.34,-0.86,0.25
0.36,-0.87,0.25
0.37,-0.87,0.26
0.37,-0.86,0.29
0.37,-0.86,0.31
0.38,-0.86,0.32
0.41,-0.86,0.31
0.42,-0.86,0.32
0.39,-0.88,0.33
0.41,-0.9,0.33
0.44,-0.91,0.34
0.49,-0.92,0.35
0.52,-0.92,0.34
0.51,-0.93,0.35
0.5,-0.93,0.36
0.52,-0.92,0.36
0.52,-0.92,0.36
0.5,-0.93,0.38
0.51,-0.93,0.39
0.53,-0.93,0.38
0.53,-0.92,0.35
0.49,-0.91,0.33
0.48,-0.89,0.32
0.5,-0.89,0.31
0.51,-0.9,0.33
0.53,-0.92,0.36
0.55,-0.94,0.4
0.56,-0.94,0.43
0.52,-0.94,0.45
0.52,-0.92,0.45
0.53,-0.9,0.44
0.55,-0.89,0.44
0.58,-0.89,0.44
0.61,-0.89,0.46
0.65,-0.89,0.47
0.67,-0.87,0.49
0.68,-0.86,0.53
0.69,-0.86,0.56
0.69,-0.86,0.58
0.69,-0.86,0.6
0.69,-0.84,0.6
0.68,-0.81,0.59
0.7,-0.79,0.55
0.73,-0.76,0.52
0.76,-0.76,0.51
0.82,-0.77,0.53
0.87,-0.77,0.57
0.88,-0.76,0.6
0.86,-0.74,0.61
0.81,-0.69,0.63
0.75,-0.63,0.65
0.7,-0.57,0.65
0.66,-0.52,0.65
0.66,-0.45,0.64
0.69,-0.4,0.63
0.72,-0.36,0.62
0.75,-0.33,0.62
0.77,-0.31,0.62
0.78,-0.29,0.61
0.75,-0.26,0.61
0.72,-0.25,0.62
0.72,-0.26,0.63
0.7,-0.26,0.65
0.7,-0.27,0.68
0.69,-0.29,0.71
0.68,-0.3,0.73
0.67,-0.31,0.74
0.66,-0.32,0.74
0.66,-0.33,0.73
0.65,-0.34,0.72
0.65,-0.36,0.71
0.65,-0.36,0.7
0.64,-0.37,0.68
0.63,-0.37,0.66
0.65,-0.38,0.66
0.66,-0.39,0.66
0.68,-0.39,0.66
0.69,-0.39,0.66
0.7,-0.39,0.65
0.69,-0.38,0.65
0.68,-0.38,0.65
0.67,-0.38,0.65
0.66,-0.37,0.65
0.66,-0.37,0.65
0.65,-0.37,0.66
0.64,-0.37,0.66
0.65,-0.37,0.67
0.65,-0.36,0.68
0.64,-0.36,0.69
0.65,-0.36,0.69
0.65,-0.37,0.68
0.65,-0.38,0.66
0.67,-0.38,0.65
0.68,-0.39,0.65
0.68,-0.39,0.64
0.68,-0.39,0.64
0.68,-0.39,0.64
0.69,-0.39,0.64
0.7,-0.39,0.64
0.7,-0.4,0.64
0.7,-0.4,0.64
0.7,-0.4,0.64
0.69,-0.41,0.64
0.7,-0.41,0.63
0.7,-0.42,0.62
0.68,-0.42,0.61
0.69,-0.42,0.61
0.7,-0.43,0.61
0.7,-0.44,0.61
0.7,-0.44,0.61
0.7,-0.44,0.61
0.7,-0.44,0.62
0.7,-0.43,0.62
0.7,-0.43,0.63
0.7,-0.43,0.63
0.69,-0.42,0.63
0.69,-0.42,0.63
0.69,-0.41,0.63
0.69,-0.41,0.64
0.68,-0.4,0.64
0.68,-0.39,0.64
0.68,-0.39,0.64
0.68,-0.39,0.64
0.68,-0.38,0.65
0.68,-0.39,0.65
0.68,-0.39,0.65
0.68,-0.39,0.65
0.68,-0.39,0.65
0.68,-0.4,0.65
0.68,-0.4,0.65
0.68,-0.4,0.65
0.68,-0.41,0.64
0.68,-0.41,0.63
0.69,-0.42,0.63
0.69,-0.42,0.63
0.69,-0.42,0.63
0.69,-0.42,0.63
0.68,-0.42,0.62
0.69,-0.42,0.62
0.69,-0.42,0.62
0.68,-0.42,0.62
0.68,-0.42,0.62
0.69,-0.42,0.63
0.69,-0.42,0.63
0.69,-0.41,0.64
0.68,-0.41,0.64
0.68,-0.41,0.64
0.68,-0.4,0.64
0.68,-0.4,0.64
0.69,-0.4,0.63
0.69,-0.4,0.63
0.69,-0.4,0.63
0.7,-0.4,0.62
0.7,-0.4,0.62
0.7,-0.4,0.63
0.7,-0.4,0.63
0.69,-0.4,0.63
0.69,-0.4,0.64
0.69,-0.4,0.63
0.69,-0.41,0.63
0.69,-0.41,0.63
0.69,-0.41,0.63
0.7,-0.41,0.62
0.69,-0.42,0.62
0.69,-0.42,0.62
0.69,-0.41,0.62
0.69,-0.41,0.62
0.69,-0.41,0.62
0.69,-0.41,0.63
0.69,-0.41,0.63
0.69,-0.41,0.63
0.69,-0.41,0.63
0.69,-0.41,0.63
0.69,-0.41,0.63
0.69,-0.41,0.63
0.69,-0.41,0.63
0.69,-0.41,0.62
0.7,-0.42,0.62
0.7,-0.42,0.62
0.7,-0.42,0.62
0.7,-0.42,0.62
0.69,-0.42,0.62
0.69,-0.41,0.62
0.69,-0.41,0.62
0.7,-0.4,0.62
0.7,-0.4,0.62
0.71,-0.4,0.62
0.71,-0.4,0.62
0.71,-0.4,0.62
0.71,-0.4,0.62
0.7,-0.4,0.62
0.69,-0.39,0.62
0.69,-0.39,0.62
0.68,-0.39,0.62
0.68,-0.38,0.62
0.69,-0.38,0.61
0.69,-0.38,0.61
0.7,-0.38,0.61
0.71,-0.38,0.61
0.72,-0.37,0.61
0.71,-0.37,0.62
0.71,-0.38,0.62
0.71,-0.37,0.63
0.72,-0.37,0.62
0.72,-0.37,0.62
0.71,-0.36,0.62
0.7,-0.36,0.61
0.7,-0.36,0.62
0.7,-0.36,0.62
0.71,-0.35,0.59
0.72,-0.37,0.58
0.74,-0.38,0.59
0.75,-0.39,0.6
0.75,-0.39,0.61
0.74,-0.39,0.61
0.73,-0.39,0.61
0.72,-0.38,0.61
0.72,-0.39,0.61
0.72,-0.4,0.6
0.72,-0.41,0.61
0.73,-0.44,0.62
0.74,-0.45,0.64
0.75,-0.46,0.66
0.77,-0.47,0.7
0.82,-0.49,0.76
0.89,-0.51,0.84
0.95,-0.51,0.92
0.94,-0.47,0.91
0.81,-0.4,0.76
0.65,-0.33,0.55
0.6,-0.33,0.42
0.71,-0.38,0.46
0.89,-0.43,0.56
1.04,-0.44,0.62
1.09,-0.44,0.61
1.07,-0.45,0.47
0.94,-0.52,0.44
0.88,-0.58,0.46
0.85,-0.65,0.48
0.82,-0.72,0.5
0.79,-0.78,0.51
0.75,-0.83,0.51
0.72,-0.88,0.51
0.68,-0.93,0.48
0.66,-0.99,0.45
0.65,-1.08,0.41
0.68,-1.13,0.32
0.69,-1.15,0.27
0.68,-1.2,0.25
0.69,-1.25,0.24
0.72,-1.27,0.24
0.71,-1.3,0.25
0.68,-1.35,0.25
0.63,-1.38,0.26
0.57,-1.37,0.25
0.54,-1.31,0.23
0.51,-1.23,0.22
0.46,-1.16,0.2
0.41,-1.1,0.19
0.37,-1.06,0.2
0.35,-1.02,0.21
0.34,-0.99,0.23
0.34,-0.92,0.23
0.34,-0.89,0.23
0.35,-0.87,0.23
0.36,-0.84,0.23
0.35,-0.8,0.23
0.34,-0.76,0.24
0.34,-0.73,0.25
0.34,-0.7,0.28
0.32,-0.66,0.34
0.33,-0.63,0.4
0.34,-0.61,0.44
0.36,-0.58,0.47
0.4,-0.56,0.45
0.41,-0.57,0.39
0.37,-0.53,0.37
0.31,-0.48,0.38
0.36,-0.49,0.35
0.39,-0.49,0.29
0.37,-0.49,0.21
0.35,-0.52,0.11
0.37,-0.51,0.04
0.37,-0.5,0.01
0.35,-0.52,-0.01
0.37,-0.54,-0.02
0.37,-0.54,-0.01
0.36,-0.55,0.01
0.36,-0.58,0
0.36,-0.6,0
0.35,-0.63,0
0.34,-0.66,0.03
0.35,-0.7,0.05
0.36,-0.74,0.08
0.36,-0.79,0.1
0.38,-0.84,0.12
0.41,-0.88,0.13
0.44,-0.92,0.13
0.48,-0.94,0.12
0.52,-0.94,0.13
0.55,-0.94,0.14
0.57,-0.93,0.16
0.59,-0.92,0.18
0.61,-0.91,0.19
0.6,-0.9,0.19
0.58,-0.89,0.19
0.56,-0.88,0.19
0.53,-0.87,0.18
0.51,-0.88,0.17
0.49,-0.88,0.16
0.48,-0.88,0.14
0.47,-0.87,0.13
0.47,-0.88,0.13
0.47,-0.88,0.11
0.47,-0.87,0.11
0.47,-0.87,0.11
0.47,-0.87,0.12
0.48,-0.86,0.12
0.48,-0.86,0.13
0.49,-0.87,0.13
0.5,-0.87,0.13
0.51,-0.87,0.14
0.51,-0.87,0.14
0.52,-0.87,0.14
0.52,-0.87,0.14
0.53,-0.88,0.15
0.54,-0.88,0.16
0.54,-0.88,0.16
0.53,-0.88,0.15
0.53,-0.88,0.14
0.52,-0.88,0.14
0.52,-0.88,0.14
0.51,-0.87,0.14
0.51,-0.87,0.13
0.51,-0.87,0.13
0.51,-0.87,0.13
0.52,-0.87,0.14
0.52,-0.87,0.14
0.51,-0.87,0.14
0.51,-0.87,0.13
0.51,-0.87,0.13
0.51,-0.88,0.13
0.51,-0.88,0.13
0.51,-0.88,0.14
0.51,-0.88,0.14
0.52,-0.87,0.15
0.52,-0.87,0.14
0.51,-0.87,0.14
0.51,-0.87,0.14
0.51,-0.87,0.14
0.5,-0.87,0.14
0.5,-0.87,0.14
0.5,-0.87,0.14
0.5,-0.88,0.14
0.5,-0.88,0.14
0.51,-0.88,0.14
0.51,-0.88,0.14
0.51,-0.88,0.14
0.51,-0.88,0.14
0.51,-0.88,0.14
0.51,-0.88,0.14
0.51,-0.88,0.14
0.5,-0.87,0.15
0.5,-0.87,0.14
0.5,-0.88,0.14
0.5,-0.88,0.14
0.51,-0.88,0.14
0.51,-0.87,0.14
0.5,-0.87,0.13
0.5,-0.87,0.13
0.5,-0.87,0.13
0.49,-0.88,0.12
0.49,-0.88,0.13
0.5,-0.88,0.14
0.5,-0.88,0.15
0.5,-0.89,0.15
0.5,-0.88,0.15
0.5,-0.88,0.15
0.5,-0.89,0.15
0.5,-0.89,0.15
0.5,-0.89,0.15
0.5,-0.89,0.14
0.5,-0.88,0.14
0.5,-0.88,0.14
0.5,-0.88,0.14
0.5,-0.87,0.14
0.5,-0.87,0.14
0.5,-0.87,0.14
0.5,-0.88,0.14
0.51,-0.87,0.14
0.51,-0.87,0.15
0.51,-0.87,0.14
0.51,-0.87,0.15
0.51,-0.87,0.14
0.51,-0.87,0.14
0.51,-0.88,0.15
0.5,-0.88,0.14
0.5,-0.88,0.14
0.5,-0.88,0.15
0.5,-0.87,0.15
0.49,-0.87,0.14
0.49,-0.88,0.14
0.49,-0.88,0.14
0.49,-0.88,0.14
0.5,-0.87,0.14
0.49,-0.87,0.13
0.49,-0.87,0.13
0.49,-0.86,0.14
0.49,-0.86,0.14
0.48,-0.86,0.14
0.48,-0.86,0.13
0.48,-0.86,0.12
0.49,-0.86,0.13
0.49,-0.86,0.12
0.48,-0.86,0.12
0.48,-0.85,0.12
0.47,-0.85,0.12
0.47,-0.85,0.12
0.47,-0.85,0.12
0.46,-0.84,0.12
0.46,-0.83,0.13
0.45,-0.83,0.13
0.45,-0.82,0.13
0.45,-0.82,0.14
0.44,-0.81,0.13
0.44,-0.8,0.14
0.43,-0.8,0.15
0.43,-0.8,0.16
0.42,-0.79,0.16
0.42,-0.78,0.16
0.42,-0.78,0.15
0.42,-0.78,0.15
0.41,-0.77,0.16
0.39,-0.77,0.17
0.39,-0.77,0.17
0.39,-0.76,0.17
0.39,-0.76,0.16
0.4,-0.74,0.16
0.38,-0.72,0.15
0.35,-0.71,0.15
0.35,-0.7,0.14
0.36,-0.7,0.13
0.37,-0.69,0.14
0.37,-0.68,0.14
0.37,-0.68,0.16
0.37,-0.67,0.16
0.35,-0.68,0.15
0.34,-0.68,0.15
0.32,-0.68,0.17
0.31,-0.67,0.17
0.36,-0.68,0.16
0.36,-0.68,0.17
0.33,-0.68,0.2
0.32,-0.68,0.23
0.31,-0.7,0.24
0.34,-0.74,0.25
0.37,-0.76,0.27
0.37,-0.77,0.3
0.37,-0.78,0.31
0.37,-0.79,0.33
0.36,-0.8,0.35
0.37,-0.81,0.38
0.4,-0.83,0.41
0.42,-0.85,0.45
0.46,-0.9,0.45
0.52,-0.93,0.43
0.56,-0.97,0.44
0.56,-0.99,0.46
0.55,-1.01,0.49
0.57,-1.01,0.52
0.59,-1.01,0.53
0.53,-0.94,0.49
0.52,-0.95,0.46
0.53,-0.95,0.42
0.55,-0.95,0.4
0.55,-0.96,0.4
0.56,-0.97,0.42
0.58,-0.97,0.42
0.63,-0.97,0.42
0.67,-0.98,0.44
0.7,-0.99,0.48
0.73,-0.99,0.51
0.74,-0.99,0.54
0.71,-0.98,0.55
0.67,-0.95,0.55
0.64,-0.92,0.53
0.64,-0.89,0.49
0.66,-0.87,0.48
0.7,-0.85,0.5
0.75,-0.84,0.53
0.78,-0.84,0.58
0.8,-0.84,0.62
0.81,-0.83,0.64
0.8,-0.81,0.64
0.82,-0.8,0.6
0.85,-0.79,0.55
0.89,-0.79,0.52
0.91,-0.76,0.51
0.81,-0.63,0.51
0.79,-0.57,0.52
0.77,-0.51,0.54
0.79,-0.45,0.56
0.81,-0.39,0.57
0.82,-0.35,0.6
0.81,-0.33,0.62
0.75,-0.27,0.62
0.69,-0.22,0.65
0.67,-0.21,0.66
0.64,-0.19,0.68
0.61,-0.18,0.7
0.61,-0.19,0.72
0.6,-0.21,0.75
0.59,-0.23,0.77
0.59,-0.24,0.79
0.59,-0.26,0.8
0.6,-0.28,0.82
0.61,-0.3,0.82
0.63,-0.32,0.82
0.64,-0.34,0.81
0.65,-0.36,0.8
0.66,-0.37,0.78
0.67,-0.37,0.76
0.67,-0.39,0.73
0.67,-0.39,0.68
0.65,-0.4,0.66
0.64,-0.4,0.65
0.63,-0.4,0.64
0.63,-0.4,0.64
0.62,-0.4,0.63
0.61,-0.4,0.63
0.62,-0.4,0.64
0.63,-0.4,0.65
0.64,-0.4,0.67
0.64,-0.41,0.67
0.64,-0.42,0.66
0.64,-0.42,0.66
0.64,-0.43,0.65
0.64,-0.44,0.64
0.65,-0.44,0.62
0.66,-0.44,0.6
0.67,-0.44,0.6
0.68,-0.45,0.6
0.69,-0.46,0.61
0.69,-0.44,0.62
0.69,-0.43,0.63
0.68,-0.43,0.64
0.68,-0.43,0.65
0.68,-0.43,0.65
0.68,-0.43,0.64
0.68,-0.43,0.65
0.67,-0.44,0.64
0.66,-0.45,0.64
0.65,-0.44,0.63
0.66,-0.45,0.62
0.65,-0.46,0.62
0.65,-0.44,0.63
0.67,-0.45,0.62
0.66,-0.45,0.63
0.66,-0.45,0.64
0.66,-0.45,0.64
0.65,-0.44,0.64
0.65,-0.44,0.64
0.65,-0.43,0.65
0.66,-0.43,0.65
0.66,-0.42,0.65
0.66,-0.43,0.65
0.66,-0.42,0.65
0.66,-0.41,0.66
0.67,-0.41,0.65
0.67,-0.41,0.66
0.67,-0.41,0.65
0.67,-0.4,0.65
0.67,-0.4,0.65
0.67,-0.4,0.65
0.67,-0.4,0.65
0.67,-0.41,0.64
0.67,-0.42,0.64
0.67,-0.42,0.63
0.66,-0.43,0.63
0.66,-0.43,0.63
0.67,-0.43,0.63
0.67,-0.43,0.63
0.67,-0.43,0.63
0.68,-0.43,0.64
0.68,-0.43,0.64
0.68,-0.42,0.64
0.67,-0.42,0.64
0.67,-0.42,0.64
0.68,-0.42,0.64
0.68,-0.42,0.63
0.67,-0.42,0.63
0.67,-0.42,0.63
0.67,-0.42,0.63
0.68,-0.43,0.64
0.68,-0.43,0.64
0.68,-0.43,0.64
0.68,-0.43,0.63
0.67,-0.43,0.63
0.67,-0.43,0.63
0.67,-0.43,0.63
0.67,-0.43,0.63
0.67,-0.43,0.63
0.67,-0.43,0.63
0.67,-0.43,0.63
0.68,-0.43,0.62
0.68,-0.43,0.62
0.68,-0.43,0.63
0.68,-0.43,0.63
0.68,-0.43,0.64
0.68,-0.43,0.64
0.68,-0.43,0.64
0.68,-0.43,0.63
0.68,-0.43,0.63
0.68,-0.43,0.63
0.68,-0.42,0.63
0.68,-0.42,0.63
0.68,-0.42,0.63
0.68,-0.42,0.63
0.68,-0.42,0.62
0.68,-0.42,0.62
0.68,-0.42,0.62
0.68,-0.42,0.62
0.69,-0.42,0.63
0.69,-0.42,0.63
0.69,-0.42,0.63
0.68,-0.42,0.63
0.69,-0.43,0.63
0.69,-0.43,0.62
0.69,-0.43,0.62
0.69,-0.43,0.62
0.68,-0.43,0.62
0.68,-0.43,0.62
0.68,-0.43,0.62
0.68,-0.42,0.62
0.69,-0.42,0.62
0.69,-0.42,0.62
0.69,-0.42,0.62
0.69,-0.42,0.63
0.69,-0.42,0.62
0.69,-0.42,0.63
0.69,-0.42,0.63
0.69,-0.42,0.63
0.69,-0.42,0.63
0.69,-0.42,0.62
0.69,-0.42,0.62
0.69,-0.42,0.62
0.69,-0.42,0.62
0.69,-0.42,0.62
0.69,-0.42,0.62
0.69,-0.42,0.62
0.69,-0.42,0.62
0.69,-0.42,0.62
0.69,-0.42,0.62
0.69,-0.42,0.62
0.69,-0.42,0.62
0.69,-0.42,0.62
0.7,-0.42,0.62
0.7,-0.42,0.62
0.7,-0.42,0.62
0.69,-0.42,0.61
0.7,-0.42,0.61
0.7,-0.42,0.61
0.7,-0.42,0.61
0.7,-0.42,0.61
0.7,-0.41,0.61
0.7,-0.41,0.6
0.71,-0.41,0.61
0.71,-0.41,0.61
0.72,-0.41,0.61
0.72,-0.41,0.61
0.71,-0.4,0.61
0.71,-0.4,0.61
0.71,-0.39,0.61
0.71,-0.39,0.61
0.71,-0.38,0.61
0.7,-0.38,0.62
0.71,-0.37,0.62
0.71,-0.37,0.62
0.71,-0.37,0.62
0.71,-0.37,0.61
0.72,-0.36,0.61
0.73,-0.36,0.61
0.73,-0.37,0.61
0.73,-0.37,0.61
0.72,-0.37,0.61
0.7,-0.36,0.61
0.7,-0.36,0.61
0.7,-0.37,0.6
0.7,-0.37,0.6
0.71,-0.38,0.62
0.72,-0.39,0.62
0.72,-0.38,0.61
0.72,-0.37,0.6
0.72,-0.38,0.6
0.72,-0.39,0.6
0.73,-0.39,0.6
0.73,-0.4,0.59
0.73,-0.4,0.59
0.74,-0.4,0.59
0.75,-0.39,0.59
0.75,-0.4,0.58
0.75,-0.4,0.58
0.75,-0.4,0.58
0.76,-0.41,0.58
0.79,-0.43,0.59
0.81,-0.44,0.6
0.81,-0.44,0.64
0.83,-0.45,0.67
0.85,-0.45,0.71
0.87,-0.45,0.75
0.88,-0.45,0.76
0.87,-0.42,0.74
0.8,-0.38,0.66
0.71,-0.35,0.55
0.69,-0.35,0.47
0.74,-0.36,0.45
0.85,-0.39,0.5
0.95,-0.41,0.56
1,-0.4,0.58
0.99,-0.4,0.54
0.97,-0.42,0.48
0.93,-0.45,0.44
0.87,-0.5,0.42
0.83,-0.56,0.43
0.81,-0.62,0.45
0.8,-0.67,0.46
0.79,-0.73,0.47
0.79,-0.79,0.49
0.78,-0.83,0.5
0.75,-0.87,0.49
0.72,-0.91,0.46
0.7,-0.95,0.44
0.72,-1.08,0.36
0.71,-1.17,0.27
0.69,-1.21,0.24
0.7,-1.23,0.24
0.73,-1.23,0.24
0.73,-1.23,0.25
0.7,-1.24,0.28
0.65,-1.25,0.29
0.62,-1.25,0.29
0.59,-1.23,0.29
0.57,-1.21,0.3
0.56,-1.21,0.32
0.55,-1.2,0.34
0.55,-1.15,0.34
0.53,-1.09,0.34
0.5,-1.06,0.33
0.47,-1.02,0.32
0.46,-0.98,0.3
0.43,-0.93,0.29
0.4,-0.88,0.27
0.39,-0.83,0.26
0.39,-0.79,0.24
0.37,-0.75,0.23
0.36,-0.7,0.22
0.36,-0.68,0.21
0.34,-0.66,0.18
0.32,-0.65,0.16
0.31,-0.6,0.14
0.31,-0.58,0.16
0.31,-0.56,0.21
0.3,-0.54,0.23
0.28,-0.52,0.24
0.28,-0.52,0.23
0.29,-0.52,0.23
0.29,-0.52,0.24
0.29,-0.52,0.25
0.33,-0.52,0.26
0.35,-0.52,0.27
0.34,-0.55,0.25
0.35,-0.57,0.22
0.35,-0.57,0.19
0.35,-0.58,0.16
0.35,-0.61,0.14
0.36,-0.62,0.1
0.36,-0.63,0.07
0.36,-0.64,0.03
0.36,-0.67,0.02
0.36,-0.69,0.03
0.37,-0.71,0.04
0.39,-0.74,0.03
0.4,-0.77,0.04
0.42,-0.8,0.07
0.45,-0.83,0.08
0.49,-0.85,0.11
0.58,-0.88,0.12
0.62,-0.87,0.11
0.64,-0.87,0.11
0.64,-0.87,0.11
0.66,-0.87,0.1
0.65,-0.88,0.1
0.63,-0.88,0.1
0.6,-0.89,0.11
0.57,-0.89,0.12
0.55,-0.89,0.13
0.54,-0.89,0.13
0.52,-0.88,0.13
0.5,-0.88,0.12
0.49,-0.88,0.12
0.48,-0.89,0.12
0.47,-0.89,0.11
0.48,-0.89,0.11
0.48,-0.88,0.11
0.47,-0.87,0.11
0.47,-0.87,0.1
0.48,-0.87,0.1
0.48,-0.87,0.11
0.49,-0.87,0.11
0.49,-0.87,0.11
0.51,-0.87,0.12
0.54,-0.87,0.13
0.54,-0.86,0.14
0.55,-0.86,0.13
0.55,-0.87,0.12
0.55,-0.88,0.12
0.54,-0.88,0.12
0.53,-0.88,0.12
0.52,-0.87,0.12
0.52,-0.87,0.12
0.53,-0.88,0.12
0.51,-0.87,0.12
0.5,-0.87,0.11
0.51,-0.89,0.11
0.51,-0.89,0.12
0.51,-0.88,0.13
0.5,-0.88,0.13
0.5,-0.88,0.13
0.51,-0.87,0.12
0.52,-0.87,0.12
0.52,-0.87,0.11
0.52,-0.88,0.11
0.53,-0.88,0.12
0.53,-0.87,0.13
0.52,-0.87,0.14
0.51,-0.87,0.13
0.5,-0.87,0.12
0.5,-0.87,0.12
0.49,-0.88,0.13
0.5,-0.89,0.14
0.5,-0.88,0.14
0.51,-0.88,0.14
0.51,-0.88,0.14
0.51,-0.87,0.14
0.51,-0.87,0.13
0.51,-0.87,0.13
0.51,-0.87,0.13
0.51,-0.87,0.13
0.5,-0.87,0.13
0.5,-0.87,0.13
0.5,-0.88,0.13
0.5,-0.88,0.13
0.5,-0.88,0.13
0.51,-0.88,0.13
0.5,-0.88,0.13
0.5,-0.88,0.13
0.5,-0.88,0.14
0.5,-0.88,0.14
0.5,-0.87,0.14
0.5,-0.88,0.14
0.51,-0.87,0.13
0.51,-0.87,0.13
0.51,-0.87,0.13
0.51,-0.87,0.13
0.51,-0.87,0.13
0.51,-0.87,0.13
0.51,-0.87,0.13
0.5,-0.87,0.14
0.5,-0.87,0.14
0.5,-0.87,0.14
0.5,-0.87,0.14
0.51,-0.88,0.13
0.51,-0.88,0.12
0.5,-0.87,0.13
0.49,-0.87,0.13
0.49,-0.88,0.13
0.49,-0.89,0.12
0.5,-0.89,0.12
0.51,-0.89,0.12
0.51,-0.89,0.13
0.52,-0.88,0.13
0.52,-0.88,0.13
0.52,-0.88,0.13
0.51,-0.88,0.13
0.51,-0.87,0.13
0.5,-0.87,0.13
0.5,-0.88,0.13
0.49,-0.88,0.13
0.49,-0.88,0.13
0.49,-0.87,0.13
0.49,-0.89,0.14
0.48,-0.9,0.14
0.47,-0.91,0.14
0.45,-0.91,0.14
0.45,-0.9,0.14
0.47,-0.89,0.13
0.45,-0.88,0.14
0.44,-0.88,0.14
0.49,-0.87,0.12
0.47,-0.88,0.12
0.48,-0.89,0.12
0.48,-0.89,0.12
0.45,-0.89,0.14
0.47,-0.88,0.14
0.49,-0.87,0.13
0.48,-0.88,0.15
0.47,-0.88,0.14
0.46,-0.88,0.12
0.47,-0.87,0.09
0.49,-0.87,0.09
0.49,-0.87,0.1
0.5,-0.88,0.1
0.5,-0.88,0.12
0.5,-0.88,0.12
0.5,-0.88,0.11
0.48,-0.89,0.13
0.48,-0.9,0.13
0.51,-0.9,0.13
0.49,-0.91,0.13
0.48,-0.91,0.14
0.48,-0.9,0.14
0.47,-0.89,0.13
0.47,-0.89,0.13
0.47,-0.9,0.12
0.46,-0.91,0.12
0.46,-0.91,0.12
0.46,-0.92,0.12
0.45,-0.92,0.12
0.44,-0.92,0.12
0.44,-0.91,0.11
0.42,-0.91,0.11
0.43,-0.9,0.11
0.42,-0.9,0.11
0.42,-0.89,0.11
0.42,-0.89,0.11
0.43,-0.9,0.11
0.44,-0.9,0.11
0.44,-0.9,0.11
0.43,-0.91,0.12
0.43,-0.91,0.11
0.44,-0.91,0.11
0.43,-0.9,0.11
0.43,-0.9,0.1
0.42,-0.89,0.11
0.42,-0.89,0.11
0.43,-0.9,0.11
0.42,-0.9,0.12
0.43,-0.91,0.12
0.44,-0.91,0.11
0.44,-0.91,0.1
0.43,-0.91,0.1
0.43,-0.9,0.1
0.42,-0.89,0.1
0.42,-0.88,0.09
0.43,-0.87,0.1
0.44,-0.87,0.1
0.45,-0.87,0.1
0.44,-0.86,0.09
0.43,-0.85,0.1
0.43,-0.84,0.11
0.43,-0.85,0.12
0.45,-0.85,0.12
0.49,-0.85,0.1
0.5,-0.86,0.08
0.49,-0.86,0.08
0.47,-0.85,0.09
0.47,-0.84,0.09
0.45,-0.83,0.09
0.43,-0.82,0.1
0.4,-0.78,0.1
0.38,-0.77,0.1
0.37,-0.75,0.11
0.37,-0.75,0.11
0.37,-0.75,0.11
0.37,-0.75,0.11
0.38,-0.74,0.11
0.39,-0.74,0.1
0.38,-0.74,0.1
0.38,-0.75,0.1
0.37,-0.75,0.11
0.37,-0.76,0.11
0.36,-0.77,0.12
0.35,-0.76,0.13
0.35,-0.75,0.14
0.34,-0.76,0.14
0.33,-0.76,0.15
0.33,-0.77,0.15
0.32,-0.78,0.15
0.32,-0.78,0.15
0.32,-0.78,0.14
0.32,-0.77,0.14
0.32,-0.77,0.13
0.33,-0.75,0.13
0.36,-0.75,0.13
0.38,-0.76,0.18
0.38,-0.8,0.22
0.38,-0.82,0.24
0.38,-0.84,0.27
0.38,-0.86,0.28
0.36,-0.86,0.29
0.35,-0.86,0.31
0.36,-0.86,0.32
0.37,-0.86,0.32
0.39,-0.87,0.33
0.41,-0.89,0.34
0.43,-0.91,0.36
0.46,-0.93,0.39
0.49,-0.94,0.43
0.52,-0.95,0.46
0.56,-0.95,0.47
0.57,-0.98,0.5
0.57,-1.01,0.52
0.61,-0.98,0.5
0.61,-0.95,0.48
0.58,-0.93,0.46
0.56,-0.91,0.44
0.55,-0.9,0.41
0.56,-0.89,0.41
0.56,-0.89,0.42
0.59,-0.89,0.45
0.61,-0.89,0.49
0.65,-0.89,0.56
0.69,-0.9,0.58
0.73,-0.91,0.58
0.75,-0.91,0.57
0.76,-0.89,0.56
0.77,-0.87,0.55
0.78,-0.87,0.54
0.8,-0.86,0.54
0.82,-0.86,0.55
0.81,-0.85,0.55
0.81,-0.84,0.54
0.82,-0.85,0.52
0.84,-0.85,0.51
0.86,-0.85,0.48
0.88,-0.84,0.46
0.93,-0.82,0.45
0.96,-0.8,0.42
0.94,-0.76,0.4
0.92,-0.69,0.4
0.89,-0.59,0.43
0.84,-0.61,0.46
0.78,-0.65,0.49
0.74,-0.53,0.52
0.73,-0.43,0.53
0.73,-0.38,0.53
0.71,-0.34,0.52
0.7,-0.28,0.54
0.69,-0.28,0.58
0.7,-0.26,0.63
0.71,-0.26,0.66
0.69,-0.26,0.68
0.67,-0.27,0.69
0.65,-0.29,0.69
0.64,-0.3,0.7
0.64,-0.3,0.7
0.65,-0.29,0.71
0.67,-0.29,0.71
0.69,-0.3,0.71
0.7,-0.3,0.71
0.71,-0.29,0.7
0.73,-0.28,0.68
0.74,-0.28,0.68
0.74,-0.27,0.67
0.74,-0.28,0.66
0.73,-0.27,0.66
0.72,-0.27,0.65
0.71,-0.28,0.64
0.69,-0.28,0.63
0.68,-0.28,0.62
0.67,-0.28,0.62
0.68,-0.29,0.61
0.69,-0.29,0.61
0.7,-0.3,0.61
0.72,-0.3,0.61
0.74,-0.3,0.6
0.76,-0.3,0.6
0.77,-0.31,0.59
0.79,-0.31,0.58
0.81,-0.31,0.56
0.82,-0.32,0.55
0.82,-0.33,0.55
0.81,-0.33,0.55
0.81,-0.33,0.55
0.8,-0.33,0.55
0.8,-0.33,0.55
0.8,-0.32,0.55
0.8,-0.32,0.55
0.8,-0.32,0.56
0.8,-0.32,0.56
0.81,-0.31,0.56
0.81,-0.31,0.56
0.81,-0.32,0.56
0.79,-0.34,0.56
0.76,-0.35,0.57
0.75,-0.36,0.57
0.74,-0.38,0.57
0.73,-0.38,0.58
0.72,-0.39,0.58
0.72,-0.39,0.58
0.74,-0.4,0.58
0.74,-0.4,0.58
0.75,-0.4,0.59
0.76,-0.4,0.58
0.76,-0.39,0.58
0.76,-0.39,0.58
0.75,-0.38,0.57
0.75,-0.37,0.57
0.75,-0.37,0.57
0.75,-0.37,0.57
0.76,-0.37,0.57
0.76,-0.37,0.57
0.76,-0.37,0.57
0.76,-0.38,0.57
0.76,-0.38,0.57
0.76,-0.38,0.57
0.76,-0.38,0.57
0.76,-0.38,0.57
0.76,-0.38,0.57
0.76,-0.38,0.56
0.76,-0.38,0.56
0.76,-0.38,0.56
0.76,-0.37,0.55
0.77,-0.37,0.55
0.77,-0.37,0.55
0.78,-0.37,0.55
0.78,-0.37,0.56
0.78,-0.37,0.56
0.78,-0.37,0.56
0.77,-0.36,0.56
0.76,-0.36,0.56
0.76,-0.36,0.56
0.77,-0.37,0.56
0.77,-0.37,0.56
0.77,-0.37,0.56
0.77,-0.37,0.56
0.77,-0.37,0.56
0.77,-0.37,0.56
0.77,-0.37,0.56
0.77,-0.37,0.56
0.76,-0.36,0.56
0.77,-0.37,0.57
0.77,-0.37,0.56
0.77,-0.36,0.56
0.77,-0.36,0.56
0.78,-0.36,0.56
0.77,-0.36,0.56
0.77,-0.36,0.56
0.77,-0.36,0.55
0.77,-0.36,0.55
0.77,-0.36,0.55
0.77,-0.36,0.55
0.77,-0.36,0.55
0.77,-0.37,0.55
0.77,-0.37,0.55
0.77,-0.36,0.55
0.77,-0.36,0.55
0.77,-0.36,0.55
0.78,-0.37,0.55
0.78,-0.37,0.55
0.78,-0.37,0.55
0.78,-0.36,0.55
0.78,-0.36,0.55
0.78,-0.35,0.55
0.78,-0.35,0.55
0.78,-0.36,0.55
0.78,-0.35,0.55
0.78,-0.35,0.55
0.78,-0.35,0.55
0.78,-0.35,0.55
0.78,-0.35,0.55
0.78,-0.34,0.55
0.78,-0.33,0.54
0.78,-0.33,0.54
0.78,-0.33,0.56
0.79,-0.33,0.57
0.79,-0.33,0.56
0.79,-0.33,0.55
0.79,-0.33,0.54
0.8,-0.32,0.54
0.8,-0.32,0.54
0.81,-0.31,0.54
0.8,-0.3,0.54
0.8,-0.29,0.55
0.81,-0.29,0.57
0.8,-0.29,0.57
0.79,-0.29,0.58
0.79,-0.28,0.59
0.78,-0.28,0.59
0.78,-0.28,0.59
0.77,-0.27,0.59
0.77,-0.26,0.59
0.77,-0.26,0.59
0.77,-0.27,0.6
0.76,-0.27,0.61
0.76,-0.26,0.62
0.75,-0.26,0.62
0.74,-0.27,0.62
0.74,-0.27,0.62
0.73,-0.28,0.62
0.73,-0.28,0.62
0.74,-0.27,0.61
0.74,-0.28,0.59
0.73,-0.29,0.58
0.74,-0.3,0.58
0.76,-0.32,0.57
0.76,-0.32,0.59
0.77,-0.33,0.6
0.76,-0.33,0.61
0.75,-0.34,0.61
0.74,-0.34,0.61
0.74,-0.35,0.6
0.75,-0.36,0.58
0.76,-0.36,0.57
0.75,-0.37,0.57
0.75,-0.38,0.57
0.76,-0.4,0.57
0.76,-0.41,0.57
0.76,-0.43,0.56
0.77,-0.44,0.55
0.77,-0.45,0.54
0.78,-0.46,0.52
0.78,-0.49,0.5
0.77,-0.51,0.49
0.77,-0.53,0.48
0.77,-0.54,0.48
0.76,-0.54,0.47
0.74,-0.53,0.45
0.73,-0.53,0.45
0.74,-0.53,0.46
0.74,-0.52,0.43
0.75,-0.48,0.4
0.78,-0.48,0.36
0.81,-0.5,0.33
0.85,-0.53,0.32
0.87,-0.56,0.3
0.89,-0.58,0.29
0.92,-0.6,0.28
0.96,-0.64,0.26
0.97,-0.66,0.24
0.95,-0.68,0.22
0.91,-0.71,0.22
0.86,-0.75,0.24
0.79,-0.78,0.26
0.74,-0.82,0.29
0.7,-0.86,0.31
0.67,-0.89,0.31
0.65,-0.93,0.3
0.65,-0.95,0.28
0.66,-0.97,0.24
0.68,-1.02,0.21
0.7,-1.08,0.18
0.71,-1.12,0.17
0.73,-1.14,0.15
0.72,-1.2,0.15
0.71,-1.24,0.14
0.7,-1.23,0.13
0.64,-1.27,0.14
0.63,-1.27,0.16
0.62,-1.25,0.19
0.59,-1.26,0.19
0.56,-1.28,0.19
0.53,-1.3,0.19
0.5,-1.28,0.19
0.49,-1.24,0.18
0.5,-1.23,0.16
0.48,-1.21,0.16
0.44,-1.17,0.17
0.4,-1.14,0.17
0.38,-1.1,0.17
0.36,-1.08,0.16
0.36,-1.06,0.16
0.37,-1.05,0.18
0.38,-1.03,0.22
0.39,-1.01,0.25
0.39,-0.98,0.25
0.39,-0.94,0.24
0.4,-0.91,0.23
0.4,-0.88,0.23
0.4,-0.84,0.23
0.39,-0.81,0.22
0.39,-0.79,0.22
0.39,-0.75,0.2
0.39,-0.7,0.2
0.36,-0.69,0.2
0.34,-0.69,0.19
0.33,-0.67,0.19
0.33,-0.66,0.19
0.32,-0.66,0.19
0.32,-0.64,0.19
0.32,-0.63,0.21
0.33,-0.63,0.24
0.32,-0.64,0.23
0.32,-0.65,0.2
0.32,-0.65,0.18
0.31,-0.65,0.16
0.3,-0.64,0.14
0.3,-0.63,0.13
0.3,-0.61,0.12
0.3,-0.6,0.11
0.3,-0.61,0.1
0.3,-0.63,0.08
0.29,-0.65,0.06
0.3,-0.66,0.03
0.3,-0.67,0
0.32,-0.68,-0.01
0.34,-0.69,-0.03
0.34,-0.71,-0.03
0.34,-0.73,-0.02
0.32,-0.76,0
0.33,-0.78,0.01
0.34,-0.8,0.01
0.35,-0.82,0.01
0.38,-0.84,0
0.39,-0.87,0.01
0.4,-0.89,0.01
0.41,-0.91,0.01
0.42,-0.93,0.02
0.43,-0.93,0.02
0.43,-0.94,0.04
0.43,-0.94,0.05
0.43,-0.94,0.06
0.43,-0.94,0.08
0.43,-0.94,0.1
0.42,-0.95,0.12
0.43,-0.96,0.13
0.45,-0.96,0.14
0.46,-0.96,0.14
0.48,-0.96,0.16
0.48,-0.96,0.17
0.48,-0.96,0.17
0.47,-0.96,0.17
0.47,-0.97,0.16
0.47,-0.96,0.16
0.46,-0.96,0.16
0.45,-0.94,0.16
0.4,-0.93,0.14
0.38,-0.94,0.12
0.39,-0.94,0.1
0.38,-0.95,0.09
0.38,-0.95,0.08
0.38,-0.95,0.06
0.39,-0.96,0.06
0.39,-0.95,0.06
0.38,-0.94,0.07
0.37,-0.93,0.07
0.36,-0.93,0.06
0.35,-0.93,0.06
0.34,-0.94,0.06
0.33,-0.94,0.07
0.33,-0.95,0.07
0.33,-0.95,0.08
0.33,-0.95,0.09
0.34,-0.95,0.1
0.35,-0.94,0.11
0.35,-0.95,0.11
0.36,-0.95,0.11
0.37,-0.95,0.11
0.39,-0.94,0.12
0.39,-0.94,0.12
0.4,-0.93,0.12
0.4,-0.93,0.11
0.41,-0.94,0.11
0.4,-0.95,0.11
0.41,-0.95,0.11
0.41,-0.94,0.11
0.4,-0.94,0.11
0.41,-0.94,0.1
0.41,-0.94,0.11
0.41,-0.95,0.11
0.4,-0.95,0.11
0.4,-0.95,0.1
0.4,-0.95,0.1
0.4,-0.94,0.1
0.39,-0.94,0.09
0.38,-0.94,0.09
0.37,-0.94,0.09
0.36,-0.94,0.09
0.36,-0.94,0.09
0.36,-0.94,0.09
0.35,-0.94,0.09
0.35,-0.94,0.09
0.35,-0.94,0.09
0.35,-0.95,0.09
0.36,-0.95,0.09
0.36,-0.95,0.09
0.36,-0.95,0.09
0.36,-0.95,0.1
0.37,-0.94,0.1
0.37,-0.94,0.1
0.37,-0.95,0.1
0.36,-0.95,0.1
0.36,-0.96,0.1
0.36,-0.96,0.09
0.37,-0.96,0.09
0.37,-0.95,0.09
0.38,-0.95,0.1
0.36,-0.94,0.1
0.35,-0.94,0.1
0.37,-0.94,0.1
0.39,-0.94,0.09
0.39,-0.93,0.09
0.38,-0.94,0.09
0.38,-0.95,0.09
0.38,-0.95,0.09
0.39,-0.96,0.09
0.41,-0.95,0.09
0.4,-0.95,0.09
0.39,-0.94,0.09
0.4,-0.94,0.1
0.4,-0.93,0.09
0.39,-0.93,0.09
0.4,-0.92,0.09
0.4,-0.91,0.08
0.4,-0.9,0.08
0.41,-0.9,0.09
0.4,-0.89,0.1
0.4,-0.89,0.1
0.41,-0.88,0.1
0.38,-0.86,0.1
0.38,-0.85,0.09
0.39,-0.84,0.07
0.41,-0.84,0.05
0.43,-0.83,0.03
0.41,-0.82,0.05
0.4,-0.82,0.07
0.39,-0.82,0.08
0.39,-0.82,0.09
0.38,-0.83,0.09
0.37,-0.84,0.08
0.36,-0.83,0.06
0.36,-0.83,0.05
0.37,-0.83,0.06
0.37,-0.84,0.08
0.36,-0.84,0.11
0.36,-0.84,0.13
0.37,-0.83,0.13
0.37,-0.81,0.14
0.37,-0.8,0.15
0.35,-0.8,0.14
0.34,-0.78,0.13
0.34,-0.79,0.13
0.35,-0.8,0.13
0.35,-0.79,0.15
0.34,-0.79,0.17
0.34,-0.79,0.19
0.33,-0.78,0.21
0.32,-0.77,0.23
0.31,-0.76,0.25
0.3,-0.76,0.27
0.3,-0.75,0.28
0.3,-0.76,0.28
0.31,-0.76,0.28
0.34,-0.76,0.27
0.36,-0.75,0.28
0.37,-0.75,0.3
0.37,-0.75,0.3
0.38,-0.76,0.3
0.36,-0.77,0.29
0.35,-0.78,0.27
0.34,-0.79,0.28
0.36,-0.79,0.29
0.4,-0.8,0.28
0.43,-0.81,0.27
0.44,-0.83,0.26
0.44,-0.86,0.27
0.44,-0.89,0.28
0.47,-0.89,0.28
0.5,-0.9,0.29
0.52,-0.91,0.31
0.54,-0.91,0.32
0.56,-0.91,0.32
0.57,-0.91,0.33
0.59,-0.91,0.35
0.61,-0.91,0.37
0.61,-0.92,0.39
0.59,-0.93,0.4
0.57,-0.93,0.41
0.57,-0.92,0.41
0.58,-0.9,0.41
0.59,-0.88,0.41
0.59,-0.87,0.39
0.59,-0.87,0.39
0.59,-0.87,0.4
0.59,-0.86,0.41
0.59,-0.86,0.41
0.59,-0.86,0.42
0.59,-0.86,0.44
0.61,-0.86,0.46
0.62,-0.86,0.47
0.64,-0.85,0.49
0.65,-0.85,0.52
0.65,-0.83,0.51
0.67,-0.83,0.49
0.69,-0.82,0.48
0.7,-0.81,0.48
0.71,-0.82,0.5
0.72,-0.82,0.53
0.74,-0.81,0.55
0.75,-0.79,0.55
0.76,-0.8,0.56
0.76,-0.79,0.55
0.76,-0.79,0.55
0.77,-0.78,0.56
0.78,-0.77,0.56
0.78,-0.79,0.56
0.78,-0.77,0.57
0.73,-0.71,0.61
0.67,-0.67,0.63
0.65,-0.62,0.62
0.66,-0.56,0.62
0.7,-0.53,0.61
0.73,-0.49,0.59
0.76,-0.44,0.57
0.8,-0.45,0.57
0.82,-0.44,0.56
0.8,-0.4,0.56
0.79,-0.39,0.55
0.78,-0.35,0.54
0.75,-0.3,0.55
0.73,-0.3,0.57
0.71,-0.29,0.59
0.72,-0.29,0.62
0.72,-0.29,0.65
0.72,-0.3,0.68
0.72,-0.29,0.7
0.72,-0.29,0.72
0.71,-0.29,0.72
0.7,-0.28,0.72
0.69,-0.28,0.71
0.68,-0.28,0.7
0.68,-0.28,0.69
0.69,-0.28,0.69
0.69,-0.28,0.68
0.69,-0.28,0.68
0.7,-0.29,0.67
0.7,-0.29,0.67
0.71,-0.29,0.68
0.71,-0.29,0.68
0.71,-0.29,0.68
0.7,-0.29,0.67
0.69,-0.3,0.67
0.69,-0.3,0.66
0.69,-0.31,0.64
0.7,-0.33,0.59
0.7,-0.39,0.58
0.7,-0.41,0.58
0.71,-0.43,0.58
0.7,-0.45,0.59
0.69,-0.46,0.59
0.67,-0.47,0.6
0.66,-0.47,0.62
0.65,-0.47,0.63
0.66,-0.47,0.63
0.66,-0.47,0.63
0.66,-0.47,0.63
0.66,-0.46,0.63
0.67,-0.46,0.63
0.68,-0.44,0.63
0.69,-0.43,0.63
0.69,-0.43,0.62
0.69,-0.42,0.62
0.69,-0.41,0.62
0.69,-0.4,0.62
0.7,-0.4,0.62
0.7,-0.4,0.62
0.7,-0.41,0.62
0.7,-0.41,0.62
0.7,-0.42,0.62
0.69,-0.42,0.61
0.69,-0.43,0.62
0.67,-0.44,0.62
0.68,-0.44,0.62
0.68,-0.44,0.61
0.67,-0.44,0.61
0.68,-0.44,0.61
0.68,-0.45,0.61
0.68,-0.45,0.61
0.68,-0.44,0.61
0.68,-0.44,0.62
0.69,-0.43,0.62
0.69,-0.42,0.62
0.69,-0.41,0.62
0.69,-0.42,0.62
0.69,-0.42,0.62
0.69,-0.42,0.62
0.69,-0.42,0.62
0.69,-0.42,0.62
0.69,-0.42,0.62
0.69,-0.43,0.62
0.69,-0.43,0.61
0.68,-0.43,0.61
0.68,-0.43,0.62
0.69,-0.44,0.61
0.69,-0.45,0.61
0.7,-0.45,0.6
0.7,-0.45,0.6
0.7,-0.46,0.6
0.7,-0.46,0.6
0.69,-0.46,0.6
0.69,-0.46,0.6
0.69,-0.46,0.6
0.69,-0.47,0.6
0.69,-0.47,0.6
0.69,-0.46,0.59
0.69,-0.46,0.6
0.69,-0.45,0.6
0.69,-0.45,0.6
0.69,-0.45,0.61
0.69,-0.44,0.61
0.69,-0.44,0.61
0.69,-0.43,0.6
0.69,-0.43,0.61
0.7,-0.43,0.61
0.7,-0.42,0.61
0.7,-0.42,0.61
0.7,-0.43,0.61
0.7,-0.42,0.61
0.71,-0.42,0.6
0.71,-0.42,0.61
0.71,-0.42,0.61
0.71,-0.42,0.61
0.71,-0.42,0.61
0.71,-0.42,0.6
0.71,-0.42,0.6
0.71,-0.42,0.6
0.71,-0.42,0.6
0.71,-0.42,0.6
0.71,-0.42,0.6
0.71,-0.42,0.6
0.71,-0.42,0.6
0.71,-0.42,0.6
0.71,-0.42,0.59
0.71,-0.42,0.59
0.71,-0.42,0.59
0.71,-0.42,0.6
0.71,-0.43,0.6
0.71,-0.42,0.6
0.71,-0.42,0.6
0.71,-0.42,0.6
0.71,-0.42,0.6
0.71,-0.42,0.6
0.71,-0.42,0.6
0.71,-0.42,0.6
0.71,-0.42,0.6
0.71,-0.42,0.6
0.71,-0.41,0.6
0.71,-0.42,0.6
0.72,-0.42,0.6
0.72,-0.42,0.6
0.72,-0.41,0.6
0.72,-0.41,0.6
0.72,-0.41,0.6
0.72,-0.41,0.59
0.72,-0.41,0.59
0.72,-0.41,0.59
0.72,-0.41,0.59
0.72,-0.42,0.59
0.72,-0.42,0.59
0.72,-0.43,0.59
0.72,-0.43,0.59
0.72,-0.43,0.58
0.72,-0.43,0.58
0.73,-0.42,0.58
0.72,-0.42,0.58
0.71,-0.41,0.6
0.72,-0.4,0.6
0.73,-0.4,0.58
0.73,-0.4,0.58
0.73,-0.39,0.6
0.73,-0.38,0.59
0.73,-0.38,0.58
0.73,-0.38,0.59
0.73,-0.38,0.6
0.71,-0.37,0.61
0.71,-0.36,0.61
0.71,-0.34,0.61
0.72,-0.34,0.63
0.72,-0.34,0.65
0.73,-0.33,0.66
0.74,-0.33,0.65
0.74,-0.33,0.64
0.74,-0.34,0.62
0.74,-0.34,0.61
0.73,-0.35,0.6
0.72,-0.36,0.59
0.7,-0.37,0.59
0.69,-0.38,0.6
0.7,-0.37,0.6
0.71,-0.38,0.59
0.71,-0.39,0.6
0.72,-0.4,0.61
0.73,-0.4,0.6
0.74,-0.4,0.6
0.74,-0.4,0.59
0.74,-0.41,0.59
0.75,-0.44,0.59
0.74,-0.45,0.58
0.73,-0.46,0.58
0.72,-0.46,0.57
0.71,-0.47,0.57
0.69,-0.49,0.56
0.69,-0.5,0.56
0.68,-0.51,0.55
0.67,-0.52,0.53
0.67,-0.53,0.52
0.67,-0.54,0.51
0.67,-0.55,0.5
0.69,-0.55,0.49
0.7,-0.55,0.49
0.71,-0.55,0.49
0.72,-0.55,0.49
0.73,-0.54,0.48
0.73,-0.54,0.48
0.74,-0.54,0.48
0.74,-0.53,0.48
0.72,-0.53,0.48
0.73,-0.54,0.49
0.74,-0.54,0.5
0.73,-0.54,0.5
0.73,-0.54,0.5
0.73,-0.55,0.5
0.73,-0.56,0.5
0.72,-0.56,0.5
0.72,-0.56,0.49
0.73,-0.56,0.49
0.72,-0.57,0.48
0.72,-0.58,0.47
0.71,-0.59,0.46
0.71,-0.6,0.47
0.72,-0.6,0.46
0.72,-0.6,0.46
0.72,-0.6,0.46
0.73,-0.59,0.45
0.72,-0.59,0.45
0.71,-0.59,0.46
0.71,-0.59,0.46
0.7,-0.59,0.47
0.69,-0.58,0.49
0.69,-0.57,0.5
0.69,-0.56,0.51
0.68,-0.54,0.52
0.68,-0.53,0.53
0.68,-0.53,0.54
0.7,-0.52,0.54
0.71,-0.51,0.53
0.71,-0.51,0.53
0.72,-0.51,0.52
0.73,-0.51,0.52
0.73,-0.5,0.52
0.71,-0.5,0.53
0.71,-0.51,0.53
0.71,-0.51,0.53
0.7,-0.51,0.54
0.69,-0.52,0.55
0.69,-0.52,0.55
0.69,-0.52,0.55
0.69,-0.52,0.54
0.69,-0.52,0.53
0.69,-0.52,0.53
0.69,-0.52,0.53
0.68,-0.52,0.52
0.68,-0.52,0.51
0.68,-0.53,0.51
0.69,-0.53,0.51
0.69,-0.52,0.51
0.7,-0.53,0.51
0.71,-0.53,0.51
0.72,-0.54,0.51
0.72,-0.54,0.51
0.72,-0.54,0.51
0.71,-0.54,0.51
0.71,-0.55,0.5
0.7,-0.55,0.5
0.7,-0.55,0.5
0.71,-0.55,0.5
0.71,-0.55,0.5
0.71,-0.56,0.5
0.71,-0.56,0.5
0.71,-0.56,0.5
0.7,-0.56,0.5
0.7,-0.55,0.5
0.7,-0.55,0.5
0.7,-0.55,0.5
0.69,-0.55,0.5
0.69,-0.56,0.5
0.69,-0.56,0.51
0.69,-0.56,0.51
0.69,-0.55,0.51
0.69,-0.55,0.52
0.69,-0.55,0.52
0.69,-0.55,0.52
