Acc_x,Acc_y,Acc_z
0.64,-0.52,0.64
0.63,-0.52,0.62
0.64,-0.52,0.6
0.65,-0.52,0.59
0.65,-0.51,0.58
0.66,-0.51,0.58
0.67,-0.52,0.59
0.68,-0.52,0.59
0.69,-0.53,0.59
0.69,-0.53,0.58
0.7,-0.53,0.57
0.7,-0.54,0.57
0.69,-0.54,0.56
0.7,-0.54,0.56
0.69,-0.54,0.56
0.68,-0.53,0.57
0.66,-0.52,0.58
0.65,-0.51,0.6
0.64,-0.5,0.61
0.63,-0.49,0.62
0.64,-0.48,0.61
0.65,-0.48,0.61
0.65,-0.48,0.62
0.65,-0.48,0.61
0.66,-0.47,0.6
0.67,-0.48,0.59
0.67,-0.48,0.59
0.67,-0.48,0.59
0.67,-0.48,0.59
0.67,-0.48,0.6
0.67,-0.48,0.6
0.67,-0.48,0.61
0.67,-0.48,0.61
0.66,-0.48,0.61
0.66,-0.49,0.61
0.67,-0.49,0.6
0.67,-0.5,0.6
0.67,-0.51,0.6
0.67,-0.51,0.59
0.67,-0.51,0.59
0.66,-0.51,0.59
0.66,-0.52,0.59
0.65,-0.52,0.59
0.66,-0.52,0.59
0.65,-0.52,0.6
0.65,-0.53,0.6
0.64,-0.53,0.61
0.64,-0.53,0.61
0.64,-0.53,0.6
0.65,-0.53,0.6
0.64,-0.54,0.59
0.64,-0.54,0.59
0.65,-0.53,0.59
0.65,-0.52,0.59
0.65,-0.52,0.59
0.64,-0.52,0.59
0.65,-0.51,0.58
0.67,-0.51,0.57
0.68,-0.52,0.57
0.67,-0.52,0.58
0.69,-0.51,0.59
0.72,-0.51,0.59
0.72,-0.52,0.6
0.71,-0.52,0.61
0.73,-0.5,0.61
0.77,-0.49,0.6
0.77,-0.49,0.59
0.76,-0.48,0.59
0.78,-0.47,0.58
0.78,-0.46,0.58
0.78,-0.45,0.59
0.76,-0.44,0.6
0.73,-0.42,0.59
0.69,-0.39,0.55
0.64,-0.38,0.51
0.63,-0.36,0.48
0.63,-0.34,0.46
0.64,-0.33,0.47
0.7,-0.31,0.49
0.72,-0.31,0.51
0.72,-0.3,0.53
0.71,-0.29,0.54
0.7,-0.29,0.54
0.69,-0.29,0.53
0.68,-0.3,0.51
0.65,-0.31,0.48
0.64,-0.31,0.46
0.65,-0.31,0.45
0.65,-0.34,0.43
0.66,-0.36,0.43
0.69,-0.36,0.44
0.72,-0.38,0.46
0.75,-0.41,0.48
0.79,-0.44,0.5
0.85,-0.47,0.52
0.92,-0.51,0.53
0.98,-0.56,0.55
0.98,-0.59,0.59
0.95,-0.59,0.61
0.92,-0.58,0.62
0.9,-0.58,0.61
0.88,-0.57,0.61
0.83,-0.56,0.6
0.78,-0.55,0.57
0.75,-0.54,0.55
0.72,-0.53,0.53
0.71,-0.53,0.53
0.71,-0.53,0.55
0.72,-0.52,0.57
0.72,-0.54,0.62
0.73,-0.56,0.67
0.72,-0.58,0.7
0.7,-0.59,0.68
0.66,-0.6,0.63
0.66,-0.62,0.58
0.72,-0.65,0.57
0.78,-0.67,0.59
0.8,-0.69,0.58
0.83,-0.7,0.54
0.84,-0.7,0.48
0.8,-0.72,0.48
0.77,-0.76,0.51
0.78,-0.81,0.54
0.8,-0.85,0.55
0.82,-0.89,0.56
0.8,-0.95,0.53
0.78,-1.02,0.49
0.76,-1.08,0.43
0.74,-1.14,0.38
0.74,-1.23,0.28
0.73,-1.25,0.25
0.66,-1.28,0.22
0.61,-1.31,0.18
0.58,-1.3,0.17
0.57,-1.3,0.17
0.56,-1.3,0.15
0.52,-1.3,0.12
0.51,-1.3,0.13
0.53,-1.21,0.14
0.51,-1.14,0.14
0.46,-1.13,0.13
0.44,-1.1,0.13
0.44,-1.03,0.13
0.44,-0.97,0.12
0.44,-0.93,0.1
0.44,-0.89,0.09
0.43,-0.86,0.09
0.39,-0.83,0.1
0.39,-0.81,0.1
0.4,-0.77,0.1
0.39,-0.75,0.11
0.38,-0.74,0.1
0.35,-0.71,0.1
0.27,-0.71,0.12
0.31,-0.68,0.1
0.42,-0.62,0.06
0.31,-0.59,0.06
0.29,-0.58,0.05
0.27,-0.56,0.02
0.26,-0.55,0.02
0.26,-0.54,0.03
0.26,-0.54,0.01
0.24,-0.54,0
0.21,-0.56,0.01
0.22,-0.57,0.02
0.25,-0.57,0.02
0.26,-0.58,0.02
0.26,-0.6,0.01
0.25,-0.62,0
0.23,-0.66,-0.01
0.2,-0.7,-0.03
0.18,-0.72,-0.05
0.18,-0.75,-0.06
0.19,-0.75,-0.07
0.24,-0.74,-0.06
0.28,-0.74,-0.03
0.28,-0.77,0.01
0.29,-0.82,0.06
0.3,-0.89,0.11
0.29,-0.95,0.13
0.34,-0.98,0.14
0.4,-1,0.12
0.44,-1.01,0.04
0.45,-1.01,0.01
0.47,-0.99,-0.02
0.48,-0.98,-0.05
0.48,-0.97,-0.08
0.48,-0.95,-0.09
0.46,-0.94,-0.1
0.43,-0.93,-0.1
0.41,-0.93,-0.09
0.39,-0.94,-0.11
0.38,-0.95,-0.12
0.36,-0.96,-0.12
0.32,-0.96,-0.1
0.31,-0.96,-0.08
0.3,-0.96,-0.07
0.29,-0.96,-0.06
0.3,-0.97,-0.06
0.3,-0.98,-0.04
0.29,-0.99,-0.03
0.28,-1,-0.03
0.29,-1,-0.03
0.28,-1.01,-0.04
0.28,-1.02,-0.04
0.27,-1.02,-0.04
0.27,-1.01,-0.03
0.26,-1,-0.03
0.27,-1,-0.03
0.3,-0.98,-0.02
0.31,-0.98,-0.02
0.32,-0.98,-0.02
0.32,-0.97,-0.02
0.33,-0.97,-0.03
0.33,-0.97,-0.04
0.34,-0.96,-0.04
0.34,-0.96,-0.05
0.34,-0.96,-0.06
0.34,-0.96,-0.06
0.34,-0.96,-0.06
0.34,-0.95,-0.06
0.34,-0.95,-0.06
0.34,-0.96,-0.06
0.34,-0.97,-0.06
0.33,-0.97,-0.05
0.33,-0.98,-0.04
0.33,-0.98,-0.03
0.32,-0.97,-0.03
0.32,-0.97,-0.02
0.32,-0.96,-0.03
0.32,-0.96,-0.04
0.32,-0.95,-0.04
0.33,-0.95,-0.05
0.34,-0.95,-0.05
0.34,-0.94,-0.05
0.34,-0.95,-0.06
0.33,-0.96,-0.06
0.33,-0.95,-0.06
0.34,-0.95,-0.07
0.34,-0.95,-0.06
0.35,-0.94,-0.06
0.35,-0.94,-0.06
0.35,-0.95,-0.06
0.35,-0.95,-0.06
0.35,-0.96,-0.07
0.34,-0.97,-0.07
0.35,-0.97,-0.08
0.35,-0.97,-0.07
0.35,-0.97,-0.07
0.35,-0.96,-0.06
0.35,-0.95,-0.05
0.35,-0.95,-0.05
0.35,-0.94,-0.05
0.35,-0.95,-0.05
0.35,-0.95,-0.05
0.34,-0.96,-0.05
0.32,-0.96,-0.05
0.31,-0.96,-0.04
0.31,-0.96,-0.04
0.32,-0.96,-0.04
0.31,-0.96,-0.05
0.31,-0.97,-0.05
0.32,-0.97,-0.05
0.32,-0.97,-0.05
0.32,-0.96,-0.05
0.33,-0.96,-0.04
0.33,-0.96,-0.05
0.33,-0.97,-0.05
0.34,-0.97,-0.05
0.34,-0.98,-0.04
0.34,-0.99,-0.04
0.34,-0.98,-0.04
0.34,-0.97,-0.04
0.34,-0.96,-0.04
0.34,-0.96,-0.03
0.35,-0.96,-0.03
0.36,-0.95,-0.03
0.36,-0.96,-0.03
0.36,-0.96,-0.03
0.37,-0.96,-0.03
0.37,-0.97,-0.03
0.37,-0.97,-0.03
0.38,-0.97,-0.03
0.38,-0.97,-0.02
0.36,-0.97,-0.02
0.35,-0.97,-0.01
0.35,-0.97,0
0.35,-0.97,0.01
0.34,-0.97,0.01
0.33,-0.97,0.01
0.33,-0.97,0.02
0.34,-0.97,0.02
0.35,-0.96,0.01
0.35,-0.96,0
0.34,-0.97,0.02
0.34,-0.96,0.03
0.39,-0.95,0.01
0.36,-0.95,-0.01
0.33,-0.96,-0.02
0.35,-0.94,-0.02
0.35,-0.94,0.01
0.34,-0.95,0.01
0.34,-0.94,-0.01
0.4,-0.94,-0.04
0.35,-0.94,-0.02
0.41,-0.94,-0.02
0.48,-0.91,-0.05
0.36,-0.92,-0.02
0.28,-0.92,0.01
0.31,-0.91,0.02
0.33,-0.9,0
0.29,-0.87,-0.01
0.29,-0.86,0
0.31,-0.81,-0.01
0.31,-0.78,0
0.31,-0.75,0
0.31,-0.73,-0.01
0.31,-0.72,-0.02
0.32,-0.7,-0.05
0.32,-0.69,-0.07
0.29,-0.69,-0.04
0.27,-0.7,0
0.25,-0.71,0.03
0.27,-0.72,0.04
0.29,-0.71,0.04
0.24,-0.67,0.06
0.2,-0.67,0.07
0.25,-0.68,0.06
0.27,-0.66,0.07
0.22,-0.66,0.11
0.23,-0.7,0.14
0.26,-0.71,0.16
0.25,-0.69,0.17
0.24,-0.7,0.19
0.22,-0.72,0.22
0.21,-0.74,0.23
0.22,-0.76,0.23
0.23,-0.77,0.23
0.25,-0.8,0.26
0.26,-0.9,0.31
0.31,-0.93,0.31
0.36,-0.92,0.32
0.39,-0.88,0.3
0.41,-0.87,0.27
0.45,-0.88,0.26
0.46,-0.89,0.29
0.49,-0.9,0.33
0.5,-0.93,0.36
0.49,-0.97,0.38
0.48,-1,0.38
0.47,-0.99,0.36
0.5,-0.99,0.36
0.53,-0.99,0.39
0.55,-0.98,0.44
0.55,-0.99,0.48
0.57,-0.99,0.51
0.59,-0.99,0.53
0.59,-0.97,0.53
0.59,-0.96,0.52
0.58,-0.95,0.5
0.58,-0.93,0.48
0.59,-0.91,0.48
0.62,-0.9,0.48
0.66,-0.91,0.5
0.68,-0.91,0.52
0.67,-0.88,0.56
0.65,-0.85,0.57
0.66,-0.85,0.56
0.7,-0.83,0.52
0.77,-0.83,0.49
0.86,-0.86,0.49
0.97,-0.88,0.52
1.05,-0.89,0.55
1.06,-0.88,0.58
1.02,-0.85,0.63
0.96,-0.79,0.66
0.89,-0.71,0.66
0.82,-0.63,0.67
0.75,-0.55,0.68
0.71,-0.49,0.68
0.69,-0.43,0.69
0.69,-0.38,0.69
0.68,-0.34,0.7
0.66,-0.29,0.71
0.64,-0.25,0.7
0.62,-0.23,0.68
0.63,-0.22,0.63
0.63,-0.21,0.63
0.62,-0.2,0.64
0.62,-0.2,0.65
0.62,-0.2,0.66
0.62,-0.19,0.71
0.62,-0.21,0.73
0.63,-0.22,0.76
0.64,-0.24,0.78
0.64,-0.25,0.81
0.64,-0.27,0.83
0.64,-0.29,0.84
0.66,-0.31,0.84
0.67,-0.33,0.81
0.67,-0.35,0.78
0.67,-0.37,0.76
0.67,-0.4,0.74
0.67,-0.43,0.71
0.67,-0.45,0.68
0.66,-0.47,0.66
0.64,-0.48,0.65
0.62,-0.49,0.65
0.61,-0.49,0.64
0.6,-0.5,0.64
0.6,-0.51,0.63
0.6,-0.51,0.63
0.6,-0.51,0.63
0.6,-0.51,0.64
0.6,-0.52,0.64
0.61,-0.52,0.65
0.61,-0.52,0.65
0.61,-0.52,0.65
0.59,-0.51,0.65
0.58,-0.49,0.65
0.59,-0.47,0.64
0.61,-0.46,0.63
0.62,-0.44,0.63
0.63,-0.43,0.64
0.65,-0.43,0.65
0.67,-0.42,0.65
0.67,-0.42,0.66
0.67,-0.41,0.67
0.67,-0.41,0.67
0.66,-0.41,0.67
0.66,-0.41,0.67
0.65,-0.41,0.67
0.65,-0.41,0.66
0.65,-0.42,0.66
0.65,-0.43,0.66
0.65,-0.43,0.65
0.65,-0.43,0.65
0.65,-0.44,0.65
0.64,-0.44,0.65
0.64,-0.44,0.65
0.64,-0.45,0.65
0.64,-0.45,0.65
0.64,-0.45,0.65
0.64,-0.45,0.65
0.65,-0.44,0.65
0.64,-0.44,0.66
0.64,-0.44,0.66
0.64,-0.43,0.65
0.64,-0.43,0.65
0.64,-0.43,0.65
0.65,-0.43,0.65
0.65,-0.43,0.65
0.65,-0.44,0.65
0.64,-0.44,0.65
0.65,-0.43,0.65
0.65,-0.44,0.65
0.65,-0.44,0.65
0.65,-0.44,0.65
0.65,-0.44,0.64
0.65,-0.44,0.65
0.64,-0.44,0.65
0.64,-0.44,0.66
0.66,-0.44,0.66
0.66,-0.44,0.65
0.67,-0.44,0.65
0.66,-0.44,0.65
0.66,-0.43,0.65
0.66,-0.43,0.65
0.66,-0.43,0.65
0.66,-0.43,0.65
0.65,-0.43,0.65
0.66,-0.43,0.65
0.67,-0.44,0.65
0.67,-0.43,0.65
0.67,-0.43,0.65
0.67,-0.43,0.65
0.68,-0.43,0.64
0.68,-0.42,0.64
0.68,-0.42,0.65
0.68,-0.42,0.65
0.67,-0.42,0.66
0.66,-0.42,0.65
0.66,-0.42,0.65
0.65,-0.42,0.66
0.65,-0.42,0.66
0.66,-0.42,0.65
0.65,-0.42,0.65
0.64,-0.42,0.65
0.64,-0.43,0.66
0.66,-0.42,0.64
0.66,-0.42,0.63
0.65,-0.42,0.63
0.64,-0.42,0.63
0.65,-0.42,0.63
0.65,-0.41,0.63
0.65,-0.4,0.63
0.67,-0.41,0.63
0.67,-0.42,0.64
0.67,-0.41,0.65
0.67,-0.41,0.65
0.67,-0.4,0.64
0.67,-0.4,0.63
0.68,-0.39,0.63
0.68,-0.4,0.62
0.68,-0.4,0.62
0.68,-0.4,0.63
0.69,-0.4,0.63
0.69,-0.39,0.63
0.68,-0.41,0.62
0.69,-0.41,0.61
0.7,-0.4,0.62
0.7,-0.41,0.62
0.7,-0.41,0.62
0.7,-0.41,0.63
0.7,-0.42,0.65
0.71,-0.42,0.66
0.75,-0.44,0.67
0.8,-0.48,0.73
0.89,-0.52,0.8
0.97,-0.56,0.87
1.02,-0.6,0.92
0.99,-0.59,0.89
0.82,-0.51,0.66
0.55,-0.42,0.61
0.67,-0.48,0.59
0.79,-0.54,0.64
0.87,-0.55,0.66
0.89,-0.54,0.65
0.87,-0.55,0.64
0.84,-0.58,0.6
0.82,-0.64,0.56
0.82,-0.71,0.56
0.81,-0.76,0.56
0.77,-0.82,0.55
0.72,-0.86,0.53
0.69,-0.9,0.51
0.67,-0.93,0.48
0.64,-0.97,0.47
0.61,-1.03,0.46
0.59,-1.09,0.44
0.57,-1.15,0.41
0.57,-1.19,0.39
0.59,-1.22,0.37
0.59,-1.28,0.34
0.56,-1.33,0.31
0.54,-1.33,0.29
0.5,-1.32,0.28
0.45,-1.32,0.27
0.42,-1.3,0.26
0.4,-1.21,0.24
0.37,-1.17,0.23
0.38,-1.09,0.22
0.38,-1.04,0.2
0.35,-0.99,0.18
0.31,-0.93,0.16
0.27,-0.88,0.15
0.27,-0.81,0.14
0.29,-0.75,0.12
0.29,-0.7,0.1
0.25,-0.67,0.09
0.2,-0.65,0.09
0.2,-0.62,0.07
0.22,-0.61,0.05
0.21,-0.59,0.05
0.21,-0.58,0.05
0.23,-0.57,0.05
0.24,-0.56,0.05
0.22,-0.55,0.04
0.21,-0.55,0.02
0.22,-0.57,-0.01
0.23,-0.59,-0.02
0.23,-0.61,-0.03
0.25,-0.63,-0.04
0.29,-0.64,-0.05
0.31,-0.65,-0.06
0.32,-0.64,-0.07
0.3,-0.64,-0.07
0.29,-0.66,-0.07
0.32,-0.68,-0.07
0.34,-0.7,-0.08
0.35,-0.72,-0.1
0.34,-0.73,-0.1
0.32,-0.74,-0.1
0.33,-0.76,-0.09
0.35,-0.79,-0.09
0.37,-0.83,-0.09
0.39,-0.86,-0.1
0.42,-0.9,-0.1
0.42,-0.94,-0.1
0.4,-0.97,-0.11
0.41,-1,-0.11
0.43,-1.02,-0.1
0.44,-1.04,-0.1
0.45,-1.05,-0.09
0.45,-1.04,-0.08
0.44,-1.03,-0.06
0.44,-1,-0.05
0.45,-0.98,-0.04
0.45,-0.97,-0.02
0.46,-0.96,0
0.46,-0.96,0.02
0.44,-0.96,0.05
0.41,-0.97,0.06
0.36,-0.96,0.08
0.33,-0.97,0.08
0.31,-0.99,0.07
0.28,-0.99,0.07
0.25,-0.98,0.07
0.25,-0.99,0.05
0.25,-0.99,0.02
0.23,-0.99,0.02
0.23,-0.99,0.01
0.24,-1,0
0.24,-0.99,-0.01
0.25,-1,-0.02
0.27,-1,-0.03
0.28,-1,-0.04
0.28,-1,-0.04
0.27,-0.98,-0.04
0.28,-0.97,-0.04
0.29,-0.97,-0.03
0.28,-0.97,0
0.29,-0.96,0
0.31,-0.96,-0.01
0.3,-0.96,-0.01
0.31,-0.97,-0.01
0.31,-0.97,-0.01
0.32,-0.97,0
0.32,-0.98,-0.01
0.34,-0.97,-0.01
0.35,-0.97,-0.02
0.35,-0.97,-0.02
0.35,-0.98,-0.02
0.35,-0.98,-0.02
0.35,-0.98,-0.02
0.34,-0.99,-0.02
0.34,-0.99,-0.01
0.33,-0.98,-0.02
0.34,-0.97,-0.02
0.34,-0.97,-0.01
0.33,-0.96,0.01
0.33,-0.95,0.01
0.32,-0.95,0.01
0.33,-0.95,0
0.33,-0.95,0
0.33,-0.95,0
0.33,-0.95,0
0.33,-0.95,0
0.32,-0.96,-0.01
0.33,-0.96,-0.01
0.33,-0.96,-0.01
0.33,-0.96,-0.01
0.34,-0.96,-0.01
0.33,-0.97,0
0.33,-0.97,0
0.33,-0.97,0
0.33,-0.97,0
0.33,-0.98,0
0.32,-0.98,0.01
0.31,-0.97,0.01
0.31,-0.97,0.02
0.32,-0.96,0.01
0.32,-0.95,0.02
0.3,-0.95,0.03
0.3,-0.96,0.04
0.31,-0.97,0.03
0.3,-0.97,0.03
0.3,-0.97,0.04
0.3,-0.97,0.04
0.31,-0.97,0.04
0.31,-0.97,0.03
0.31,-0.97,0.03
0.32,-0.97,0.02
0.31,-0.97,0.02
0.32,-0.96,0.02
0.31,-0.96,0.03
0.32,-0.96,0.03
0.33,-0.95,0.03
0.33,-0.96,0.04
0.32,-0.96,0.04
0.33,-0.96,0.04
0.33,-0.96,0.04
0.32,-0.95,0.04
0.33,-0.95,0.04
0.34,-0.95,0.04
0.34,-0.95,0.05
0.35,-0.95,0.05
0.35,-0.96,0.05
0.35,-0.97,0.04
0.35,-0.98,0.04
0.34,-0.98,0.04
0.32,-0.98,0.03
0.31,-0.98,0.03
0.32,-0.98,0.03
0.34,-0.98,0.03
0.33,-0.98,0.03
0.31,-0.98,0.03
0.32,-0.98,0.04
0.33,-0.98,0.05
0.33,-0.97,0.05
0.32,-0.97,0.07
0.3,-0.97,0.08
0.29,-0.96,0.08
0.28,-0.96,0.09
0.3,-0.96,0.09
0.33,-0.96,0.08
0.35,-0.96,0.06
0.36,-0.96,0.05
0.36,-0.95,0.04
0.36,-0.96,0.04
0.36,-0.96,0.03
0.36,-0.96,0.03
0.36,-0.96,0.03
0.36,-0.96,0.03
0.35,-0.96,0.04
0.35,-0.96,0.05
0.34,-0.95,0.05
0.34,-0.95,0.05
0.34,-0.95,0.05
0.33,-0.95,0.05
0.33,-0.95,0.05
0.34,-0.95,0.06
0.34,-0.95,0.06
0.34,-0.95,0.06
0.34,-0.96,0.06
0.34,-0.97,0.05
0.34,-0.97,0.05
0.34,-0.97,0.05
0.34,-0.97,0.05
0.33,-0.97,0.04
0.33,-0.96,0.04
0.34,-0.96,0.04
0.34,-0.96,0.03
0.33,-0.96,0.03
0.33,-0.96,0.03
0.33,-0.96,0.03
0.33,-0.97,0.03
0.32,-0.97,0.04
0.32,-0.97,0.04
0.32,-0.97,0.04
0.32,-0.97,0.05
0.32,-0.97,0.04
0.31,-0.98,0.04
0.31,-0.97,0.04
0.32,-0.97,0.04
0.33,-0.97,0.04
0.33,-0.97,0.04
0.3,-0.98,0.05
0.31,-0.98,0.04
0.32,-0.98,0.04
0.31,-0.98,0.04
0.32,-0.98,0.04
0.32,-0.97,0.04
0.3,-0.96,0.05
0.31,-0.96,0.05
0.33,-0.95,0.05
0.32,-0.95,0.05
0.32,-0.94,0.06
0.33,-0.94,0.04
0.35,-0.95,0.03
0.36,-0.95,0.02
0.38,-0.95,0.01
0.4,-0.95,-0.01
0.44,-0.94,-0.02
0.44,-0.94,-0.01
0.4,-0.93,0.02
0.36,-0.94,0.04
0.34,-0.95,0.05
0.34,-0.93,0.06
0.32,-0.92,0.07
0.3,-0.91,0.08
0.31,-0.9,0.08
0.31,-0.88,0.07
0.32,-0.87,0.07
0.33,-0.86,0.08
0.34,-0.84,0.07
0.35,-0.81,0.07
0.34,-0.78,0.07
0.33,-0.77,0.07
0.32,-0.76,0.08
0.3,-0.77,0.07
0.29,-0.77,0.07
0.29,-0.77,0.07
0.27,-0.76,0.09
0.29,-0.76,0.06
0.28,-0.71,0.08
0.26,-0.73,0.1
0.24,-0.74,0.11
0.23,-0.74,0.12
0.21,-0.74,0.12
0.22,-0.73,0.1
0.22,-0.71,0.09
0.23,-0.72,0.1
0.23,-0.72,0.11
0.22,-0.7,0.14
0.21,-0.69,0.16
0.21,-0.68,0.17
0.2,-0.69,0.19
0.2,-0.71,0.21
0.23,-0.72,0.23
0.23,-0.73,0.23
0.25,-0.74,0.25
0.3,-0.73,0.27
0.35,-0.71,0.31
0.36,-0.7,0.35
0.32,-0.71,0.38
0.34,-0.72,0.4
0.42,-0.72,0.42
0.48,-0.74,0.47
0.51,-0.79,0.54
0.52,-0.84,0.71
0.61,-0.89,0.77
0.63,-0.9,0.79
0.63,-0.91,0.77
0.64,-0.86,0.72
0.57,-0.8,0.66
0.54,-0.77,0.62
0.55,-0.76,0.61
0.57,-0.75,0.62
0.6,-0.73,0.63
0.59,-0.72,0.64
0.56,-0.71,0.63
0.57,-0.72,0.63
0.6,-0.74,0.65
0.65,-0.77,0.68
0.7,-0.79,0.74
0.73,-0.82,0.8
0.7,-0.83,0.81
0.66,-0.81,0.78
0.66,-0.78,0.76
0.67,-0.77,0.76
0.7,-0.78,0.77
0.77,-0.79,0.8
0.85,-0.8,0.86
0.93,-0.81,0.92
1,-0.81,1
1.05,-0.79,1.02
1.07,-0.67,0.95
1.01,-0.6,0.9
0.91,-0.54,0.86
0.83,-0.49,0.84
0.72,-0.44,0.85
0.58,-0.41,0.87
0.47,-0.36,0.84
0.39,-0.3,0.78
0.33,-0.26,0.72
0.3,-0.22,0.64
0.29,-0.18,0.56
0.29,-0.16,0.5
0.29,-0.15,0.47
0.3,-0.15,0.47
0.31,-0.15,0.51
0.33,-0.16,0.57
0.37,-0.18,0.64
0.45,-0.21,0.73
0.55,-0.24,0.83
0.66,-0.26,0.93
0.76,-0.28,1.01
0.81,-0.3,1.06
0.82,-0.32,1.07
0.79,-0.36,1.05
0.74,-0.39,1.01
0.67,-0.41,0.96
0.61,-0.44,0.84
0.55,-0.45,0.79
0.52,-0.44,0.75
0.52,-0.44,0.72
0.51,-0.42,0.69
0.5,-0.41,0.65
0.5,-0.41,0.63
0.5,-0.42,0.61
0.5,-0.43,0.6
0.5,-0.44,0.6
0.51,-0.45,0.61
0.54,-0.45,0.63
0.56,-0.46,0.66
0.59,-0.45,0.7
0.6,-0.44,0.73
0.63,-0.43,0.75
0.64,-0.42,0.76
0.66,-0.41,0.76
0.67,-0.41,0.76
0.67,-0.41,0.75
0.67,-0.4,0.73
0.66,-0.4,0.72
0.63,-0.4,0.73
0.61,-0.39,0.73
0.59,-0.38,0.72
0.58,-0.38,0.71
0.57,-0.38,0.7
0.57,-0.38,0.69
0.59,-0.37,0.7
0.6,-0.37,0.71
0.62,-0.36,0.72
0.63,-0.37,0.72
0.63,-0.39,0.73
0.62,-0.4,0.74
0.62,-0.41,0.74
0.61,-0.42,0.73
0.6,-0.43,0.72
0.59,-0.42,0.71
0.59,-0.42,0.71
0.58,-0.42,0.71
0.59,-0.42,0.71
0.59,-0.42,0.72
0.6,-0.41,0.73
0.61,-0.41,0.73
0.62,-0.41,0.74
0.61,-0.41,0.73
0.6,-0.4,0.73
0.59,-0.4,0.72
0.57,-0.39,0.71
0.57,-0.39,0.71
0.57,-0.39,0.71
0.57,-0.38,0.71
0.58,-0.39,0.71
0.6,-0.39,0.72
0.61,-0.39,0.73
0.61,-0.38,0.74
0.6,-0.38,0.74
0.6,-0.38,0.72
0.61,-0.37,0.71
0.61,-0.37,0.71
0.61,-0.36,0.7
0.62,-0.36,0.69
0.62,-0.35,0.7
0.6,-0.32,0.71
0.6,-0.32,0.72
0.6,-0.33,0.72
0.6,-0.33,0.72
0.6,-0.32,0.72
0.6,-0.31,0.72
0.61,-0.32,0.71
0.61,-0.31,0.72
0.62,-0.3,0.72
0.63,-0.31,0.73
0.63,-0.31,0.73
0.63,-0.31,0.73
0.63,-0.31,0.72
0.62,-0.31,0.72
0.63,-0.32,0.72
0.62,-0.32,0.71
0.63,-0.32,0.71
0.63,-0.33,0.71
0.63,-0.34,0.7
0.64,-0.35,0.69
0.64,-0.36,0.68
0.64,-0.35,0.68
0.63,-0.36,0.68
0.63,-0.38,0.66
0.62,-0.39,0.66
0.61,-0.42,0.66
0.61,-0.45,0.67
0.61,-0.47,0.68
0.61,-0.48,0.67
0.62,-0.5,0.67
0.63,-0.52,0.66
0.64,-0.53,0.64
0.66,-0.54,0.62
0.67,-0.55,0.61
0.69,-0.56,0.61
0.71,-0.56,0.61
0.75,-0.57,0.63
0.82,-0.6,0.68
0.87,-0.61,0.75
0.85,-0.59,0.78
0.77,-0.59,0.7
0.68,-0.6,0.52
0.58,-0.7,0.46
0.63,-0.76,0.42
0.68,-0.81,0.41
0.7,-0.87,0.41
0.69,-0.93,0.42
0.69,-0.99,0.44
0.74,-1.05,0.44
0.8,-1.09,0.44
0.81,-1.14,0.43
0.78,-1.19,0.41
0.74,-1.21,0.38
0.71,-1.21,0.34
0.68,-1.2,0.31
0.67,-1.19,0.28
0.68,-1.18,0.25
0.69,-1.17,0.24
0.67,-1.16,0.23
0.65,-1.14,0.2
0.64,-1.13,0.17
0.63,-1.12,0.15
0.6,-1.1,0.14
0.57,-1.09,0.13
0.58,-1.07,0.1
0.56,-1.06,0.07
0.5,-1.05,0.05
0.49,-1.02,0.03
0.54,-1.04,0.02
0.58,-1.01,-0.01
0.57,-0.97,-0.02
0.56,-0.96,-0.01
0.56,-0.98,-0.03
0.53,-0.97,-0.02
0.51,-0.93,-0.01
0.54,-0.9,-0.03
0.51,-0.87,-0.03
0.49,-0.83,-0.03
0.49,-0.8,-0.02
0.49,-0.76,-0.01
0.49,-0.72,0.01
0.48,-0.69,0.01
0.47,-0.65,0.01
0.45,-0.62,0.02
0.44,-0.61,0.02
0.42,-0.6,0.03
0.4,-0.58,0.02
0.38,-0.57,0.02
0.36,-0.56,0.02
0.33,-0.54,0.03
0.33,-0.53,0.04
0.34,-0.53,0.04
0.33,-0.53,0.02
0.31,-0.54,0.01
0.29,-0.56,0
0.31,-0.57,-0.01
0.33,-0.59,-0.02
0.32,-0.63,-0.01
0.31,-0.67,-0.01
0.32,-0.7,-0.01
0.34,-0.73,-0.01
0.35,-0.74,-0.02
0.35,-0.74,-0.03
0.35,-0.75,-0.04
0.35,-0.77,-0.05
0.33,-0.8,-0.05
0.3,-0.86,-0.04
0.29,-0.92,-0.02
0.3,-0.97,-0.01
0.3,-1.01,-0.01
0.3,-1.03,0
0.32,-1.06,0.01
0.34,-1.08,0.03
0.34,-1.08,0.04
0.33,-1.09,0.05
0.32,-1.07,0.05
0.31,-1.03,0.06
0.28,-1.01,0.09
0.26,-0.98,0.11
0.26,-0.98,0.1
0.25,-0.97,0.09
0.24,-0.97,0.07
0.27,-0.97,0.07
0.29,-0.98,0.05
0.29,-0.98,0.03
0.3,-0.99,0.02
0.32,-0.99,0.01
0.34,-0.99,0
0.34,-0.99,0
0.34,-0.99,-0.01
0.33,-0.99,-0.01
0.31,-0.98,-0.01
0.3,-0.98,0
0.3,-0.97,0
0.3,-0.96,0.01
0.3,-0.96,0.03
0.29,-0.97,0.04
0.29,-0.98,0.05
0.29,-0.98,0.05
0.28,-0.97,0.05
0.29,-0.97,0.05
0.31,-0.98,0.04
0.31,-0.98,0.04
0.33,-0.98,0.04
0.35,-0.98,0.03
0.35,-0.98,0.03
0.35,-0.98,0.04
0.33,-0.98,0.04
0.32,-0.98,0.05
0.32,-0.98,0.04
0.32,-0.98,0.04
0.32,-0.97,0.04
0.31,-0.96,0.04
0.31,-0.96,0.04
0.3,-0.97,0.04
0.29,-0.97,0.04
0.29,-0.97,0.04
0.28,-0.96,0.04
0.28,-0.96,0.04
0.3,-0.96,0.03
0.29,-0.96,0.03
0.29,-0.96,0.03
0.29,-0.97,0.02
0.3,-0.97,0.02
0.3,-0.96,0.02
0.3,-0.96,0.02
0.31,-0.95,0.03
0.31,-0.95,0.03
0.32,-0.96,0.03
0.32,-0.97,0.02
0.32,-0.97,0.02
0.32,-0.96,0.03
0.32,-0.96,0.03
0.33,-0.96,0.03
0.33,-0.96,0.04
0.33,-0.96,0.04
0.33,-0.97,0.04
0.33,-0.98,0.04
0.33,-0.97,0.04
0.33,-0.97,0.04
0.33,-0.96,0.05
0.32,-0.96,0.04
0.33,-0.96,0.04
0.33,-0.96,0.04
0.33,-0.97,0.04
0.33,-0.97,0.05
0.32,-0.96,0.04
0.32,-0.96,0.04
0.33,-0.96,0.04
0.33,-0.96,0.04
0.32,-0.97,0.03
0.31,-0.98,0.03
0.3,-0.97,0.03
0.31,-0.97,0.03
0.32,-0.96,0.03
0.32,-0.96,0.03
0.33,-0.96,0.04
0.33,-0.96,0.04
0.33,-0.98,0.04
0.33,-0.98,0.04
0.33,-0.98,0.05
0.34,-0.97,0.05
0.34,-0.97,0.06
0.34,-0.96,0.06
0.35,-0.95,0.06
0.36,-0.95,0.07
0.35,-0.96,0.07
0.35,-0.97,0.06
0.35,-0.97,0.06
0.35,-0.97,0.06
0.35,-0.97,0.05
0.35,-0.96,0.05
0.34,-0.96,0.05
0.34,-0.96,0.05
0.35,-0.97,0.05
0.35,-0.97,0.05
0.34,-0.97,0.04
0.34,-0.97,0.03
0.35,-0.97,0.03
0.34,-0.96,0.03
0.34,-0.95,0.03
0.34,-0.95,0.03
0.35,-0.94,0.03
0.37,-0.94,0.03
0.37,-0.94,0.04
0.38,-0.92,0.06
0.39,-0.93,0.04
0.38,-0.94,0.03
0.36,-0.94,0.04
0.34,-0.93,0.05
0.34,-0.92,0.06
0.31,-0.91,0.09
0.29,-0.89,0.12
0.28,-0.88,0.13
0.28,-0.88,0.13
0.28,-0.88,0.12
0.3,-0.86,0.09
0.33,-0.84,0.07
0.33,-0.83,0.07
0.32,-0.82,0.08
0.33,-0.8,0.09
0.32,-0.79,0.1
0.3,-0.76,0.12
0.29,-0.74,0.12
0.27,-0.72,0.13
0.24,-0.71,0.15
0.23,-0.72,0.16
0.25,-0.74,0.15
0.29,-0.74,0.13
0.32,-0.75,0.11
0.35,-0.74,0.11
0.36,-0.76,0.07
0.34,-0.78,0.07
0.29,-0.76,0.09
0.26,-0.74,0.1
0.26,-0.74,0.1
0.26,-0.74,0.11
0.28,-0.73,0.12
0.3,-0.72,0.12
0.33,-0.73,0.13
0.35,-0.77,0.15
0.39,-0.79,0.14
0.42,-0.8,0.14
0.4,-0.82,0.18
0.36,-0.81,0.23
0.33,-0.83,0.28
0.32,-0.85,0.34
0.34,-0.84,0.37
0.37,-0.86,0.38
0.38,-0.9,0.39
0.41,-0.91,0.39
0.41,-0.91,0.41
0.4,-0.9,0.43
0.42,-0.9,0.44
0.41,-0.9,0.45
0.36,-0.91,0.46
0.32,-0.9,0.46
0.3,-0.89,0.44
0.36,-0.87,0.44
0.39,-0.87,0.47
0.44,-0.87,0.51
0.51,-0.88,0.54
0.57,-0.87,0.56
0.59,-0.87,0.57
0.6,-0.87,0.58
0.61,-0.87,0.57
0.62,-0.87,0.57
0.61,-0.86,0.55
0.58,-0.82,0.55
0.57,-0.8,0.55
0.58,-0.8,0.58
0.6,-0.8,0.6
0.6,-0.8,0.61
0.62,-0.79,0.62
0.63,-0.79,0.64
0.61,-0.78,0.65
0.61,-0.78,0.67
0.63,-0.79,0.7
0.65,-0.81,0.72
0.69,-0.82,0.74
0.72,-0.84,0.78
0.73,-0.86,0.8
0.73,-0.86,0.81
0.75,-0.84,0.76
0.81,-0.77,0.72
0.84,-0.7,0.7
0.84,-0.62,0.69
0.83,-0.54,0.68
0.8,-0.46,0.68
0.78,-0.39,0.67
0.78,-0.33,0.66
0.75,-0.29,0.67
0.7,-0.25,0.69
0.63,-0.23,0.7
0.58,-0.22,0.7
0.53,-0.22,0.7
0.49,-0.23,0.71
0.47,-0.25,0.72
0.47,-0.26,0.73
0.47,-0.27,0.74
0.48,-0.29,0.75
0.48,-0.31,0.77
0.49,-0.34,0.79
0.51,-0.37,0.8
0.55,-0.41,0.8
0.58,-0.44,0.82
0.61,-0.46,0.82
0.63,-0.47,0.8
0.64,-0.49,0.79
0.65,-0.52,0.75
0.66,-0.53,0.73
0.65,-0.53,0.7
0.64,-0.53,0.68
0.61,-0.52,0.66
0.59,-0.5,0.65
0.57,-0.5,0.63
0.55,-0.5,0.63
0.54,-0.5,0.62
0.53,-0.51,0.62
0.52,-0.51,0.62
0.52,-0.52,0.62
0.54,-0.53,0.63
0.55,-0.54,0.64
0.56,-0.54,0.65
0.57,-0.53,0.66
0.58,-0.53,0.68
0.59,-0.52,0.68
0.61,-0.52,0.68
0.61,-0.52,0.68
0.62,-0.51,0.68
0.61,-0.5,0.68
0.61,-0.49,0.68
0.61,-0.48,0.68
0.6,-0.48,0.67
0.6,-0.47,0.66
0.61,-0.47,0.66
0.6,-0.47,0.65
0.6,-0.48,0.65
0.6,-0.49,0.65
0.6,-0.49,0.65
0.6,-0.49,0.66
0.6,-0.49,0.66
0.61,-0.49,0.66
0.61,-0.49,0.66
0.62,-0.49,0.66
0.62,-0.49,0.66
0.62,-0.48,0.66
0.62,-0.48,0.66
0.62,-0.47,0.66
0.61,-0.47,0.66
0.61,-0.47,0.66
0.61,-0.47,0.66
0.6,-0.47,0.66
0.6,-0.47,0.67
0.6,-0.47,0.67
0.6,-0.47,0.67
0.6,-0.47,0.67
0.6,-0.48,0.67
0.6,-0.48,0.67
0.6,-0.47,0.67
0.59,-0.47,0.67
0.59,-0.47,0.67
0.59,-0.47,0.67
0.6,-0.47,0.68
0.6,-0.47,0.68
0.6,-0.47,0.68
0.6,-0.48,0.68
0.6,-0.48,0.68
0.6,-0.48,0.68
0.61,-0.48,0.67
0.61,-0.48,0.66
0.61,-0.49,0.65
0.61,-0.49,0.65
0.61,-0.49,0.64
0.6,-0.5,0.64
0.61,-0.5,0.64
0.61,-0.51,0.64
0.61,-0.51,0.64
0.62,-0.51,0.64
0.62,-0.51,0.64
0.62,-0.51,0.65
0.62,-0.5,0.65
0.62,-0.5,0.65
0.61,-0.5,0.65
0.61,-0.5,0.65
0.61,-0.5,0.66
0.61,-0.49,0.66
0.61,-0.49,0.65
0.6,-0.47,0.65
0.58,-0.47,0.67
0.6,-0.48,0.66
0.61,-0.48,0.65
0.6,-0.48,0.66
0.61,-0.49,0.66
0.62,-0.49,0.65
0.63,-0.5,0.66
0.62,-0.49,0.66
0.61,-0.48,0.66
0.6,-0.47,0.66
0.61,-0.46,0.66
0.61,-0.46,0.64
0.61,-0.45,0.64
0.61,-0.45,0.65
0.62,-0.45,0.66
0.62,-0.44,0.67
0.61,-0.44,0.68
0.61,-0.44,0.68
0.62,-0.44,0.69
0.61,-0.44,0.7
0.6,-0.42,0.7
0.6,-0.4,0.7
0.61,-0.38,0.69
0.6,-0.37,0.68
0.6,-0.36,0.68
0.62,-0.34,0.68
0.64,-0.34,0.68
0.65,-0.35,0.68
0.65,-0.35,0.68
0.66,-0.37,0.68
0.66,-0.37,0.67
0.67,-0.37,0.66
0.67,-0.38,0.66
0.67,-0.38,0.65
0.68,-0.41,0.65
0.67,-0.42,0.66
0.67,-0.45,0.66
0.7,-0.48,0.68
0.74,-0.5,0.71
0.79,-0.53,0.75
0.83,-0.56,0.81
0.86,-0.57,0.84
0.85,-0.56,0.81
0.79,-0.52,0.72
0.69,-0.49,0.6
0.64,-0.5,0.52
0.64,-0.54,0.49
0.63,-0.58,0.47
0.62,-0.63,0.44
0.66,-0.71,0.45
0.71,-0.8,0.47
0.75,-0.86,0.47
0.8,-0.95,0.46
0.8,-0.99,0.45
0.79,-1.04,0.43
0.75,-1.08,0.42
0.67,-1.11,0.41
0.61,-1.14,0.39
0.56,-1.16,0.38
0.53,-1.18,0.37
0.52,-1.19,0.35
0.52,-1.22,0.34
0.52,-1.23,0.32
0.53,-1.21,0.31
0.52,-1.26,0.28
0.51,-1.28,0.27
0.5,-1.25,0.26
0.5,-1.24,0.26
0.48,-1.22,0.27
0.46,-1.2,0.27
0.46,-1.16,0.25
0.46,-1.13,0.23
0.45,-1.12,0.22
0.45,-1.1,0.21
0.45,-1.09,0.2
0.44,-1.12,0.18
0.44,-1.07,0.16
0.44,-0.97,0.12
0.43,-0.98,0.11
0.44,-0.93,0.11
0.42,-0.89,0.09
0.42,-0.85,0.07
0.42,-0.81,0.06
0.4,-0.78,0.06
0.4,-0.75,0.04
0.39,-0.71,0.04
0.38,-0.68,0.04
0.37,-0.65,0.04
0.37,-0.62,0.04
0.36,-0.61,0.03
0.33,-0.59,0.02
0.31,-0.58,0.02
0.3,-0.57,0.03
0.3,-0.57,0.04
0.29,-0.57,0.05
0.27,-0.57,0.06
0.26,-0.58,0.06
0.26,-0.59,0.06
0.26,-0.6,0.05
0.27,-0.62,0.04
0.27,-0.63,0.04
0.27,-0.66,0.05
0.27,-0.69,0.06
0.28,-0.72,0.07
0.28,-0.78,0.09
0.25,-0.8,0.09
0.23,-0.82,0.1
0.23,-0.84,0.1
0.22,-0.86,0.11
0.22,-0.88,0.12
0.23,-0.9,0.12
0.26,-0.92,0.11
0.29,-0.93,0.12
0.3,-0.93,0.12
0.32,-0.93,0.12
0.33,-0.93,0.13
0.34,-0.93,0.16
0.34,-0.94,0.18
0.33,-0.94,0.2
0.33,-0.94,0.2
0.32,-0.95,0.2
0.32,-0.95,0.19
0.31,-0.95,0.18
0.32,-0.94,0.17
0.33,-0.93,0.15
0.35,-0.93,0.14
0.36,-0.93,0.13
0.37,-0.93,0.13
0.37,-0.94,0.12
0.37,-0.96,0.11
0.36,-0.97,0.09
0.37,-0.97,0.09
0.37,-0.97,0.09
0.36,-0.97,0.09
0.35,-0.97,0.1
0.34,-0.97,0.1
0.33,-0.97,0.11
0.31,-0.98,0.11
0.3,-0.98,0.12
0.29,-0.98,0.13
0.29,-0.98,0.13
0.29,-0.99,0.13
0.29,-1,0.12
0.28,-0.99,0.12
0.28,-0.99,0.12
0.27,-0.98,0.12
0.28,-0.97,0.12
0.28,-0.97,0.12
0.28,-0.96,0.13
0.28,-0.97,0.13
0.27,-0.97,0.13
0.26,-0.97,0.12
0.25,-0.97,0.12
0.26,-0.97,0.12
0.26,-0.97,0.12
0.26,-0.97,0.12
0.26,-0.96,0.11
0.27,-0.96,0.1
0.28,-0.96,0.1
0.29,-0.95,0.1
0.3,-0.96,0.11
0.32,-0.96,0.11
0.33,-0.97,0.11
0.34,-0.97,0.11
0.35,-0.97,0.11
0.35,-0.96,0.11
0.35,-0.95,0.11
0.36,-0.94,0.11
0.36,-0.93,0.11
0.36,-0.92,0.12
0.35,-0.92,0.13
0.35,-0.93,0.13
0.35,-0.94,0.12
0.34,-0.95,0.11
0.34,-0.96,0.11
0.34,-0.96,0.1
0.34,-0.96,0.1
0.35,-0.96,0.1
0.35,-0.96,0.11
0.34,-0.96,0.11
0.34,-0.96,0.11
0.34,-0.96,0.11
0.33,-0.96,0.11
0.32,-0.96,0.11
0.32,-0.96,0.11
0.32,-0.96,0.11
0.32,-0.96,0.11
0.33,-0.96,0.11
0.33,-0.96,0.11
0.32,-0.96,0.11
0.33,-0.96,0.11
0.33,-0.96,0.11
0.34,-0.96,0.11
0.34,-0.96,0.11
0.34,-0.96,0.11
0.34,-0.96,0.11
0.34,-0.96,0.1
0.35,-0.96,0.1
0.34,-0.96,0.1
0.34,-0.96,0.1
0.34,-0.96,0.1
0.34,-0.95,0.11
0.34,-0.94,0.11
0.34,-0.94,0.11
0.34,-0.94,0.12
0.33,-0.95,0.12
0.33,-0.95,0.11
0.33,-0.95,0.11
0.33,-0.96,0.11
0.33,-0.96,0.11
0.34,-0.97,0.11
0.35,-0.96,0.11
0.35,-0.97,0.11
0.34,-0.97,0.11
0.34,-0.96,0.1
0.34,-0.96,0.1
0.34,-0.95,0.1
0.33,-0.95,0.1
0.33,-0.95,0.1
0.33,-0.95,0.11
0.33,-0.96,0.11
0.33,-0.96,0.11
0.33,-0.96,0.11
0.33,-0.96,0.1
0.33,-0.96,0.1
0.33,-0.95,0.11
0.34,-0.94,0.11
0.35,-0.94,0.11
0.35,-0.94,0.11
0.35,-0.95,0.11
0.36,-0.96,0.11
0.36,-0.95,0.1
0.36,-0.96,0.1
0.36,-0.96,0.11
0.35,-0.95,0.12
0.34,-0.96,0.12
0.33,-0.97,0.12
0.33,-0.98,0.11
0.33,-0.97,0.1
0.35,-0.97,0.09
0.36,-0.97,0.07
0.35,-0.97,0.07
0.33,-0.97,0.08
0.32,-0.97,0.09
0.34,-0.96,0.1
0.34,-0.95,0.1
0.33,-0.95,0.11
0.32,-0.96,0.12
0.31,-0.97,0.13
0.31,-0.97,0.12
0.32,-0.97,0.12
0.32,-0.96,0.11
0.31,-0.94,0.11
0.3,-0.94,0.11
0.29,-0.93,0.12
0.29,-0.91,0.13
0.28,-0.9,0.14
0.28,-0.9,0.15
0.28,-0.89,0.16
0.26,-0.89,0.17
0.26,-0.88,0.18
0.27,-0.86,0.17
0.27,-0.85,0.16
0.3,-0.85,0.14
0.33,-0.85,0.1
0.36,-0.84,0.09
0.35,-0.84,0.11
0.32,-0.83,0.13
0.3,-0.83,0.14
0.29,-0.84,0.14
0.3,-0.85,0.12
0.3,-0.85,0.12
0.26,-0.86,0.14
0.25,-0.87,0.14
0.27,-0.87,0.14
0.3,-0.87,0.13
0.32,-0.87,0.12
0.33,-0.87,0.12
0.32,-0.87,0.13
0.32,-0.87,0.14
0.31,-0.87,0.14
0.31,-0.87,0.15
0.29,-0.88,0.17
0.28,-0.88,0.17
0.27,-0.88,0.18
0.26,-0.87,0.2
0.26,-0.86,0.21
0.26,-0.86,0.23
0.26,-0.85,0.23
0.26,-0.85,0.22
0.26,-0.86,0.22
0.27,-0.85,0.23
0.29,-0.84,0.24
0.29,-0.85,0.25
0.29,-0.84,0.25
0.29,-0.83,0.26
0.29,-0.82,0.27
0.29,-0.81,0.28
0.3,-0.8,0.27
0.3,-0.8,0.26
0.3,-0.81,0.28
0.32,-0.8,0.28
0.36,-0.78,0.26
0.39,-0.78,0.25
0.39,-0.78,0.26
0.38,-0.78,0.28
0.39,-0.8,0.31
0.36,-0.81,0.34
0.33,-0.83,0.37
0.36,-0.83,0.38
0.37,-0.82,0.36
0.38,-0.82,0.35
0.39,-0.84,0.35
0.4,-0.84,0.37
0.44,-0.81,0.38
0.42,-0.84,0.4
0.38,-0.85,0.42
0.38,-0.85,0.46
0.4,-0.85,0.48
0.43,-0.86,0.5
0.48,-0.87,0.51
0.53,-0.87,0.51
0.58,-0.88,0.5
0.6,-0.89,0.51
0.62,-0.89,0.53
0.65,-0.89,0.53
0.66,-0.88,0.52
0.63,-0.87,0.51
0.62,-0.87,0.51
0.64,-0.86,0.52
0.68,-0.86,0.54
0.71,-0.88,0.57
0.71,-0.89,0.58
0.72,-0.87,0.57
0.72,-0.85,0.58
0.72,-0.86,0.6
0.75,-0.89,0.64
0.79,-0.91,0.68
0.79,-0.94,0.72
0.79,-0.95,0.74
0.73,-0.89,0.77
0.7,-0.8,0.8
0.68,-0.71,0.79
0.67,-0.62,0.75
0.65,-0.55,0.71
0.64,-0.49,0.7
0.63,-0.42,0.69
0.64,-0.36,0.65
0.65,-0.29,0.62
0.66,-0.24,0.59
0.67,-0.22,0.56
0.68,-0.21,0.57
0.67,-0.2,0.59
0.68,-0.2,0.63
0.68,-0.2,0.67
0.65,-0.21,0.72
0.63,-0.23,0.76
0.61,-0.24,0.8
0.59,-0.25,0.83
0.57,-0.26,0.85
0.59,-0.29,0.83
0.62,-0.33,0.81
0.66,-0.36,0.79
0.69,-0.39,0.77
0.72,-0.42,0.76
0.72,-0.43,0.76
0.67,-0.45,0.77
0.64,-0.45,0.77
0.61,-0.45,0.76
0.58,-0.45,0.76
0.55,-0.44,0.75
0.54,-0.44,0.73
0.52,-0.44,0.71
0.51,-0.44,0.69
0.5,-0.43,0.66
0.49,-0.42,0.65
0.49,-0.42,0.64
0.49,-0.41,0.64
0.5,-0.41,0.65
0.51,-0.4,0.65
0.52,-0.41,0.65
0.53,-0.41,0.66
0.55,-0.42,0.67
0.57,-0.43,0.69
0.6,-0.44,0.71
0.63,-0.43,0.72
0.65,-0.43,0.73
0.68,-0.43,0.73
0.71,-0.43,0.73
0.73,-0.44,0.73
0.75,-0.45,0.72
0.76,-0.46,0.7
0.72,-0.47,0.68
0.67,-0.47,0.68
0.61,-0.46,0.67
0.56,-0.44,0.66
0.52,-0.43,0.65
0.5,-0.41,0.65
0.5,-0.41,0.65
0.52,-0.42,0.65
0.56,-0.42,0.66
0.59,-0.44,0.67
0.62,-0.45,0.68
0.63,-0.45,0.7
0.64,-0.46,0.71
0.64,-0.47,0.72
0.63,-0.48,0.72
0.62,-0.48,0.72
0.61,-0.48,0.71
0.58,-0.48,0.7
0.57,-0.48,0.7
0.57,-0.47,0.68
0.57,-0.46,0.67
0.58,-0.45,0.66
0.59,-0.45,0.66
0.6,-0.45,0.67
0.61,-0.45,0.68
0.62,-0.46,0.69
0.61,-0.46,0.7
0.61,-0.47,0.69
0.6,-0.47,0.69
0.6,-0.47,0.68
0.6,-0.46,0.68
0.6,-0.46,0.68
0.6,-0.46,0.67
0.6,-0.46,0.67
0.6,-0.46,0.67
0.6,-0.46,0.67
0.6,-0.45,0.68
0.6,-0.45,0.68
0.6,-0.45,0.68
0.61,-0.45,0.69
0.61,-0.45,0.69
0.6,-0.45,0.69
0.6,-0.45,0.69
0.61,-0.45,0.69
0.6,-0.46,0.69
0.6,-0.46,0.69
0.6,-0.46,0.68
0.6,-0.46,0.68
0.6,-0.45,0.67
0.61,-0.45,0.67
0.61,-0.46,0.67
0.61,-0.46,0.67
0.61,-0.46,0.67
0.61,-0.47,0.67
0.61,-0.47,0.67
0.61,-0.47,0.67
0.6,-0.47,0.67
0.6,-0.46,0.67
0.61,-0.46,0.67
0.61,-0.46,0.67
0.61,-0.46,0.67
0.61,-0.46,0.67
0.62,-0.46,0.67
0.62,-0.46,0.67
0.63,-0.46,0.67
0.62,-0.45,0.66
0.61,-0.45,0.67
0.6,-0.45,0.68
0.62,-0.45,0.67
0.63,-0.45,0.66
0.62,-0.44,0.66
0.61,-0.44,0.66
0.62,-0.44,0.66
0.62,-0.43,0.66
0.62,-0.43,0.67
0.62,-0.44,0.67
0.62,-0.44,0.68
0.62,-0.43,0.68
0.62,-0.43,0.67
0.63,-0.44,0.66
0.61,-0.44,0.66
0.6,-0.43,0.68
0.61,-0.42,0.67
0.61,-0.42,0.66
0.62,-0.42,0.66
0.63,-0.4,0.67
0.64,-0.41,0.67
0.64,-0.42,0.66
0.64,-0.41,0.67
0.64,-0.42,0.67
0.63,-0.41,0.66
0.62,-0.39,0.65
0.62,-0.39,0.64
0.62,-0.4,0.65
0.63,-0.41,0.66
0.64,-0.41,0.67
0.65,-0.41,0.67
0.66,-0.42,0.67
0.67,-0.41,0.67
0.66,-0.41,0.67
0.65,-0.41,0.66
0.65,-0.41,0.65
0.65,-0.41,0.65
0.66,-0.42,0.65
0.67,-0.42,0.65
0.68,-0.41,0.64
0.67,-0.41,0.64
0.68,-0.42,0.64
0.69,-0.43,0.65
0.7,-0.44,0.67
0.71,-0.45,0.7
0.73,-0.44,0.72
0.73,-0.43,0.71
0.73,-0.45,0.71
0.74,-0.46,0.72
0.74,-0.47,0.72
0.75,-0.48,0.73
0.76,-0.48,0.73
0.74,-0.47,0.72
0.69,-0.46,0.66
0.67,-0.45,0.61
0.69,-0.47,0.58
0.71,-0.49,0.57
0.73,-0.52,0.54
0.73,-0.55,0.52
0.72,-0.58,0.51
0.72,-0.61,0.5
0.74,-0.65,0.49
0.76,-0.7,0.48
0.78,-0.74,0.47
0.78,-0.79,0.45
0.76,-0.88,0.44
0.75,-0.92,0.45
0.72,-0.92,0.46
0.69,-0.92,0.47
0.66,-0.92,0.47
0.65,-0.94,0.46
0.63,-0.98,0.46
0.61,-1.04,0.46
0.58,-1.09,0.46
0.57,-1.1,0.46
0.58,-1.12,0.43
0.6,-1.13,0.4
0.59,-1.14,0.39
0.58,-1.15,0.38
0.57,-1.15,0.37
0.56,-1.14,0.37
0.54,-1.12,0.37
0.53,-1.09,0.37
0.52,-1.06,0.36
0.51,-1.04,0.36
0.49,-1.03,0.36
0.48,-1.02,0.36
0.48,-1,0.35
0.47,-0.99,0.35
0.48,-0.98,0.35
0.48,-0.97,0.32
0.48,-0.92,0.29
0.47,-0.9,0.28
0.46,-0.88,0.28
0.45,-0.86,0.27
0.39,-0.87,0.25
0.36,-0.84,0.23
0.39,-0.78,0.22
0.4,-0.78,0.19
0.4,-0.79,0.16
0.39,-0.78,0.15
0.38,-0.78,0.14
0.37,-0.78,0.12
0.36,-0.77,0.11
0.37,-0.77,0.1
0.37,-0.76,0.09
0.37,-0.75,0.09
0.36,-0.75,0.08
0.36,-0.75,0.09
0.35,-0.75,0.09
0.34,-0.74,0.09
0.34,-0.73,0.08
0.33,-0.72,0.06
0.32,-0.72,0.04
0.33,-0.72,0.02
0.34,-0.72,0.01
0.33,-0.7,0.01
0.31,-0.69,0
0.29,-0.67,0.01
0.27,-0.66,0.02
0.26,-0.66,0.04
0.26,-0.67,0.03
0.27,-0.7,0.03
0.27,-0.73,0.03
0.26,-0.74,0.03
0.24,-0.74,0.03
0.23,-0.75,0.02
0.24,-0.76,0.01
0.24,-0.78,0.01
0.24,-0.79,0.01
0.25,-0.81,0.01
0.27,-0.84,0.01
0.29,-0.87,0.02
0.3,-0.89,0.04
0.3,-0.91,0.04
0.32,-0.94,0.04
0.34,-0.97,0.03
0.33,-0.98,0.05
0.33,-0.99,0.06
0.36,-1.03,0.05
0.36,-1.04,0.05
0.36,-1.04,0.06
0.37,-1.03,0.07
0.38,-1.03,0.12
0.35,-1.02,0.14
0.33,-1.01,0.16
0.31,-1.01,0.17
0.29,-1.01,0.15
0.28,-1.01,0.13
0.27,-1,0.1
0.28,-1,0.07
0.25,-0.99,0.06
0.25,-0.98,0.05
0.26,-0.98,0.04
0.26,-0.99,0.03
0.27,-1,0.02
0.26,-1,0.01
0.25,-0.98,0.01
0.24,-0.98,0.01
0.23,-0.99,0.01
0.22,-0.99,0.02
0.21,-1,0.02
0.2,-1,0.03
0.2,-1,0.05
0.18,-1,0.07
0.18,-0.99,0.08
0.2,-0.99,0.08
0.22,-1,0.07
0.22,-0.98,0.07
0.24,-0.98,0.07
0.26,-0.99,0.07
0.27,-0.99,0.07
0.27,-0.99,0.06
0.27,-0.99,0.05
0.27,-0.99,0.05
0.26,-0.98,0.05
0.26,-0.98,0.05
0.25,-0.97,0.05
0.26,-0.98,0.05
0.25,-0.98,0.05
0.25,-0.99,0.05
0.24,-1.01,0.05
0.24,-1.01,0.05
0.24,-1.02,0.05
0.24,-1.02,0.05
0.24,-1.02,0.06
0.25,-1.02,0.06
0.25,-1.01,0.06
0.24,-1,0.06
0.23,-0.98,0.06
0.22,-0.97,0.06
0.23,-0.97,0.06
0.23,-0.96,0.06
0.22,-0.97,0.06
0.22,-0.97,0.05
0.22,-0.97,0.07
0.21,-0.99,0.07
0.21,-0.99,0.06
0.21,-0.98,0.06
0.21,-0.99,0.06
0.21,-0.99,0.04
0.22,-1,0.03
0.23,-1,0.03
0.24,-1,0.05
0.24,-1,0.06
0.24,-1,0.06
0.25,-0.99,0.06
0.25,-0.98,0.06
0.25,-0.98,0.06
0.24,-0.98,0.06
0.24,-0.98,0.06
0.24,-0.98,0.06
0.24,-0.98,0.06
0.25,-0.99,0.06
0.25,-0.99,0.06
0.26,-0.99,0.06
0.25,-1,0.06
0.26,-0.99,0.06
0.26,-0.99,0.06
0.26,-0.99,0.05
0.27,-0.99,0.05
0.27,-0.99,0.05
0.28,-0.99,0.06
0.29,-0.98,0.06
0.29,-0.98,0.06
0.29,-1,0.05
0.29,-1.01,0.05
0.28,-1.01,0.05
0.29,-1,0.06
0.29,-0.99,0.06
0.28,-0.99,0.06
0.28,-0.99,0.07
0.29,-0.98,0.07
0.29,-0.98,0.07
0.29,-0.97,0.07
0.3,-0.96,0.07
0.3,-0.95,0.08
0.28,-0.96,0.09
0.3,-0.96,0.08
0.32,-0.96,0.07
0.31,-0.96,0.07
0.31,-0.96,0.06
0.33,-0.97,0.06
0.33,-0.96,0.07
0.32,-0.96,0.07
0.32,-0.98,0.06
0.27,-1.01,0.04
0.27,-1,0.04
0.31,-0.97,0.05
0.3,-0.96,0.06
0.31,-0.95,0.06
0.31,-0.94,0.08
0.31,-0.93,0.08
0.28,-0.93,0.09
0.26,-0.93,0.1
0.25,-0.93,0.1
0.23,-0.92,0.1
0.22,-0.92,0.1
0.23,-0.92,0.1
0.24,-0.91,0.09
0.26,-0.9,0.07
0.29,-0.9,0.06
0.32,-0.89,0.05
0.33,-0.88,0.05
0.3,-0.87,0.06
0.28,-0.87,0.07
0.27,-0.87,0.06
0.28,-0.87,0.05
0.28,-0.87,0.05
0.26,-0.88,0.05
0.24,-0.88,0.05
0.24,-0.86,0.06
0.26,-0.85,0.07
0.26,-0.84,0.1
0.25,-0.84,0.17
0.23,-0.83,0.19
0.24,-0.83,0.2
0.25,-0.84,0.2
0.27,-0.84,0.2
0.29,-0.84,0.19
0.32,-0.84,0.2
0.34,-0.83,0.22
0.35,-0.83,0.24
0.36,-0.82,0.23
0.35,-0.82,0.21
0.32,-0.83,0.22
0.28,-0.85,0.24
0.26,-0.86,0.25
0.24,-0.86,0.26
0.24,-0.88,0.25
0.24,-0.87,0.24
0.24,-0.85,0.21
0.24,-0.85,0.2
0.24,-0.84,0.21
0.26,-0.82,0.24
0.26,-0.81,0.25
0.24,-0.82,0.26
0.22,-0.83,0.26
0.22,-0.83,0.26
0.22,-0.83,0.29
0.25,-0.83,0.35
0.31,-0.81,0.36
0.32,-0.81,0.35
0.34,-0.82,0.34
0.35,-0.84,0.34
0.37,-0.86,0.34
0.38,-0.87,0.36
0.38,-0.89,0.36
0.39,-0.88,0.35
0.42,-0.88,0.34
0.44,-0.87,0.33
0.47,-0.87,0.32
0.49,-0.88,0.33
0.48,-0.9,0.35
0.47,-0.91,0.38
0.47,-0.91,0.41
0.48,-0.9,0.41
0.47,-0.91,0.41
0.47,-0.91,0.4
0.49,-0.91,0.4
0.47,-0.91,0.4
0.45,-0.91,0.4
0.46,-0.91,0.38
0.49,-0.92,0.36
0.6,-0.94,0.36
0.67,-0.94,0.41
0.65,-0.92,0.47
0.66,-0.91,0.46
0.66,-0.89,0.45
0.65,-0.88,0.44
0.64,-0.87,0.44
0.63,-0.86,0.45
0.63,-0.87,0.45
0.63,-0.87,0.47
0.65,-0.86,0.47
0.7,-0.87,0.47
0.74,-0.88,0.48
0.78,-0.88,0.49
0.8,-0.9,0.5
0.78,-0.9,0.52
0.75,-0.91,0.54
0.7,-0.91,0.54
0.66,-0.89,0.56
0.64,-0.84,0.6
0.65,-0.76,0.64
0.67,-0.68,0.65
0.67,-0.63,0.66
0.67,-0.59,0.66
0.67,-0.55,0.67
0.66,-0.49,0.68
0.66,-0.44,0.64
0.67,-0.4,0.61
0.67,-0.35,0.62
0.68,-0.32,0.66
0.66,-0.33,0.7
0.62,-0.33,0.74
0.55,-0.33,0.78
0.5,-0.34,0.8
0.48,-0.33,0.81
0.48,-0.34,0.81
0.49,-0.34,0.8
0.51,-0.35,0.8
0.52,-0.36,0.81
0.55,-0.39,0.8
0.58,-0.43,0.77
0.58,-0.46,0.74
0.56,-0.49,0.73
0.55,-0.52,0.72
0.55,-0.53,0.69
0.55,-0.54,0.64
0.58,-0.55,0.6
0.61,-0.57,0.59
0.64,-0.59,0.6
0.67,-0.6,0.61
0.67,-0.61,0.62
0.63,-0.6,0.61
0.6,-0.6,0.61
0.56,-0.61,0.62
0.51,-0.61,0.63
0.48,-0.61,0.63
0.49,-0.61,0.63
0.5,-0.61,0.64
0.51,-0.61,0.65
0.53,-0.6,0.66
0.54,-0.6,0.66
0.54,-0.6,0.66
0.54,-0.6,0.65
0.54,-0.61,0.64
0.55,-0.61,0.63
0.56,-0.6,0.63
0.56,-0.6,0.62
0.57,-0.6,0.61
0.58,-0.6,0.61
0.59,-0.6,0.61
0.6,-0.59,0.61
0.58,-0.59,0.61
0.58,-0.59,0.62
0.59,-0.58,0.61
0.58,-0.58,0.6
0.57,-0.57,0.6
0.56,-0.58,0.6
0.55,-0.57,0.61
0.55,-0.57,0.61
0.56,-0.57,0.61
0.57,-0.57,0.61
0.57,-0.57,0.62
0.57,-0.58,0.63
0.57,-0.58,0.63
0.57,-0.58,0.63
0.56,-0.57,0.63
0.56,-0.57,0.62
0.57,-0.56,0.63
0.58,-0.56,0.63
0.58,-0.55,0.63
0.58,-0.55,0.63
0.57,-0.54,0.63
0.56,-0.54,0.63
0.56,-0.54,0.64
0.56,-0.55,0.64
0.56,-0.55,0.64
0.56,-0.55,0.64
0.57,-0.56,0.64
0.57,-0.57,0.63
0.57,-0.57,0.63
0.57,-0.57,0.63
0.57,-0.57,0.63
0.57,-0.57,0.62
0.57,-0.58,0.62
0.56,-0.58,0.62
0.55,-0.57,0.62
0.54,-0.58,0.62
0.56,-0.58,0.62
0.57,-0.58,0.63
0.58,-0.57,0.62
0.58,-0.57,0.62
0.57,-0.57,0.63
0.57,-0.57,0.61
0.58,-0.58,0.6
0.59,-0.58,0.6
0.58,-0.59,0.6
0.58,-0.59,0.61
0.58,-0.59,0.62
0.57,-0.59,0.62
0.57,-0.59,0.61
0.57,-0.59,0.62
0.57,-0.59,0.62
0.56,-0.59,0.62
0.56,-0.59,0.61
0.56,-0.59,0.61
0.56,-0.58,0.62
0.57,-0.58,0.62
0.58,-0.58,0.62
0.58,-0.57,0.62
0.58,-0.57,0.61
0.58,-0.57,0.61
0.58,-0.57,0.62
0.58,-0.56,0.62
0.59,-0.56,0.62
0.58,-0.56,0.61
0.58,-0.57,0.61
0.58,-0.57,0.6
0.58,-0.57,0.61
0.59,-0.56,0.61
0.59,-0.57,0.61
0.59,-0.57,0.61
0.59,-0.57,0.6
0.59,-0.56,0.59
0.59,-0.56,0.59
0.59,-0.56,0.6
0.6,-0.55,0.6
0.61,-0.55,0.6
0.61,-0.54,0.6
0.61,-0.54,0.61
0.61,-0.53,0.62
0.61,-0.53,0.62
0.61,-0.52,0.62
0.6,-0.51,0.62
0.59,-0.51,0.63
0.59,-0.52,0.64
0.61,-0.5,0.63
0.59,-0.48,0.63
0.57,-0.48,0.65
0.59,-0.47,0.66
0.6,-0.46,0.65
0.63,-0.44,0.65
0.63,-0.43,0.64
0.63,-0.43,0.63
0.63,-0.43,0.63
0.65,-0.42,0.62
0.67,-0.42,0.63
0.68,-0.42,0.63
0.69,-0.43,0.63
0.69,-0.43,0.62
0.69,-0.43,0.61
0.67,-0.43,0.6
0.67,-0.42,0.61
0.66,-0.42,0.63
0.66,-0.43,0.65
0.66,-0.44,0.66
0.66,-0.45,0.67
0.65,-0.45,0.67
0.64,-0.46,0.67
0.65,-0.47,0.67
0.66,-0.48,0.67
0.68,-0.49,0.67
0.71,-0.51,0.69
0.76,-0.54,0.74
0.82,-0.59,0.78
0.87,-0.62,0.82
0.87,-0.62,0.73
0.72,-0.54,0.6
0.69,-0.51,0.49
0.73,-0.52,0.46
0.8,-0.57,0.49
0.82,-0.61,0.48
0.77,-0.62,0.43
0.79,-0.65,0.43
0.85,-0.71,0.44
0.86,-0.73,0.41
0.85,-0.75,0.4
0.83,-0.78,0.4
0.8,-0.81,0.41
0.78,-0.85,0.43
0.76,-0.9,0.45
0.73,-0.96,0.45
0.68,-1.01,0.43
0.63,-1.06,0.39
0.6,-1.11,0.37
0.6,-1.14,0.36
0.62,-1.15,0.36
0.62,-1.15,0.37
0.6,-1.16,0.38
0.59,-1.15,0.38
0.57,-1.14,0.38
0.55,-1.14,0.39
0.55,-1.11,0.39
0.53,-1.05,0.39
0.47,-1.03,0.39
0.47,-1,0.37
0.46,-0.97,0.36
0.46,-0.96,0.34
0.48,-0.95,0.3
0.46,-0.93,0.29
0.42,-0.96,0.3
0.42,-0.93,0.28
0.46,-0.88,0.24
0.45,-0.88,0.23
0.42,-0.87,0.22
0.41,-0.85,0.2
0.4,-0.84,0.18
0.37,-0.83,0.15
0.36,-0.82,0.12
0.35,-0.79,0.1
0.34,-0.78,0.1
0.34,-0.76,0.08
0.34,-0.73,0.07
0.34,-0.72,0.06
0.35,-0.71,0.05
0.33,-0.7,0.05
0.3,-0.69,0.05
0.29,-0.67,0.02
0.29,-0.67,0
0.28,-0.67,-0.01
0.27,-0.69,-0.02
0.27,-0.7,-0.04
0.27,-0.72,-0.05
0.29,-0.75,-0.05
0.32,-0.76,-0.06
0.32,-0.76,-0.06
0.31,-0.76,-0.06
0.29,-0.76,-0.06
0.29,-0.75,-0.06
0.29,-0.76,-0.06
0.3,-0.76,-0.03
0.3,-0.77,-0.02
0.28,-0.78,-0.02
0.28,-0.78,-0.02
0.27,-0.8,-0.02
0.28,-0.82,-0.03
0.31,-0.83,-0.03
0.31,-0.83,-0.02
0.31,-0.83,-0.01
0.32,-0.83,0
0.32,-0.85,0.02
0.32,-0.88,0.03
0.33,-0.89,0.04
0.34,-0.91,0.04
0.35,-0.94,0.03
0.35,-0.95,0.01
0.37,-0.98,0.01
0.37,-0.99,0.01
0.36,-0.99,0.02
0.37,-1,0.02
0.38,-1.01,0.01
0.38,-1,0.02
0.38,-1,0.02
0.39,-1,0.03
0.38,-0.99,0.04
0.38,-0.99,0.05
0.36,-0.98,0.05
0.34,-0.97,0.05
0.34,-0.97,0.06
0.32,-0.97,0.05
0.31,-0.97,0.04
0.29,-0.97,0.04
0.27,-0.97,0.04
0.26,-0.98,0.04
0.23,-0.98,0.04
0.23,-0.99,0.03
0.23,-0.99,0.02
0.23,-0.99,0.01
0.24,-1,0.01
0.25,-0.99,0
0.25,-0.99,-0.01
0.24,-0.99,0
0.24,-0.99,-0.01
0.24,-1,-0.01
0.22,-1,0
0.22,-0.99,0.01
0.22,-0.99,0.01
0.22,-0.98,0.01
0.21,-0.98,0.01
0.21,-0.98,0.02
0.21,-0.97,0.02
0.21,-0.97,0.02
0.22,-0.97,0.01
0.21,-0.98,0.01
0.22,-0.98,0.02
0.22,-0.98,0.02
0.22,-0.99,0.02
0.21,-1,0.02
0.21,-0.99,0.02
0.22,-0.99,0.02
0.23,-0.98,0.03
0.23,-0.98,0.03
0.23,-0.98,0.03
0.23,-0.98,0.03
0.23,-0.98,0.04
0.24,-0.99,0.03
0.24,-0.99,0.04
0.24,-0.99,0.04
0.25,-0.99,0.03
0.25,-0.99,0.03
0.26,-0.99,0.02
0.26,-0.99,0.01
0.27,-0.98,0.01
0.27,-0.98,0.01
0.28,-0.98,0.01
0.29,-0.98,0.02
0.29,-0.98,0.02
0.29,-0.99,0.01
0.28,-0.99,0.01
0.28,-0.99,0.01
0.28,-0.98,0.01
0.28,-0.98,0.01
0.28,-0.98,0.01
0.28,-0.98,0.02
0.28,-0.98,0.02
0.27,-0.98,0.02
0.26,-0.98,0.02
0.26,-0.99,0.02
0.26,-0.99,0.02
0.26,-0.99,0.01
0.25,-0.99,0.02
0.26,-0.99,0.03
0.27,-0.99,0.02
0.28,-0.98,0.02
0.28,-0.98,0.02
0.28,-0.98,0.01
0.28,-0.97,0.01
0.28,-0.97,0.01
0.28,-0.97,0.01
0.29,-0.97,0.01
0.29,-0.98,0.01
0.29,-0.99,0.01
0.28,-0.99,0.01
0.28,-0.99,0.02
0.28,-0.99,0.02
0.28,-0.98,0.01
0.28,-0.97,0.01
0.28,-0.97,0.02
0.27,-0.97,0.02
0.27,-0.97,0.02
0.27,-0.98,0.02
0.27,-0.99,0.02
0.27,-0.99,0.02
0.27,-0.99,0.02
0.26,-0.99,0.01
0.26,-0.99,0.01
0.27,-0.98,0.01
0.27,-0.98,0.02
0.27,-0.98,0.02
0.27,-0.98,0.02
0.27,-0.98,0.02
0.27,-0.98,0.02
0.27,-0.99,0.02
0.27,-0.99,0.01
0.26,-0.98,0.02
0.27,-0.98,0.02
0.27,-0.98,0.02
0.26,-0.98,0.02
0.26,-0.99,0.02
0.26,-0.98,0.01
0.27,-0.98,0.02
0.27,-0.98,0.02
0.27,-0.98,0.02
0.27,-0.98,0.02
0.28,-0.98,0.02
0.28,-0.98,0.02
0.27,-0.98,0.02
0.27,-0.98,0.02
0.26,-0.99,0.01
0.26,-0.99,0.01
0.26,-0.98,0.02
0.27,-0.98,0.02
0.27,-0.98,0.02
0.28,-0.98,0.02
0.28,-0.98,0.02
0.28,-0.99,0.02
0.29,-0.99,0.02
0.28,-0.98,0.02
0.28,-0.97,0.02
0.28,-0.97,0.02
0.28,-0.97,0.02
0.27,-0.97,0.02
0.27,-0.98,0.02
0.27,-0.98,0.02
0.27,-0.99,0.02
0.27,-0.99,0.02
0.27,-0.99,0.02
0.26,-1,0.02
0.27,-0.99,0.02
0.27,-0.99,0.02
0.27,-0.98,0.02
0.27,-0.97,0.02
0.28,-0.97,0.03
0.28,-0.97,0.03
0.28,-0.97,0.03
0.28,-0.98,0.03
0.28,-0.98,0.02
0.28,-0.98,0.02
0.28,-0.98,0.02
0.28,-0.98,0.02
0.29,-0.98,0.02
0.29,-0.98,0.02
0.29,-0.98,0.02
0.3,-0.98,0.02
0.3,-0.98,0.02
0.3,-0.98,0.02
0.3,-0.98,0.01
0.31,-0.97,0.01
0.33,-0.97,0.01
0.35,-0.97,0.01
0.36,-0.97,0.02
0.36,-0.97,0.02
0.36,-0.97,0.03
0.35,-0.98,0.03
0.34,-0.99,0.04
0.31,-1.01,0.05
0.26,-1.02,0.05
0.24,-1.02,0.06
0.23,-1.02,0.05
0.21,-1.01,0.06
0.22,-1,0.06
0.25,-0.99,0.05
0.23,-0.98,0.05
0.22,-0.98,0.06
0.24,-0.98,0.05
0.25,-0.97,0.05
0.24,-0.97,0.05
0.24,-0.97,0.04
0.23,-0.98,0.04
0.21,-0.98,0.04
0.22,-0.98,0.04
0.22,-0.98,0.04
0.23,-0.97,0.05
0.22,-0.97,0.04
0.21,-0.97,0.04
0.23,-0.97,0.04
0.25,-0.97,0.05
0.25,-0.96,0.07
0.26,-0.96,0.08
0.28,-0.96,0.07
0.29,-0.95,0.07
0.3,-0.94,0.08
0.3,-0.95,0.09
0.3,-0.97,0.08
0.31,-0.98,0.06
0.33,-0.98,0.04
0.34,-0.97,0.01
0.35,-0.96,-0.01
0.37,-0.95,-0.02
0.38,-0.95,-0.01
0.37,-0.95,0.01
0.34,-0.95,0.03
0.33,-0.95,0.03
0.32,-0.96,0.02
0.31,-0.96,0.02
0.3,-0.96,0.03
0.3,-0.95,0.04
0.32,-0.94,0.04
0.34,-0.93,0.05
0.34,-0.93,0.06
0.33,-0.92,0.08
0.33,-0.91,0.08
0.33,-0.92,0.1
0.31,-0.92,0.12
0.3,-0.91,0.14
0.29,-0.9,0.15
0.27,-0.92,0.15
0.25,-0.91,0.15
0.23,-0.91,0.17
0.24,-0.91,0.17
0.28,-0.9,0.16
0.31,-0.89,0.14
0.35,-0.87,0.11
0.37,-0.88,0.1
0.37,-0.86,0.09
0.38,-0.84,0.08
0.34,-0.83,0.11
0.29,-0.83,0.14
0.28,-0.84,0.16
0.28,-0.83,0.17
0.26,-0.82,0.17
0.27,-0.8,0.14
0.3,-0.78,0.12
0.31,-0.76,0.1
0.3,-0.75,0.1
0.29,-0.75,0.1
0.28,-0.76,0.11
0.26,-0.76,0.13
0.23,-0.76,0.15
0.23,-0.76,0.15
0.24,-0.75,0.16
0.24,-0.75,0.18
0.24,-0.76,0.2
0.25,-0.78,0.24
0.25,-0.8,0.28
0.25,-0.82,0.3
0.27,-0.83,0.29
0.28,-0.83,0.29
0.28,-0.84,0.3
0.31,-0.85,0.31
0.35,-0.85,0.32
0.38,-0.85,0.32
0.38,-0.84,0.33
0.38,-0.85,0.34
0.37,-0.86,0.34
0.38,-0.86,0.34
0.39,-0.87,0.36
0.41,-0.88,0.4
0.44,-0.88,0.41
0.46,-0.88,0.41
0.45,-0.87,0.43
0.44,-0.87,0.44
0.46,-0.86,0.44
0.45,-0.86,0.45
0.43,-0.87,0.47
0.44,-0.86,0.48
0.47,-0.86,0.47
0.48,-0.87,0.48
0.47,-0.87,0.48
0.48,-0.88,0.5
0.48,-0.88,0.51
0.48,-0.88,0.5
0.47,-0.88,0.49
0.45,-0.88,0.49
0.46,-0.87,0.5
0.46,-0.86,0.52
0.46,-0.85,0.54
0.47,-0.85,0.55
0.46,-0.85,0.56
0.46,-0.85,0.57
0.46,-0.85,0.58
0.46,-0.85,0.59
0.47,-0.85,0.6
0.48,-0.84,0.61
0.52,-0.85,0.62
0.55,-0.86,0.64
0.56,-0.86,0.66
0.57,-0.86,0.69
0.58,-0.86,0.72
0.58,-0.87,0.75
0.58,-0.88,0.77
0.57,-0.89,0.78
0.56,-0.9,0.8
0.53,-0.89,0.83
0.46,-0.86,0.89
0.42,-0.8,0.93
0.42,-0.74,0.91
0.43,-0.69,0.88
0.43,-0.64,0.85
0.44,-0.58,0.82
0.46,-0.53,0.78
0.49,-0.47,0.72
0.52,-0.42,0.66
0.57,-0.37,0.61
0.62,-0.35,0.58
0.65,-0.34,0.59
0.66,-0.32,0.63
0.64,-0.32,0.69
0.6,-0.32,0.73
0.57,-0.33,0.8
0.54,-0.34,0.83
0.53,-0.35,0.85
0.51,-0.36,0.88
0.51,-0.38,0.9
0.52,-0.41,0.9
0.57,-0.46,0.88
0.61,-0.51,0.87
0.65,-0.56,0.88
0.67,-0.6,0.89
0.67,-0.62,0.9
0.64,-0.62,0.9
0.61,-0.63,0.87
0.58,-0.64,0.83
0.54,-0.64,0.79
0.51,-0.6,0.73
0.49,-0.55,0.68
0.47,-0.51,0.64
0.45,-0.47,0.61
0.42,-0.45,0.59
0.38,-0.43,0.6
0.35,-0.41,0.61
0.35,-0.37,0.6
0.39,-0.34,0.61
0.44,-0.33,0.65
0.48,-0.32,0.69
0.51,-0.31,0.76
0.53,-0.27,0.77
0.53,-0.26,0.76
0.52,-0.25,0.75
0.51,-0.24,0.74
0.51,-0.24,0.72
0.53,-0.24,0.7
0.54,-0.24,0.69
0.54,-0.24,0.68
0.54,-0.24,0.68
0.54,-0.25,0.67
0.55,-0.26,0.67
0.55,-0.26,0.67
0.55,-0.27,0.68
0.54,-0.27,0.68
0.55,-0.28,0.68
0.57,-0.31,0.68
0.6,-0.33,0.7
0.65,-0.35,0.74
0.73,-0.44,0.79
0.81,-0.57,0.88
0.86,-0.65,0.99
0.87,-0.64,1.01
0.8,-0.62,0.95
0.69,-0.6,0.86
0.55,-0.55,0.76
0.43,-0.48,0.68
0.37,-0.42,0.48
0.4,-0.44,0.45
0.45,-0.48,0.47
0.53,-0.51,0.53
0.6,-0.53,0.61
0.65,-0.54,0.68
0.69,-0.53,0.74
0.7,-0.51,0.78
0.7,-0.49,0.81
0.68,-0.48,0.8
0.64,-0.48,0.77
0.62,-0.45,0.72
0.6,-0.44,0.68
0.58,-0.44,0.64
0.58,-0.44,0.63
0.6,-0.45,0.62
0.63,-0.46,0.63
0.65,-0.46,0.66
0.66,-0.46,0.68
0.66,-0.45,0.7
0.65,-0.45,0.7
0.63,-0.44,0.7
0.62,-0.44,0.69
0.61,-0.44,0.69
0.61,-0.45,0.68
0.61,-0.44,0.67
0.62,-0.44,0.67
0.63,-0.44,0.68
0.64,-0.44,0.68
0.64,-0.44,0.68
0.64,-0.43,0.68
0.64,-0.43,0.67
0.64,-0.42,0.67
0.64,-0.42,0.67
0.65,-0.42,0.66
0.65,-0.43,0.66
0.65,-0.43,0.66
0.64,-0.44,0.66
0.64,-0.44,0.65
0.64,-0.45,0.65
0.63,-0.45,0.65
0.63,-0.44,0.65
0.63,-0.46,0.65
0.63,-0.46,0.66
0.63,-0.45,0.66
0.63,-0.45,0.67
0.64,-0.45,0.67
0.64,-0.44,0.67
0.64,-0.44,0.67
0.63,-0.44,0.67
0.63,-0.44,0.67
0.63,-0.43,0.67
0.63,-0.43,0.67
0.64,-0.43,0.66
0.64,-0.44,0.66
0.65,-0.44,0.65
0.65,-0.43,0.65
0.65,-0.43,0.65
0.64,-0.43,0.65
0.65,-0.43,0.65
0.65,-0.43,0.65
0.65,-0.43,0.65
0.65,-0.44,0.66
0.66,-0.44,0.66
0.67,-0.44,0.66
0.67,-0.43,0.66
0.68,-0.42,0.66
0.68,-0.42,0.66
0.67,-0.41,0.66
0.67,-0.4,0.66
0.66,-0.39,0.65
0.65,-0.39,0.66
0.65,-0.39,0.66
0.65,-0.38,0.66
0.65,-0.39,0.66
0.65,-0.4,0.66
0.64,-0.4,0.66
0.64,-0.41,0.66
0.63,-0.42,0.66
0.63,-0.44,0.66
0.63,-0.45,0.66
0.64,-0.46,0.66
0.64,-0.46,0.67
0.64,-0.47,0.67
0.65,-0.47,0.67
0.64,-0.46,0.68
0.64,-0.45,0.68
0.63,-0.44,0.68
0.63,-0.44,0.67
0.63,-0.45,0.65
0.63,-0.47,0.63
0.64,-0.48,0.62
0.65,-0.49,0.61
0.65,-0.5,0.61
0.64,-0.5,0.62
0.64,-0.5,0.63
0.64,-0.5,0.63
0.64,-0.49,0.63
0.63,-0.48,0.63
0.62,-0.47,0.63
0.61,-0.45,0.64
0.61,-0.43,0.65
0.62,-0.42,0.67
0.62,-0.41,0.68
0.63,-0.41,0.69
0.65,-0.42,0.69
0.66,-0.43,0.68
0.67,-0.43,0.67
0.67,-0.44,0.66
0.66,-0.44,0.64
0.66,-0.44,0.63
0.66,-0.44,0.62
0.66,-0.44,0.62
0.66,-0.44,0.62
0.66,-0.45,0.62
0.66,-0.45,0.63
0.66,-0.45,0.64
0.66,-0.46,0.65
0.66,-0.46,0.65
0.66,-0.46,0.65
0.66,-0.47,0.64
0.65,-0.47,0.63
0.65,-0.47,0.62
0.65,-0.46,0.62
0.66,-0.46,0.62
0.66,-0.46,0.62
0.65,-0.45,0.63
0.65,-0.45,0.64
0.66,-0.45,0.63
0.66,-0.45,0.63
0.66,-0.45,0.64
0.66,-0.46,0.64
0.65,-0.46,0.65
0.65,-0.46,0.65
0.65,-0.45,0.64
0.65,-0.45,0.64
0.65,-0.45,0.65
0.65,-0.45,0.64
0.64,-0.45,0.64
0.64,-0.45,0.64
0.64,-0.45,0.64
0.64,-0.45,0.64
0.64,-0.45,0.64
0.64,-0.45,0.64
0.64,-0.46,0.65
0.64,-0.46,0.64
0.64,-0.46,0.64
0.64,-0.46,0.64
0.63,-0.47,0.64
0.64,-0.47,0.64
0.64,-0.47,0.64
0.64,-0.48,0.64
0.64,-0.48,0.63
0.64,-0.47,0.64
0.63,-0.46,0.67
0.64,-0.45,0.66
0.65,-0.46,0.62
0.65,-0.47,0.62
0.65,-0.48,0.63
0.65,-0.47,0.62
0.65,-0.47,0.62
0.66,-0.47,0.63
0.65,-0.48,0.62
0.65,-0.48,0.62
0.65,-0.48,0.62
0.65,-0.48,0.61
0.66,-0.48,0.61
0.66,-0.48,0.61
0.66,-0.48,0.61
0.65,-0.48,0.61
0.66,-0.48,0.61
0.66,-0.48,0.61
0.65,-0.48,0.61
0.66,-0.48,0.6
0.66,-0.48,0.61
0.66,-0.47,0.61
0.66,-0.47,0.61
0.67,-0.48,0.61
0.66,-0.48,0.62
0.66,-0.48,0.61
0.67,-0.49,0.61
0.66,-0.49,0.61
0.66,-0.49,0.61
0.65,-0.48,0.62
0.65,-0.48,0.62
0.66,-0.48,0.62
0.66,-0.48,0.62
0.66,-0.47,0.62
0.66,-0.47,0.62
0.67,-0.47,0.62
0.67,-0.47,0.62
0.67,-0.47,0.62
0.66,-0.47,0.61
0.66,-0.47,0.62
0.66,-0.48,0.61
0.66,-0.48,0.61
0.66,-0.48,0.62
0.66,-0.48,0.62
0.66,-0.49,0.62
0.66,-0.49,0.62
0.66,-0.49,0.62
0.66,-0.49,0.62
0.65,-0.49,0.62
0.65,-0.49,0.61
0.65,-0.48,0.61
0.65,-0.48,0.61
0.65,-0.48,0.61
0.66,-0.48,0.61
0.66,-0.47,0.61
0.66,-0.47,0.61
0.67,-0.47,0.61
0.66,-0.47,0.62
0.66,-0.47,0.62
0.66,-0.47,0.62
0.66,-0.47,0.62
0.66,-0.47,0.62
0.66,-0.48,0.62
0.65,-0.48,0.62
0.65,-0.48,0.62
0.66,-0.48,0.61
0.66,-0.48,0.61
0.66,-0.48,0.61
0.67,-0.48,0.61
0.67,-0.48,0.61
0.66,-0.48,0.62
0.66,-0.48,0.62
0.66,-0.47,0.62
0.67,-0.47,0.61
0.67,-0.47,0.61
0.67,-0.47,0.61
0.67,-0.48,0.61
0.67,-0.48,0.61
0.66,-0.48,0.61
0.66,-0.48,0.6
0.66,-0.48,0.6
0.66,-0.48,0.61
0.65,-0.48,0.61
0.65,-0.48,0.61
0.66,-0.49,0.61
0.66,-0.49,0.61
0.66,-0.49,0.61
0.66,-0.48,0.61
0.66,-0.48,0.62
0.66,-0.48,0.61
0.65,-0.48,0.61
0.65,-0.48,0.62
0.66,-0.48,0.61
0.66,-0.48,0.61
0.66,-0.48,0.61
0.66,-0.47,0.61
0.66,-0.47,0.62
0.66,-0.47,0.62
