Acc_x,Acc_y,Acc_z
0.6,0.41,0.65
0.61,0.35,0.68
0.65,0.38,0.73
0.72,0.4,0.72
0.57,0.36,0.76
0.54,0.31,0.81
0.56,0.31,0.8
0.58,0.32,0.82
0.61,0.3,0.84
0.51,0.31,0.86
0.41,0.29,0.9
0.49,0.27,0.9
0.57,0.32,0.89
0.55,0.32,0.9
0.52,0.3,0.92
0.54,0.31,0.95
0.51,0.32,0.95
0.41,0.31,0.97
0.38,0.29,0.98
0.43,0.3,0.97
0.41,0.31,0.98
0.38,0.3,0.98
0.41,0.3,0.98
0.41,0.29,0.99
0.41,0.28,0.99
0.4,0.28,0.98
0.4,0.27,0.97
0.38,0.27,0.96
0.37,0.27,0.93
0.36,0.27,0.93
0.36,0.27,0.92
0.37,0.26,0.92
0.41,0.26,0.93
0.43,0.27,0.97
0.39,0.29,1.02
0.34,0.28,1.06
0.32,0.27,1.06
0.32,0.27,1.04
0.33,0.27,1.01
0.34,0.27,0.98
0.35,0.27,0.96
0.37,0.26,0.95
0.39,0.27,0.94
0.4,0.27,0.95
0.41,0.27,0.96
0.4,0.28,0.98
0.39,0.28,0.99
0.38,0.28,1.01
0.36,0.28,1.03
0.34,0.28,1.04
0.34,0.28,1.05
0.34,0.28,1.05
0.36,0.28,1.04
0.36,0.29,1.03
0.36,0.29,1.02
0.37,0.3,1.03
0.36,0.31,1.04
0.35,0.31,1.04
0.34,0.31,1.05
0.34,0.32,1.05
0.33,0.32,1.05
0.33,0.32,1.03
0.32,0.32,1.01
0.33,0.32,1
0.35,0.33,0.98
0.37,0.33,0.96
0.39,0.34,0.94
0.41,0.35,0.93
0.4,0.35,0.91
0.39,0.35,0.89
0.39,0.34,0.87
0.41,0.35,0.84
0.42,0.37,0.82
0.43,0.38,0.81
0.43,0.39,0.79
0.42,0.39,0.78
0.41,0.4,0.76
0.41,0.4,0.73
0.39,0.41,0.7
0.38,0.41,0.68
0.4,0.42,0.66
0.41,0.43,0.64
0.38,0.43,0.63
0.38,0.43,0.64
0.38,0.45,0.63
0.38,0.46,0.61
0.38,0.47,0.59
0.38,0.48,0.57
0.36,0.48,0.54
0.35,0.48,0.52
0.35,0.49,0.51
0.34,0.5,0.49
0.34,0.51,0.47
0.35,0.53,0.45
0.35,0.54,0.45
0.36,0.55,0.44
0.38,0.55,0.44
0.39,0.54,0.45
0.4,0.54,0.46
0.42,0.55,0.47
0.43,0.54,0.46
0.44,0.55,0.45
0.45,0.55,0.43
0.5,0.59,0.42
0.53,0.59,0.43
0.53,0.6,0.45
0.52,0.6,0.47
0.5,0.6,0.48
0.48,0.6,0.49
0.47,0.59,0.49
0.48,0.58,0.49
0.53,0.58,0.49
0.59,0.58,0.52
0.64,0.57,0.55
0.63,0.56,0.58
0.63,0.55,0.62
0.62,0.54,0.65
0.59,0.52,0.65
0.56,0.52,0.65
0.56,0.52,0.66
0.58,0.52,0.66
0.63,0.51,0.68
0.66,0.5,0.7
0.67,0.49,0.72
0.68,0.48,0.76
0.68,0.46,0.79
0.65,0.45,0.8
0.62,0.45,0.81
0.59,0.45,0.8
0.57,0.45,0.78
0.58,0.44,0.8
0.59,0.43,0.82
0.59,0.42,0.83
0.58,0.41,0.86
0.58,0.4,0.89
0.59,0.4,0.89
0.58,0.4,0.87
0.57,0.39,0.86
0.55,0.38,0.84
0.54,0.38,0.83
0.52,0.38,0.83
0.5,0.37,0.86
0.51,0.37,0.9
0.53,0.37,0.92
0.54,0.37,0.93
0.55,0.35,0.92
0.54,0.34,0.91
0.54,0.33,0.91
0.56,0.33,0.92
0.57,0.32,0.95
0.59,0.32,0.98
0.58,0.33,0.99
0.54,0.34,0.99
0.5,0.34,0.98
0.5,0.35,0.96
0.55,0.37,0.96
0.59,0.38,0.96
0.58,0.38,0.95
0.58,0.39,0.94
0.58,0.41,0.92
0.58,0.42,0.91
0.57,0.43,0.9
0.56,0.45,0.9
0.55,0.46,0.89
0.55,0.47,0.87
0.56,0.48,0.85
0.57,0.48,0.84
0.59,0.49,0.82
0.6,0.5,0.8
0.6,0.51,0.79
0.61,0.52,0.78
0.6,0.52,0.77
0.59,0.52,0.76
0.58,0.52,0.75
0.57,0.52,0.74
0.55,0.52,0.73
0.54,0.52,0.72
0.54,0.52,0.71
0.54,0.53,0.69
0.57,0.53,0.67
0.58,0.53,0.65
0.58,0.53,0.62
0.55,0.53,0.61
0.54,0.53,0.61
0.54,0.53,0.63
0.52,0.53,0.63
0.49,0.54,0.62
0.46,0.55,0.59
0.45,0.54,0.57
0.46,0.55,0.54
0.47,0.55,0.53
0.48,0.55,0.52
0.49,0.55,0.5
0.49,0.55,0.49
0.46,0.55,0.49
0.43,0.55,0.49
0.41,0.56,0.5
0.39,0.56,0.49
0.39,0.55,0.49
0.42,0.56,0.47
0.42,0.56,0.45
0.41,0.56,0.44
0.39,0.55,0.44
0.37,0.55,0.44
0.36,0.55,0.45
0.34,0.55,0.45
0.33,0.55,0.46
0.26,0.57,0.55
0.27,0.57,0.52
0.28,0.56,0.49
0.28,0.55,0.5
0.26,0.54,0.53
0.26,0.54,0.57
0.26,0.53,0.61
0.28,0.52,0.65
0.3,0.51,0.69
0.29,0.49,0.73
0.27,0.47,0.78
0.26,0.46,0.79
0.31,0.4,0.84
0.31,0.4,0.84
0.32,0.39,0.88
0.33,0.39,0.91
0.33,0.39,0.92
0.31,0.38,0.91
0.32,0.37,0.91
0.35,0.35,0.9
0.36,0.34,0.92
0.36,0.32,0.95
0.37,0.31,0.97
0.38,0.3,0.97
0.4,0.31,0.97
0.4,0.31,0.96
0.4,0.31,0.97
0.42,0.31,0.99
0.42,0.3,1.02
0.41,0.29,1.03
0.44,0.29,1.04
0.45,0.3,1.03
0.44,0.3,1.02
0.43,0.3,1
0.41,0.31,0.98
0.4,0.32,0.97
0.41,0.32,0.96
0.42,0.32,0.96
0.44,0.31,0.98
0.45,0.29,1
0.43,0.29,1.01
0.43,0.29,1.01
0.42,0.3,0.97
0.41,0.3,0.96
0.41,0.3,0.97
0.41,0.3,0.99
0.41,0.3,1.01
0.41,0.3,1.01
0.42,0.3,1
0.42,0.31,0.99
0.42,0.3,0.99
0.42,0.31,1
0.4,0.31,1
0.39,0.31,1.01
0.38,0.31,1.01
0.37,0.3,1.01
0.38,0.3,1.01
0.38,0.3,1
0.38,0.3,1.01
0.37,0.29,1.02
0.38,0.29,1.03
0.4,0.3,1.04
0.4,0.29,1.04
0.39,0.29,1.04
0.39,0.29,1.04
0.39,0.29,1.03
0.38,0.29,1.02
0.38,0.3,1.01
0.37,0.3,1.01
0.38,0.29,1.01
0.41,0.3,1
0.41,0.3,0.99
0.41,0.3,0.98
0.4,0.3,0.96
0.4,0.3,0.95
0.4,0.3,0.94
0.4,0.31,0.93
0.42,0.31,0.91
0.43,0.31,0.88
0.42,0.31,0.85
0.43,0.31,0.83
0.43,0.31,0.82
0.43,0.32,0.81
0.41,0.32,0.8
0.41,0.33,0.8
0.42,0.33,0.79
0.43,0.34,0.76
0.43,0.35,0.74
0.42,0.36,0.72
0.42,0.37,0.7
0.43,0.38,0.68
0.42,0.39,0.66
0.4,0.4,0.64
0.39,0.42,0.63
0.4,0.43,0.63
0.41,0.45,0.61
0.4,0.46,0.6
0.39,0.46,0.6
0.4,0.46,0.58
0.39,0.47,0.57
0.38,0.47,0.55
0.39,0.48,0.55
0.39,0.51,0.54
0.38,0.53,0.53
0.37,0.54,0.52
0.36,0.54,0.51
0.37,0.54,0.51
0.38,0.55,0.51
0.39,0.55,0.51
0.4,0.55,0.51
0.4,0.56,0.52
0.41,0.56,0.53
0.44,0.56,0.54
0.45,0.57,0.54
0.46,0.57,0.54
0.45,0.57,0.54
0.44,0.57,0.54
0.44,0.56,0.53
0.44,0.55,0.51
0.45,0.55,0.5
0.45,0.55,0.49
0.46,0.56,0.48
0.48,0.57,0.5
0.52,0.56,0.51
0.56,0.55,0.53
0.61,0.54,0.55
0.64,0.53,0.55
0.64,0.52,0.55
0.62,0.52,0.55
0.59,0.52,0.54
0.57,0.52,0.53
0.58,0.52,0.55
0.62,0.51,0.59
0.66,0.5,0.64
0.67,0.49,0.69
0.67,0.48,0.73
0.67,0.47,0.73
0.66,0.47,0.72
0.64,0.47,0.71
0.64,0.47,0.71
0.64,0.47,0.72
0.64,0.47,0.74
0.64,0.46,0.77
0.62,0.46,0.8
0.6,0.46,0.81
0.59,0.46,0.82
0.58,0.46,0.82
0.56,0.47,0.81
0.56,0.47,0.82
0.56,0.45,0.83
0.56,0.44,0.85
0.56,0.42,0.85
0.56,0.41,0.85
0.56,0.4,0.85
0.57,0.4,0.87
0.57,0.4,0.89
0.56,0.39,0.9
0.55,0.39,0.91
0.54,0.39,0.91
0.53,0.39,0.91
0.53,0.39,0.91
0.53,0.39,0.91
0.53,0.39,0.91
0.53,0.39,0.9
0.53,0.39,0.9
0.52,0.39,0.91
0.52,0.4,0.92
0.53,0.39,0.93
0.52,0.4,0.92
0.52,0.4,0.92
0.51,0.4,0.92
0.51,0.41,0.91
0.52,0.41,0.91
0.53,0.42,0.89
0.54,0.43,0.89
0.54,0.44,0.89
0.55,0.44,0.89
0.56,0.45,0.89
0.57,0.45,0.89
0.57,0.46,0.87
0.57,0.47,0.86
0.57,0.48,0.84
0.55,0.48,0.82
0.54,0.49,0.81
0.56,0.49,0.8
0.57,0.5,0.79
0.57,0.5,0.77
0.58,0.5,0.77
0.57,0.5,0.77
0.56,0.5,0.76
0.54,0.51,0.75
0.54,0.51,0.74
0.53,0.52,0.73
0.51,0.52,0.71
0.5,0.52,0.7
0.5,0.53,0.68
0.49,0.54,0.68
0.5,0.54,0.67
0.51,0.54,0.67
0.52,0.55,0.65
0.5,0.55,0.61
0.48,0.55,0.6
0.46,0.55,0.59
0.44,0.55,0.57
0.44,0.56,0.56
0.44,0.56,0.55
0.43,0.56,0.54
0.44,0.56,0.54
0.43,0.56,0.53
0.43,0.56,0.53
0.43,0.55,0.53
0.43,0.56,0.51
0.42,0.56,0.48
0.4,0.56,0.47
0.38,0.55,0.48
0.36,0.55,0.49
0.35,0.55,0.5
0.34,0.55,0.5
0.34,0.55,0.49
0.33,0.56,0.47
0.32,0.56,0.46
0.31,0.56,0.46
0.31,0.55,0.46
0.3,0.55,0.48
0.3,0.54,0.49
0.31,0.54,0.52
0.31,0.53,0.56
0.34,0.52,0.59
0.35,0.51,0.63
0.36,0.5,0.65
0.34,0.49,0.67
0.34,0.5,0.68
0.34,0.5,0.68
0.33,0.49,0.69
0.33,0.48,0.69
0.34,0.48,0.69
0.35,0.46,0.68
0.36,0.45,0.7
0.35,0.43,0.76
0.35,0.43,0.83
0.35,0.43,0.87
0.35,0.43,0.9
0.36,0.44,0.89
0.36,0.44,0.88
0.34,0.43,0.85
0.36,0.42,0.84
0.37,0.4,0.83
0.39,0.38,0.85
0.4,0.38,0.87
0.4,0.37,0.89
0.41,0.37,0.9
0.41,0.37,0.89
0.4,0.36,0.88
0.41,0.35,0.89
0.42,0.34,0.9
0.44,0.34,0.9
0.45,0.34,0.9
0.45,0.34,0.91
0.42,0.34,0.93
0.4,0.33,0.97
0.38,0.33,0.98
0.39,0.35,0.97
0.41,0.36,0.96
0.43,0.36,0.95
0.43,0.36,0.95
0.44,0.36,0.95
0.44,0.36,0.96
0.45,0.35,0.96
0.46,0.35,0.96
0.46,0.35,0.96
0.44,0.35,0.96
0.42,0.35,0.96
0.42,0.35,0.95
0.42,0.35,0.95
0.43,0.35,0.95
0.43,0.34,0.95
0.43,0.34,0.95
0.43,0.33,0.95
0.42,0.33,0.97
0.41,0.35,0.97
0.4,0.35,0.98
0.39,0.35,0.99
0.38,0.34,1
0.38,0.34,1.01
0.39,0.34,1.02
0.4,0.33,1.02
0.41,0.34,1.01
0.4,0.33,1.02
0.4,0.33,1.02
0.39,0.33,1.03
0.39,0.33,1.04
0.38,0.33,1.04
0.38,0.33,1.04
0.37,0.33,1.03
0.37,0.33,1.03
0.38,0.32,1.03
0.4,0.32,1.01
0.42,0.32,1
0.44,0.32,0.99
0.45,0.32,0.97
0.45,0.32,0.95
0.45,0.31,0.93
0.44,0.32,0.92
0.44,0.32,0.91
0.43,0.33,0.87
0.44,0.34,0.86
0.44,0.33,0.85
0.45,0.33,0.83
0.46,0.34,0.8
0.45,0.34,0.77
0.45,0.35,0.75
0.46,0.36,0.73
0.47,0.37,0.7
0.46,0.38,0.68
0.45,0.38,0.67
0.44,0.39,0.67
0.42,0.41,0.66
0.41,0.42,0.65
0.4,0.43,0.64
0.41,0.44,0.61
0.43,0.45,0.59
0.43,0.46,0.57
0.42,0.47,0.57
0.41,0.48,0.56
0.4,0.49,0.55
0.4,0.5,0.54
0.4,0.51,0.53
0.39,0.52,0.5
0.38,0.52,0.47
0.38,0.53,0.47
0.38,0.54,0.46
0.4,0.56,0.46
0.43,0.56,0.47
0.45,0.57,0.47
0.47,0.56,0.48
0.48,0.56,0.48
0.49,0.55,0.48
0.49,0.56,0.48
0.49,0.57,0.47
0.5,0.57,0.46
0.5,0.57,0.45
0.5,0.57,0.44
0.5,0.57,0.44
0.5,0.57,0.43
0.49,0.56,0.44
0.51,0.57,0.45
0.53,0.56,0.46
0.56,0.57,0.48
0.58,0.57,0.5
0.59,0.57,0.51
0.59,0.57,0.52
0.58,0.56,0.51
0.59,0.55,0.5
0.58,0.55,0.49
0.57,0.54,0.51
0.57,0.54,0.53
0.57,0.53,0.55
0.61,0.52,0.61
0.67,0.51,0.63
0.69,0.49,0.66
0.7,0.48,0.68
0.7,0.48,0.69
0.69,0.48,0.7
0.68,0.48,0.71
0.68,0.48,0.71
0.68,0.47,0.72
0.69,0.47,0.73
0.69,0.46,0.75
0.68,0.45,0.78
0.69,0.45,0.8
0.71,0.46,0.81
0.74,0.46,0.8
0.77,0.47,0.78
0.76,0.47,0.77
0.75,0.47,0.77
0.73,0.47,0.77
0.71,0.46,0.79
0.7,0.46,0.81
0.69,0.46,0.82
0.67,0.48,0.82
0.65,0.49,0.81
0.65,0.49,0.8
0.66,0.49,0.79
0.67,0.48,0.78
0.66,0.48,0.78
0.66,0.48,0.78
0.67,0.47,0.79
0.67,0.47,0.8
0.66,0.47,0.8
0.66,0.47,0.79
0.64,0.46,0.78
0.63,0.46,0.77
0.65,0.46,0.77
0.66,0.46,0.77
0.67,0.47,0.76
0.67,0.47,0.75
0.67,0.47,0.76
0.68,0.48,0.75
0.68,0.49,0.73
0.67,0.5,0.71
0.66,0.5,0.7
0.67,0.5,0.7
0.67,0.51,0.7
0.66,0.52,0.68
0.64,0.53,0.68
0.62,0.53,0.68
0.63,0.52,0.68
0.63,0.53,0.67
0.63,0.54,0.63
0.63,0.54,0.61
0.6,0.54,0.59
0.58,0.54,0.58
0.55,0.55,0.57
0.54,0.55,0.57
0.54,0.54,0.57
0.54,0.54,0.57
0.53,0.54,0.56
0.54,0.55,0.55
0.54,0.55,0.54
0.52,0.56,0.53
0.51,0.56,0.51
0.5,0.56,0.5
0.47,0.55,0.51
0.43,0.55,0.52
0.41,0.55,0.54
0.4,0.55,0.53
0.4,0.57,0.51
0.4,0.57,0.5
0.4,0.57,0.48
0.39,0.56,0.48
0.37,0.56,0.5
0.35,0.55,0.53
0.34,0.54,0.56
0.36,0.54,0.57
0.39,0.54,0.57
0.41,0.53,0.58
0.39,0.51,0.58
0.37,0.5,0.58
0.35,0.49,0.58
0.32,0.49,0.59
0.3,0.49,0.6
0.31,0.49,0.61
0.35,0.49,0.64
0.39,0.48,0.66
0.41,0.46,0.69
0.42,0.44,0.73
0.41,0.43,0.76
0.39,0.41,0.78
0.38,0.41,0.79
0.38,0.4,0.8
0.37,0.4,0.79
0.37,0.4,0.77
0.37,0.4,0.74
0.39,0.39,0.73
0.4,0.37,0.75
0.39,0.35,0.8
0.38,0.33,0.87
0.39,0.33,0.92
0.4,0.34,0.94
0.42,0.34,0.94
0.43,0.34,0.94
0.42,0.34,0.9
0.4,0.31,0.88
0.41,0.31,0.87
0.4,0.3,0.88
0.39,0.3,0.92
0.38,0.31,0.95
0.38,0.33,0.97
0.38,0.33,0.98
0.39,0.33,0.97
0.4,0.33,0.96
0.4,0.33,0.94
0.4,0.32,0.94
0.4,0.31,0.95
0.39,0.31,0.96
0.37,0.31,0.96
0.37,0.31,0.97
0.37,0.31,0.97
0.37,0.32,0.98
0.37,0.33,0.98
0.37,0.33,0.98
0.36,0.33,0.99
0.36,0.32,1
0.36,0.32,1
0.37,0.32,1
0.37,0.32,1.01
0.37,0.32,1.02
0.36,0.32,1.03
0.35,0.32,1.07
0.36,0.32,1.06
0.37,0.32,1.05
0.37,0.32,1.04
0.36,0.31,1.04
0.35,0.31,1.05
0.34,0.32,1.06
0.32,0.32,1.06
0.32,0.31,1.06
0.33,0.31,1.06
0.32,0.3,1.07
0.32,0.3,1.07
0.34,0.29,1.04
0.36,0.29,1.01
0.38,0.29,0.98
0.4,0.29,0.97
0.4,0.3,0.95
0.38,0.32,0.94
0.37,0.33,0.93
0.36,0.33,0.91
0.36,0.34,0.89
0.36,0.34,0.88
0.37,0.34,0.86
0.37,0.34,0.84
0.38,0.35,0.81
0.4,0.35,0.78
0.43,0.37,0.71
0.44,0.39,0.7
0.44,0.4,0.7
0.43,0.41,0.69
0.42,0.43,0.69
0.41,0.43,0.68
0.41,0.44,0.67
0.41,0.44,0.65
0.41,0.45,0.63
0.41,0.46,0.62
0.4,0.46,0.6
0.39,0.47,0.59
0.39,0.48,0.57
0.4,0.49,0.55
0.4,0.51,0.52
0.38,0.52,0.51
0.36,0.51,0.51
0.37,0.52,0.51
0.38,0.53,0.52
0.39,0.53,0.53
0.39,0.53,0.53
0.4,0.54,0.54
0.42,0.54,0.54
0.46,0.54,0.54
0.5,0.54,0.53
0.53,0.53,0.53
0.53,0.52,0.5
0.52,0.53,0.49
0.51,0.53,0.49
0.51,0.52,0.48
0.51,0.52,0.49
0.52,0.52,0.5
0.53,0.53,0.52
0.55,0.54,0.54
0.57,0.54,0.56
0.59,0.54,0.57
0.6,0.54,0.57
0.59,0.54,0.56
0.57,0.54,0.55
0.56,0.54,0.55
0.58,0.53,0.57
0.59,0.53,0.59
0.6,0.53,0.61
0.61,0.53,0.63
0.61,0.52,0.64
0.6,0.51,0.64
0.6,0.51,0.65
0.6,0.51,0.66
0.61,0.51,0.67
0.62,0.51,0.69
0.62,0.51,0.69
0.62,0.51,0.69
0.62,0.5,0.71
0.64,0.49,0.71
0.65,0.48,0.72
0.65,0.48,0.72
0.65,0.48,0.73
0.64,0.49,0.75
0.63,0.49,0.77
0.62,0.49,0.77
0.62,0.5,0.77
0.62,0.5,0.77
0.62,0.5,0.77
0.62,0.5,0.77
0.63,0.5,0.77
0.65,0.5,0.78
0.65,0.5,0.79
0.65,0.51,0.79
0.65,0.5,0.8
0.65,0.51,0.8
0.65,0.51,0.8
0.64,0.51,0.81
0.63,0.51,0.81
0.62,0.51,0.81
0.62,0.51,0.81
0.63,0.51,0.8
0.63,0.5,0.8
0.64,0.5,0.8
0.65,0.5,0.79
0.66,0.49,0.78
0.66,0.49,0.77
0.66,0.49,0.76
0.66,0.49,0.75
0.66,0.48,0.75
0.65,0.48,0.74
0.66,0.48,0.73
0.66,0.48,0.71
0.66,0.48,0.71
0.66,0.48,0.7
0.66,0.48,0.69
0.67,0.47,0.68
0.67,0.47,0.67
0.65,0.47,0.66
0.63,0.46,0.65
0.61,0.46,0.65
0.6,0.46,0.65
0.59,0.46,0.66
0.59,0.47,0.67
0.58,0.47,0.66
0.56,0.48,0.64
0.55,0.49,0.62
0.55,0.5,0.59
0.55,0.51,0.56
0.55,0.52,0.55
0.55,0.52,0.57
0.51,0.53,0.58
0.49,0.53,0.58
0.47,0.54,0.58
0.47,0.55,0.58
0.46,0.55,0.57
0.47,0.56,0.56
0.47,0.57,0.54
0.46,0.57,0.53
0.45,0.57,0.53
0.44,0.57,0.54
0.43,0.56,0.55
0.42,0.57,0.56
0.42,0.57,0.57
0.43,0.57,0.56
0.44,0.57,0.55
0.44,0.56,0.55
0.43,0.55,0.56
0.43,0.54,0.59
0.43,0.54,0.62
0.43,0.54,0.64
0.44,0.53,0.66
0.44,0.53,0.65
0.45,0.52,0.64
0.45,0.51,0.62
0.45,0.51,0.6
0.43,0.51,0.6
0.42,0.5,0.64
0.4,0.5,0.67
0.39,0.5,0.7
0.38,0.5,0.72
0.4,0.5,0.72
0.42,0.49,0.71
0.45,0.49,0.69
0.45,0.47,0.69
0.43,0.46,0.7
0.4,0.45,0.72
0.4,0.44,0.74
0.42,0.43,0.77
0.43,0.42,0.78
0.44,0.42,0.79
0.44,0.41,0.79
0.44,0.41,0.78
0.44,0.4,0.79
0.43,0.4,0.8
0.43,0.4,0.82
0.44,0.39,0.83
0.45,0.4,0.84
0.45,0.39,0.84
0.45,0.38,0.85
0.44,0.38,0.86
0.44,0.38,0.87
0.44,0.38,0.88
0.44,0.38,0.88
0.43,0.37,0.88
0.43,0.37,0.88
0.43,0.37,0.87
0.43,0.37,0.88
0.43,0.37,0.89
0.43,0.37,0.89
0.43,0.36,0.89
0.42,0.37,0.9
0.42,0.37,0.9
0.42,0.37,0.9
0.42,0.37,0.89
0.41,0.37,0.88
0.41,0.37,0.88
0.42,0.36,0.88
0.43,0.36,0.89
0.43,0.36,0.89
0.43,0.36,0.89
0.43,0.37,0.89
0.43,0.37,0.88
0.43,0.37,0.88
0.43,0.37,0.88
0.43,0.37,0.88
0.43,0.36,0.88
0.44,0.36,0.88
0.44,0.36,0.88
0.44,0.36,0.87
0.44,0.37,0.87
0.44,0.37,0.87
0.45,0.38,0.86
0.44,0.38,0.87
0.44,0.38,0.87
0.44,0.37,0.88
0.43,0.37,0.89
0.43,0.37,0.9
0.42,0.37,0.91
0.41,0.37,0.93
0.42,0.37,0.93
0.42,0.38,0.93
0.42,0.38,0.93
0.43,0.38,0.93
0.43,0.37,0.93
0.43,0.37,0.94
0.43,0.36,0.95
0.43,0.36,0.96
0.42,0.36,0.96
0.41,0.37,0.96
0.4,0.37,0.96
0.4,0.37,0.95
0.4,0.37,0.95
0.41,0.36,0.94
0.42,0.35,0.93
0.43,0.35,0.91
0.41,0.34,0.91
0.41,0.34,0.9
0.41,0.35,0.88
0.41,0.35,0.86
0.41,0.35,0.85
0.41,0.35,0.84
0.4,0.35,0.83
0.39,0.35,0.83
0.39,0.35,0.81
0.39,0.35,0.8
0.4,0.36,0.78
0.4,0.37,0.77
0.41,0.38,0.76
0.41,0.39,0.74
0.41,0.4,0.72
0.42,0.4,0.7
0.43,0.41,0.69
0.43,0.42,0.68
0.43,0.43,0.67
0.43,0.44,0.66
0.42,0.45,0.65
0.42,0.45,0.65
0.41,0.46,0.65
0.41,0.47,0.64
0.4,0.47,0.63
0.39,0.48,0.61
0.4,0.49,0.6
0.41,0.5,0.59
0.42,0.5,0.57
0.43,0.51,0.55
0.44,0.52,0.54
0.43,0.52,0.54
0.43,0.52,0.55
0.42,0.52,0.56
0.43,0.51,0.57
0.45,0.51,0.57
0.46,0.51,0.57
0.48,0.51,0.57
0.5,0.52,0.58
0.51,0.52,0.58
0.53,0.53,0.57
0.54,0.52,0.56
0.57,0.52,0.55
0.61,0.53,0.55
0.62,0.54,0.55
0.61,0.54,0.55
0.6,0.55,0.55
0.57,0.56,0.54
0.56,0.57,0.54
0.55,0.58,0.53
0.54,0.58,0.52
0.56,0.57,0.52
0.59,0.57,0.54
0.61,0.56,0.56
0.62,0.55,0.58
0.64,0.55,0.59
0.65,0.54,0.58
0.66,0.53,0.57
0.67,0.53,0.56
0.67,0.53,0.56
0.67,0.52,0.57
0.67,0.52,0.59
0.68,0.51,0.61
0.68,0.51,0.64
0.69,0.51,0.66
0.69,0.5,0.67
0.67,0.49,0.68
0.67,0.49,0.68
0.67,0.49,0.68
0.66,0.49,0.68
0.65,0.49,0.69
0.65,0.49,0.7
0.64,0.49,0.71
0.64,0.49,0.72
0.64,0.49,0.74
0.64,0.48,0.74
0.64,0.48,0.75
0.64,0.47,0.75
0.65,0.47,0.75
0.65,0.47,0.75
0.65,0.48,0.76
0.64,0.47,0.77
0.64,0.47,0.78
0.65,0.47,0.78
0.65,0.48,0.78
0.65,0.48,0.78
0.66,0.49,0.78
0.65,0.49,0.78
0.65,0.49,0.78
0.66,0.49,0.77
0.66,0.49,0.76
0.65,0.5,0.76
0.64,0.5,0.75
0.64,0.51,0.74
0.64,0.52,0.74
0.64,0.52,0.73
0.63,0.52,0.74
0.63,0.52,0.73
0.64,0.52,0.72
0.64,0.53,0.7
0.65,0.53,0.66
0.64,0.53,0.66
0.64,0.54,0.66
0.63,0.54,0.65
0.62,0.54,0.66
0.61,0.54,0.66
0.61,0.55,0.66
0.6,0.55,0.65
0.6,0.55,0.64
0.6,0.55,0.63
0.59,0.56,0.61
0.59,0.56,0.6
0.59,0.56,0.59
0.59,0.56,0.58
0.58,0.56,0.58
0.57,0.56,0.59
0.56,0.56,0.59
0.55,0.57,0.58
0.54,0.56,0.58
0.54,0.57,0.57
0.54,0.58,0.56
0.53,0.58,0.55
0.52,0.58,0.54
0.51,0.58,0.52
0.5,0.58,0.51
0.5,0.57,0.5
0.5,0.56,0.53
0.47,0.55,0.55
0.46,0.56,0.56
0.45,0.57,0.56
0.45,0.57,0.54
0.44,0.58,0.52
0.43,0.58,0.5
0.43,0.57,0.49
0.43,0.55,0.51
0.44,0.54,0.52
0.45,0.54,0.54
0.45,0.53,0.55
0.44,0.52,0.55
0.44,0.52,0.55
0.43,0.51,0.54
0.43,0.5,0.52
0.44,0.49,0.51
0.44,0.48,0.52
0.44,0.47,0.53
0.44,0.47,0.56
0.43,0.46,0.6
0.43,0.47,0.63
0.42,0.47,0.64
0.39,0.48,0.65
0.38,0.49,0.66
0.38,0.49,0.66
0.38,0.49,0.66
0.39,0.49,0.67
0.41,0.48,0.7
0.42,0.48,0.72
0.43,0.49,0.75
0.42,0.5,0.77
0.4,0.49,0.79
0.37,0.49,0.81
0.36,0.49,0.81
0.34,0.5,0.8
0.34,0.5,0.79
0.35,0.49,0.78
0.36,0.48,0.77
0.39,0.47,0.79
0.41,0.45,0.83
0.41,0.44,0.85
0.42,0.44,0.86
0.44,0.44,0.85
0.44,0.43,0.84
0.43,0.42,0.84
0.41,0.41,0.85
0.4,0.4,0.87
0.4,0.39,0.89
0.41,0.4,0.91
0.44,0.4,0.92
0.46,0.39,0.92
0.47,0.4,0.9
0.45,0.4,0.88
0.45,0.4,0.86
0.44,0.39,0.86
0.44,0.38,0.87
0.44,0.38,0.89
0.45,0.38,0.9
0.46,0.37,0.91
0.47,0.37,0.91
0.46,0.37,0.91
0.44,0.37,0.9
0.43,0.36,0.89
0.42,0.35,0.88
0.42,0.35,0.88
0.43,0.35,0.88
0.45,0.35,0.89
0.46,0.35,0.91
0.45,0.34,0.94
0.43,0.34,0.96
0.43,0.34,0.97
0.44,0.33,0.97
0.42,0.33,0.98
0.41,0.32,0.99
0.4,0.32,1
0.39,0.32,1.02
0.39,0.32,1.02
0.41,0.32,1.02
0.43,0.33,1.01
0.43,0.33,1.02
0.41,0.33,1.02
0.4,0.34,1.03
0.4,0.33,1.03
0.4,0.33,1.02
0.4,0.32,1.02
0.41,0.32,1.01
0.41,0.32,1
0.42,0.31,0.99
0.43,0.31,0.96
0.44,0.31,0.94
0.45,0.3,0.91
0.46,0.3,0.88
0.47,0.3,0.87
0.47,0.3,0.86
0.47,0.3,0.85
0.46,0.31,0.83
0.45,0.31,0.82
0.45,0.32,0.8
0.45,0.32,0.79
0.45,0.32,0.77
0.45,0.33,0.73
0.45,0.34,0.71
0.46,0.35,0.7
0.44,0.35,0.69
0.44,0.38,0.66
0.46,0.4,0.66
0.46,0.4,0.65
0.44,0.41,0.64
0.44,0.42,0.63
0.43,0.43,0.62
0.42,0.43,0.62
0.42,0.44,0.61
0.44,0.45,0.6
0.45,0.46,0.59
0.46,0.48,0.57
0.46,0.48,0.55
0.44,0.49,0.54
0.42,0.5,0.54
0.41,0.51,0.53
0.41,0.51,0.52
0.42,0.52,0.51
0.44,0.52,0.5
0.46,0.52,0.49
0.49,0.52,0.5
0.51,0.53,0.52
0.51,0.55,0.54
0.5,0.56,0.54
0.48,0.58,0.52
0.46,0.58,0.49
0.43,0.58,0.48
0.41,0.58,0.49
0.47,0.56,0.53
0.55,0.54,0.58
0.63,0.53,0.62
0.68,0.52,0.64
0.7,0.52,0.63
0.69,0.52,0.61
0.65,0.51,0.59
0.63,0.49,0.58
0.62,0.49,0.59
0.63,0.48,0.63
0.64,0.47,0.68
0.64,0.47,0.7
0.65,0.46,0.71
0.66,0.46,0.7
0.67,0.47,0.68
0.67,0.46,0.68
0.65,0.45,0.69
0.64,0.45,0.71
0.64,0.45,0.72
0.64,0.46,0.74
0.65,0.46,0.75
0.65,0.46,0.76
0.64,0.46,0.76
0.62,0.46,0.77
0.6,0.46,0.78
0.58,0.46,0.79
0.59,0.46,0.78
0.6,0.47,0.78
0.6,0.47,0.78
0.59,0.47,0.78
0.58,0.47,0.79
0.56,0.47,0.8
0.56,0.47,0.79
0.55,0.47,0.78
0.55,0.47,0.78
0.55,0.46,0.77
0.54,0.46,0.77
0.54,0.45,0.78
0.55,0.44,0.78
0.56,0.44,0.79
0.57,0.43,0.79
0.58,0.42,0.8
0.58,0.4,0.8
0.58,0.39,0.8
0.59,0.38,0.81
0.61,0.38,0.81
0.63,0.38,0.82
0.64,0.38,0.83
0.64,0.39,0.84
0.64,0.4,0.83
0.65,0.41,0.83
0.66,0.42,0.83
0.7,0.45,0.83
0.69,0.47,0.82
0.68,0.47,0.81
0.68,0.48,0.8
0.67,0.49,0.77
0.66,0.49,0.75
0.66,0.49,0.74
0.67,0.5,0.73
0.67,0.5,0.73
0.66,0.5,0.73
0.65,0.51,0.73
0.65,0.51,0.72
0.65,0.52,0.7
0.65,0.52,0.69
0.64,0.52,0.68
0.63,0.52,0.67
0.62,0.53,0.66
0.61,0.54,0.65
0.6,0.54,0.64
0.58,0.54,0.64
0.57,0.55,0.64
0.56,0.55,0.64
0.56,0.55,0.63
0.56,0.55,0.61
0.57,0.55,0.59
0.57,0.56,0.56
0.52,0.55,0.55
0.51,0.56,0.55
0.5,0.56,0.56
0.48,0.56,0.57
0.47,0.56,0.57
0.47,0.57,0.56
0.47,0.57,0.55
0.48,0.57,0.53
0.48,0.57,0.52
0.47,0.57,0.52
0.45,0.56,0.51
0.43,0.56,0.51
0.42,0.57,0.52
0.4,0.57,0.52
0.38,0.57,0.52
0.36,0.57,0.51
0.34,0.57,0.49
0.32,0.57,0.48
0.31,0.57,0.47
0.32,0.56,0.47
0.34,0.55,0.48
0.35,0.54,0.51
0.35,0.54,0.55
0.34,0.53,0.57
0.35,0.52,0.58
0.36,0.52,0.59
0.36,0.5,0.55
0.39,0.48,0.52
0.39,0.47,0.5
0.38,0.46,0.49
0.36,0.45,0.51
0.36,0.45,0.55
0.39,0.45,0.6
0.42,0.46,0.65
0.46,0.46,0.7
0.5,0.45,0.76
0.51,0.44,0.79
0.5,0.44,0.8
0.46,0.44,0.8
0.43,0.43,0.78
0.41,0.43,0.75
0.39,0.42,0.74
0.39,0.41,0.76
0.41,0.4,0.79
0.43,0.38,0.84
0.45,0.37,0.87
0.47,0.37,0.89
0.49,0.38,0.9
0.51,0.38,0.89
0.5,0.37,0.88
0.46,0.36,0.88
0.43,0.36,0.89
0.42,0.36,0.92
0.42,0.36,0.94
0.46,0.35,0.96
0.49,0.34,0.97
0.5,0.34,0.97
0.5,0.33,0.96
0.5,0.33,0.96
0.49,0.33,0.96
0.47,0.34,0.99
0.47,0.35,0.98
0.48,0.35,0.96
0.47,0.36,0.94
0.46,0.36,0.94
0.46,0.37,0.96
0.44,0.37,0.97
0.41,0.36,0.99
0.4,0.35,0.99
0.42,0.35,0.98
0.45,0.35,0.97
0.48,0.35,0.96
0.48,0.35,0.96
0.47,0.35,0.97
0.44,0.35,0.98
0.42,0.35,0.99
0.41,0.35,0.99
0.42,0.35,0.98
0.43,0.35,0.96
0.44,0.35,0.94
0.46,0.35,0.92
0.47,0.35,0.9
0.47,0.35,0.88
0.48,0.34,0.88
0.49,0.34,0.87
0.47,0.34,0.87
0.45,0.34,0.88
0.43,0.34,0.87
0.43,0.34,0.86
0.44,0.34,0.85
0.44,0.34,0.83
0.44,0.35,0.8
0.44,0.35,0.78
0.44,0.36,0.76
0.45,0.37,0.73
0.46,0.38,0.71
0.47,0.39,0.71
0.48,0.39,0.7
0.47,0.4,0.68
0.44,0.42,0.66
0.43,0.43,0.64
0.42,0.43,0.62
0.42,0.43,0.6
0.42,0.44,0.59
0.43,0.44,0.57
0.43,0.44,0.57
0.42,0.45,0.56
0.42,0.46,0.55
0.42,0.47,0.55
0.42,0.47,0.53
0.42,0.48,0.51
0.42,0.48,0.5
0.43,0.49,0.47
0.43,0.5,0.45
0.44,0.5,0.45
0.45,0.51,0.46
0.55,0.52,0.51
0.55,0.52,0.51
0.59,0.51,0.52
0.61,0.51,0.54
0.6,0.51,0.55
0.58,0.52,0.51
0.58,0.52,0.49
0.55,0.51,0.5
0.57,0.5,0.52
0.6,0.51,0.54
0.64,0.52,0.58
0.63,0.52,0.57
0.62,0.52,0.56
0.62,0.51,0.55
0.62,0.5,0.55
0.64,0.49,0.57
0.66,0.48,0.58
0.68,0.48,0.6
0.7,0.47,0.62
0.71,0.47,0.64
0.7,0.46,0.67
0.7,0.46,0.69
0.7,0.46,0.7
0.7,0.45,0.7
0.68,0.45,0.71
0.68,0.45,0.73
0.67,0.45,0.74
0.67,0.45,0.74
0.68,0.46,0.75
0.69,0.46,0.75
0.68,0.46,0.74
0.68,0.45,0.75
0.69,0.45,0.75
0.68,0.45,0.76
0.65,0.45,0.75
0.68,0.45,0.74
0.78,0.48,0.8
0.8,0.53,0.84
0.66,0.53,0.86
0.49,0.5,0.87
0.46,0.48,0.84
0.56,0.48,0.79
0.64,0.48,0.79
0.65,0.45,0.8
0.65,0.43,0.79
0.68,0.42,0.76
0.68,0.41,0.76
0.67,0.41,0.76
0.66,0.42,0.76
0.64,0.42,0.77
0.61,0.42,0.78
0.59,0.43,0.79
0.59,0.43,0.79
0.59,0.44,0.79
0.58,0.44,0.79
0.58,0.44,0.78
0.59,0.45,0.77
0.61,0.46,0.77
0.62,0.46,0.76
0.61,0.47,0.77
0.61,0.47,0.77
0.6,0.47,0.77
0.59,0.48,0.77
0.58,0.48,0.76
0.57,0.47,0.75
0.57,0.48,0.75
0.58,0.48,0.74
0.59,0.49,0.74
0.6,0.5,0.73
0.6,0.5,0.72
0.6,0.51,0.71
0.59,0.52,0.71
0.59,0.51,0.71
0.58,0.52,0.71
0.57,0.52,0.7
0.57,0.53,0.69
0.57,0.54,0.68
0.55,0.54,0.67
0.53,0.54,0.65
0.53,0.54,0.63
0.53,0.54,0.61
0.53,0.54,0.6
0.53,0.54,0.6
0.53,0.53,0.6
0.52,0.53,0.59
0.49,0.53,0.58
0.48,0.53,0.57
0.48,0.53,0.57
0.48,0.54,0.56
0.47,0.54,0.55
0.47,0.54,0.53
0.48,0.54,0.52
0.48,0.54,0.5
0.47,0.53,0.49
0.46,0.51,0.5
0.46,0.5,0.52
0.46,0.51,0.54
0.46,0.51,0.57
0.46,0.52,0.58
0.47,0.52,0.58
0.47,0.52,0.57
0.47,0.52,0.56
0.48,0.51,0.55
0.47,0.5,0.55
0.46,0.5,0.54
0.46,0.49,0.55
0.45,0.49,0.57
0.45,0.49,0.58
0.44,0.49,0.58
0.43,0.49,0.58
0.45,0.49,0.57
0.46,0.48,0.57
0.43,0.47,0.59
0.39,0.45,0.65
0.38,0.44,0.69
0.38,0.44,0.71
0.4,0.44,0.72
0.43,0.43,0.72
0.46,0.42,0.72
0.47,0.41,0.71
0.45,0.4,0.74
0.43,0.4,0.77
0.4,0.4,0.79
0.38,0.4,0.81
0.4,0.39,0.83
0.42,0.39,0.83
0.44,0.38,0.84
0.44,0.37,0.85
0.44,0.37,0.87
0.42,0.36,0.88
0.39,0.36,0.89
0.39,0.35,0.9
0.4,0.35,0.9
0.42,0.35,0.91
0.43,0.33,0.92
0.44,0.33,0.93
0.44,0.32,0.94
0.45,0.32,0.95
0.45,0.32,0.96
0.45,0.31,0.97
0.44,0.31,0.98
0.44,0.31,0.98
0.43,0.31,0.97
0.43,0.31,0.97
0.45,0.31,0.96
0.45,0.32,0.95
0.46,0.32,0.96
0.46,0.32,0.97
0.46,0.33,0.97
0.45,0.33,0.97
0.44,0.33,0.96
0.44,0.33,0.95
0.43,0.33,0.95
0.43,0.33,0.95
0.42,0.33,0.95
0.42,0.32,0.95
0.43,0.32,0.94
0.44,0.33,0.93
0.45,0.34,0.92
0.45,0.34,0.93
0.45,0.34,0.94
0.44,0.34,0.95
0.43,0.34,0.98
0.42,0.33,1
0.41,0.33,1.02
0.42,0.34,1.02
0.51,0.36,0.81
0.51,0.36,0.8
0.51,0.36,0.79
0.49,0.37,0.78
0.46,0.37,0.78
0.44,0.38,0.78
0.43,0.49,0.54
0.42,0.49,0.54
0.41,0.5,0.53
0.41,0.5,0.53
0.43,0.51,0.52
0.45,0.52,0.5
0.46,0.53,0.5
0.46,0.54,0.5
0.47,0.56,0.49
0.46,0.57,0.48
0.45,0.57,0.47
0.44,0.58,0.46
0.44,0.58,0.45
0.45,0.59,0.45
0.45,0.59,0.47
0.45,0.6,0.48
0.47,0.6,0.48
0.49,0.61,0.47
0.52,0.61,0.46
0.54,0.62,0.46
0.55,0.62,0.47
0.56,0.62,0.49
0.57,0.62,0.49
0.57,0.62,0.47
0.57,0.61,0.46
0.57,0.61,0.46
0.58,0.61,0.46
0.58,0.6,0.47
0.58,0.6,0.48
0.57,0.6,0.5
0.59,0.59,0.5
0.61,0.59,0.51
0.62,0.59,0.51
0.64,0.59,0.53
0.64,0.58,0.55
0.64,0.57,0.56
0.64,0.55,0.57
0.66,0.55,0.58
0.66,0.56,0.58
0.63,0.55,0.61
0.58,0.54,0.61
0.58,0.54,0.61
0.6,0.54,0.62
0.62,0.53,0.65
0.65,0.51,0.68
0.66,0.49,0.72
0.68,0.48,0.74
0.69,0.48,0.75
0.67,0.47,0.75
0.65,0.47,0.75
0.65,0.46,0.74
0.65,0.45,0.75
0.66,0.45,0.75
0.67,0.45,0.77
0.67,0.44,0.79
0.67,0.44,0.8
0.67,0.44,0.81
0.66,0.44,0.8
0.66,0.44,0.79
0.66,0.44,0.78
0.65,0.45,0.77
0.64,0.45,0.77
0.64,0.45,0.77
0.64,0.45,0.79
0.64,0.45,0.8
0.65,0.45,0.79
0.67,0.45,0.79
0.67,0.46,0.79
0.66,0.46,0.78
0.66,0.46,0.78
0.65,0.47,0.77
0.65,0.47,0.77
0.67,0.47,0.77
0.67,0.47,0.78
0.67,0.48,0.78
0.69,0.48,0.77
0.69,0.49,0.76
0.7,0.49,0.75
0.7,0.49,0.72
0.69,0.49,0.7
0.68,0.49,0.68
0.67,0.5,0.68
0.67,0.51,0.68
0.67,0.51,0.69
0.66,0.52,0.69
0.65,0.53,0.69
0.64,0.54,0.67
0.64,0.54,0.65
0.64,0.54,0.63
0.65,0.54,0.61
0.64,0.53,0.59
0.62,0.53,0.59
0.59,0.53,0.59
0.57,0.53,0.6
0.56,0.54,0.61
0.55,0.54,0.6
0.55,0.55,0.59
0.56,0.55,0.58
0.56,0.55,0.56
0.55,0.55,0.55
0.54,0.54,0.56
0.53,0.53,0.56
0.52,0.53,0.57
0.5,0.53,0.58
0.49,0.54,0.57
0.49,0.54,0.55
0.49,0.53,0.53
0.48,0.53,0.51
0.47,0.53,0.5
0.45,0.53,0.5
0.43,0.53,0.5
0.41,0.52,0.52
0.39,0.52,0.54
0.38,0.52,0.57
0.37,0.53,0.59
0.39,0.53,0.59
0.39,0.54,0.57
0.4,0.53,0.55
0.4,0.51,0.52
0.39,0.5,0.53
0.39,0.48,0.57
0.38,0.47,0.63
0.38,0.47,0.68
0.39,0.47,0.7
0.4,0.48,0.7
0.41,0.49,0.68
0.41,0.49,0.65
0.4,0.48,0.63
0.39,0.47,0.62
0.38,0.47,0.64
0.38,0.46,0.67
0.4,0.46,0.71
0.45,0.46,0.74
0.48,0.45,0.76
0.49,0.44,0.77
0.48,0.44,0.76
0.46,0.43,0.75
0.43,0.42,0.76
0.39,0.4,0.78
0.36,0.4,0.81
0.36,0.4,0.82
0.39,0.41,0.83
0.42,0.41,0.83
0.46,0.41,0.83
0.43,0.35,0.88
0.43,0.35,0.88
0.41,0.34,0.89
0.42,0.33,0.89
0.43,0.33,0.88
0.44,0.33,0.88
0.46,0.33,0.89
0.47,0.33,0.9
0.48,0.33,0.92
0.49,0.33,0.93
0.49,0.32,0.94
0.49,0.32,0.94
0.48,0.32,0.94
0.45,0.32,0.94
0.44,0.33,0.94
0.43,0.34,0.93
0.44,0.34,0.94
0.44,0.34,0.95
0.45,0.34,0.97
0.45,0.35,0.97
0.44,0.35,0.96
0.44,0.35,0.96
0.43,0.35,0.96
0.41,0.35,0.97
0.4,0.35,0.99
0.38,0.35,1
0.38,0.35,1
0.39,0.35,1
0.4,0.35,1
0.4,0.35,1
0.41,0.36,1.01
0.4,0.35,1.01
0.4,0.35,1.03
0.4,0.35,1.03
0.39,0.34,1.04
0.38,0.35,1.04
0.37,0.35,1.05
0.37,0.35,1.04
0.37,0.35,1.02
0.38,0.35,1
0.4,0.34,0.97
0.42,0.34,0.95
0.44,0.34,0.93
0.47,0.33,0.9
0.49,0.34,0.88
0.5,0.35,0.86
0.5,0.36,0.84
0.49,0.36,0.82
0.48,0.36,0.81
0.46,0.36,0.8
0.44,0.36,0.78
0.46,0.36,0.75
0.47,0.37,0.73
0.46,0.37,0.7
0.45,0.38,0.69
0.44,0.39,0.68
0.45,0.4,0.66
0.46,0.41,0.65
0.47,0.41,0.65
0.46,0.42,0.64
0.45,0.43,0.63
0.45,0.44,0.6
0.44,0.45,0.58
0.43,0.45,0.57
0.43,0.46,0.55
0.43,0.47,0.54
0.42,0.47,0.52
0.4,0.48,0.52
0.4,0.49,0.51
0.4,0.5,0.51
0.41,0.51,0.51
0.41,0.51,0.5
0.41,0.52,0.49
0.42,0.52,0.5
0.44,0.52,0.5
0.47,0.52,0.52
0.52,0.54,0.54
0.52,0.54,0.53
0.52,0.54,0.53
0.52,0.54,0.53
0.51,0.54,0.54
0.51,0.55,0.57
0.51,0.55,0.57
0.53,0.55,0.56
0.55,0.54,0.56
0.57,0.54,0.56
0.59,0.53,0.56
0.6,0.53,0.56
0.59,0.52,0.57
0.59,0.51,0.58
0.59,0.5,0.59
0.59,0.5,0.59
0.59,0.5,0.6
0.59,0.5,0.61
0.59,0.5,0.64
0.6,0.5,0.67
0.63,0.49,0.7
0.68,0.46,0.71
0.67,0.46,0.7
0.64,0.46,0.7
0.62,0.46,0.7
0.62,0.46,0.72
0.62,0.46,0.75
0.65,0.45,0.79
0.65,0.45,0.79
0.66,0.45,0.8
0.66,0.45,0.81
0.65,0.45,0.81
0.65,0.44,0.8
0.61,0.45,0.8
0.6,0.44,0.81
0.61,0.44,0.84
0.61,0.44,0.83
0.62,0.44,0.81
0.63,0.43,0.8
0.63,0.43,0.79
0.62,0.44,0.78
0.63,0.44,0.77
0.63,0.45,0.77
0.62,0.45,0.77
0.62,0.45,0.78
0.62,0.45,0.78
0.63,0.45,0.77
0.63,0.46,0.76
0.62,0.47,0.74
0.61,0.47,0.72
0.63,0.47,0.7
0.63,0.47,0.69
0.63,0.47,0.68
0.63,0.48,0.67
0.63,0.49,0.66
0.61,0.5,0.67
0.59,0.5,0.67
0.58,0.5,0.68
0.58,0.51,0.67
0.58,0.51,0.66
0.57,0.52,0.64
0.56,0.54,0.62
0.55,0.54,0.61
0.55,0.54,0.6
0.54,0.55,0.61
0.52,0.55,0.61
0.51,0.55,0.62
0.5,0.55,0.63
0.49,0.56,0.63
0.47,0.57,0.62
0.46,0.57,0.6
0.46,0.57,0.57
0.46,0.57,0.54
0.45,0.56,0.53
0.43,0.55,0.53
0.41,0.54,0.54
0.39,0.54,0.57
0.38,0.54,0.61
0.37,0.54,0.63
0.37,0.55,0.63
0.38,0.56,0.62
0.39,0.56,0.61
0.41,0.55,0.6
0.42,0.54,0.59
0.4,0.52,0.58
0.39,0.49,0.59
0.39,0.47,0.6
0.38,0.46,0.63
0.35,0.46,0.64
0.35,0.46,0.63
0.36,0.45,0.61
0.38,0.44,0.6
0.4,0.42,0.61
0.42,0.41,0.65
0.45,0.39,0.7
0.45,0.38,0.74
0.44,0.37,0.77
0.42,0.37,0.77
0.4,0.37,0.76
0.39,0.37,0.74
0.4,0.37,0.73
0.4,0.36,0.74
0.41,0.35,0.75
0.43,0.34,0.78
0.46,0.33,0.82
0.47,0.33,0.85
0.47,0.34,0.86
0.46,0.34,0.86
0.45,0.35,0.85
0.44,0.35,0.84
0.41,0.34,0.83
0.39,0.34,0.86
0.39,0.33,0.88
0.4,0.34,0.91
0.46,0.34,0.91
0.47,0.34,0.91
0.47,0.34,0.89
0.46,0.33,0.89
0.46,0.33,0.89
0.45,0.33,0.9
0.44,0.33,0.91
0.44,0.33,0.92
0.42,0.33,0.94
0.4,0.33,0.95
0.4,0.34,0.95
0.41,0.35,0.94
0.42,0.35,0.93
0.42,0.36,0.93
0.42,0.37,0.94
0.42,0.37,0.95
0.42,0.37,0.96
0.43,0.37,0.96
0.42,0.37,0.96
0.41,0.37,0.97
0.41,0.36,0.97
0.41,0.36,0.98
0.4,0.36,0.99
0.4,0.35,1
0.41,0.35,1
0.42,0.34,1
0.43,0.35,0.99
0.43,0.35,0.99
0.43,0.35,0.99
0.43,0.35,0.99
0.42,0.35,0.99
0.41,0.35,0.99
0.41,0.35,0.99
0.41,0.35,0.98
0.41,0.35,0.97
0.41,0.34,0.96
0.4,0.34,0.94
0.41,0.33,0.92
0.43,0.32,0.9
0.45,0.32,0.89
0.47,0.32,0.88
0.48,0.32,0.87
0.48,0.32,0.86
0.47,0.32,0.84
0.46,0.32,0.83
0.45,0.33,0.83
0.44,0.35,0.82
0.44,0.36,0.82
0.44,0.37,0.8
0.44,0.38,0.8
0.44,0.39,0.79
0.44,0.39,0.76
0.47,0.4,0.71
0.49,0.42,0.7
0.5,0.43,0.69
0.5,0.44,0.68
0.49,0.45,0.67
0.49,0.45,0.67
0.48,0.46,0.66
0.48,0.47,0.66
0.46,0.47,0.65
0.45,0.47,0.64
0.44,0.47,0.62
0.44,0.48,0.61
0.44,0.48,0.59
0.44,0.49,0.58
0.45,0.49,0.58
0.46,0.5,0.57
0.47,0.5,0.57
0.46,0.5,0.56
0.46,0.51,0.55
0.46,0.52,0.54
0.45,0.53,0.53
0.44,0.55,0.52
0.44,0.56,0.51
0.44,0.56,0.51
0.44,0.56,0.51
0.44,0.56,0.49
0.45,0.56,0.49
0.48,0.55,0.49
0.51,0.55,0.5
0.51,0.55,0.51
0.49,0.55,0.52
0.5,0.54,0.52
0.53,0.54,0.5
0.55,0.54,0.5
0.57,0.54,0.5
0.57,0.53,0.52
0.56,0.53,0.54
0.54,0.53,0.55
0.54,0.53,0.55
0.56,0.53,0.53
0.59,0.54,0.52
0.61,0.53,0.54
0.62,0.52,0.57
0.64,0.51,0.63
0.65,0.5,0.66
0.65,0.49,0.66
0.66,0.49,0.65
0.67,0.49,0.62
0.66,0.49,0.61
0.66,0.48,0.61
0.64,0.48,0.63
0.64,0.48,0.66
0.65,0.48,0.7
0.68,0.48,0.69
0.69,0.48,0.69
0.7,0.48,0.69
0.7,0.47,0.7
0.69,0.47,0.71
0.69,0.46,0.71
0.69,0.46,0.72
0.69,0.46,0.72
0.67,0.45,0.72
0.66,0.45,0.74
0.66,0.45,0.76
0.66,0.45,0.77
0.66,0.45,0.78
0.67,0.44,0.78
0.67,0.44,0.77
0.67,0.44,0.77
0.67,0.44,0.77
0.67,0.44,0.77
0.67,0.44,0.77
0.66,0.45,0.77
0.66,0.44,0.77
0.66,0.45,0.78
0.67,0.45,0.78
0.67,0.45,0.79
0.68,0.45,0.79
0.69,0.46,0.78
0.7,0.46,0.78
0.69,0.47,0.78
0.69,0.48,0.77
0.69,0.48,0.76
0.68,0.48,0.76
0.68,0.48,0.75
0.68,0.48,0.74
0.68,0.48,0.73
0.67,0.48,0.72
0.66,0.49,0.72
0.66,0.48,0.72
0.65,0.48,0.72
0.64,0.48,0.71
0.64,0.48,0.7
0.63,0.48,0.69
0.62,0.48,0.68
0.61,0.48,0.67
0.61,0.49,0.67
0.6,0.49,0.67
0.59,0.49,0.66
0.59,0.5,0.65
0.59,0.5,0.65
0.6,0.5,0.64
0.59,0.5,0.63
0.58,0.5,0.62
0.57,0.51,0.62
0.54,0.52,0.62
0.54,0.52,0.61
0.54,0.52,0.6
0.54,0.52,0.58
0.53,0.53,0.58
0.52,0.54,0.57
0.51,0.55,0.57
0.51,0.54,0.57
0.51,0.54,0.56
0.5,0.55,0.56
0.49,0.56,0.56
0.47,0.55,0.55
0.45,0.56,0.54
0.43,0.56,0.55
0.4,0.56,0.55
0.38,0.56,0.56
0.38,0.55,0.56
0.39,0.55,0.55
0.4,0.56,0.54
0.4,0.56,0.53
0.4,0.55,0.51
0.4,0.54,0.51
0.41,0.52,0.51
0.4,0.51,0.54
0.4,0.51,0.59
0.41,0.5,0.65
0.42,0.5,0.64
0.43,0.49,0.62
0.44,0.48,0.6
0.44,0.47,0.58
0.43,0.46,0.57
0.42,0.46,0.59
0.43,0.46,0.6
0.44,0.47,0.62
0.45,0.46,0.64
0.47,0.45,0.66
0.5,0.44,0.67
0.51,0.43,0.69
0.48,0.35,0.89
0.47,0.35,0.92
0.46,0.35,0.94
0.46,0.34,0.95
0.47,0.34,0.94
0.48,0.34,0.93
0.48,0.34,0.92
0.48,0.35,0.91
0.48,0.35,0.91
0.48,0.35,0.9
0.47,0.35,0.91
0.46,0.34,0.92
0.44,0.34,0.93
0.44,0.34,0.93
0.44,0.34,0.93
0.44,0.33,0.92
0.44,0.33,0.92
0.45,0.33,0.91
0.45,0.34,0.91
0.44,0.33,0.92
0.44,0.33,0.93
0.44,0.33,0.95
0.44,0.33,0.95
0.43,0.33,0.94
0.42,0.33,0.94
0.42,0.33,0.94
0.42,0.32,0.94
0.42,0.32,0.95
0.43,0.33,0.96
0.45,0.32,0.95
0.47,0.33,0.95
0.48,0.33,0.96
0.48,0.33,0.97
0.46,0.33,0.99
0.44,0.33,1.01
0.43,0.33,1.01
0.42,0.34,1
0.41,0.35,0.99
0.41,0.34,0.98
0.42,0.34,0.97
0.42,0.34,0.95
0.42,0.33,0.94
0.44,0.33,0.93
0.44,0.33,0.91
0.46,0.33,0.9
0.47,0.33,0.89
0.48,0.32,0.87
0.48,0.33,0.85
0.49,0.33,0.81
0.48,0.34,0.76
0.47,0.36,0.75
0.48,0.38,0.74
0.48,0.39,0.73
0.48,0.39,0.72
0.48,0.4,0.71
0.49,0.41,0.7
0.49,0.43,0.67
0.49,0.43,0.65
0.48,0.44,0.63
0.47,0.45,0.61
0.46,0.46,0.59
0.45,0.47,0.58
0.44,0.48,0.56
0.44,0.49,0.54
0.45,0.5,0.52
0.46,0.5,0.51
0.46,0.5,0.51
0.48,0.5,0.52
0.5,0.5,0.52
0.52,0.51,0.52
0.55,0.52,0.52
0.58,0.52,0.51
0.59,0.52,0.5
0.57,0.52,0.5
0.54,0.51,0.5
0.54,0.51,0.48
0.55,0.5,0.47
0.55,0.51,0.47
0.56,0.51,0.46
0.56,0.52,0.45
0.57,0.52,0.46
0.59,0.52,0.48
0.6,0.52,0.51
0.61,0.51,0.52
0.62,0.51,0.53
0.63,0.5,0.53
0.62,0.5,0.51
0.61,0.5,0.5
0.59,0.5,0.5
0.58,0.49,0.5
0.59,0.48,0.51
0.61,0.48,0.53
0.63,0.48,0.55
0.64,0.48,0.57
0.64,0.48,0.6
0.64,0.48,0.63
0.63,0.48,0.64
0.63,0.48,0.65
0.63,0.47,0.64
0.64,0.47,0.64
0.65,0.47,0.65
0.67,0.47,0.67
0.69,0.46,0.68
0.71,0.46,0.7
0.72,0.46,0.71
0.71,0.46,0.71
0.69,0.46,0.72
0.67,0.47,0.73
0.65,0.48,0.74
0.64,0.48,0.75
0.63,0.49,0.75
0.63,0.49,0.75
0.63,0.49,0.74
0.64,0.5,0.74
0.65,0.5,0.74
0.65,0.5,0.74
0.65,0.5,0.74
0.65,0.5,0.76
0.65,0.49,0.78
0.64,0.49,0.79
0.63,0.49,0.8
0.63,0.49,0.8
0.64,0.48,0.79
0.64,0.47,0.79
0.66,0.47,0.78
0.68,0.47,0.77
0.68,0.47,0.78
0.68,0.46,0.79
0.68,0.47,0.8
0.66,0.48,0.8
0.66,0.48,0.79
0.65,0.49,0.78
0.66,0.49,0.77
0.67,0.49,0.75
0.67,0.49,0.74
0.67,0.49,0.73
0.67,0.49,0.71
0.68,0.5,0.72
0.67,0.5,0.72
0.65,0.5,0.72
0.64,0.5,0.72
0.64,0.5,0.72
0.64,0.49,0.7
0.64,0.5,0.69
0.63,0.49,0.67
0.61,0.49,0.65
0.61,0.49,0.65
0.61,0.5,0.65
0.61,0.51,0.65
0.6,0.51,0.65
0.59,0.52,0.64
0.58,0.52,0.63
0.58,0.53,0.62
0.59,0.52,0.62
0.59,0.51,0.6
0.57,0.52,0.59
0.55,0.52,0.57
0.53,0.52,0.56
0.53,0.52,0.55
0.54,0.52,0.54
0.54,0.53,0.54
0.53,0.54,0.53
0.52,0.54,0.52
0.52,0.54,0.52
0.52,0.54,0.51
0.51,0.54,0.51
0.51,0.55,0.51
0.49,0.56,0.49
0.48,0.56,0.49
0.48,0.57,0.48
0.47,0.57,0.48
0.46,0.57,0.47
0.46,0.58,0.46
0.45,0.58,0.45
0.44,0.57,0.47
0.41,0.57,0.49
0.4,0.58,0.5
0.38,0.58,0.5
0.37,0.58,0.49
0.36,0.58,0.48
0.35,0.57,0.47
0.34,0.56,0.48
0.34,0.55,0.51
0.36,0.54,0.55
0.38,0.54,0.6
0.4,0.53,0.64
0.41,0.52,0.66
0.43,0.52,0.66
0.44,0.51,0.64
0.44,0.49,0.63
0.44,0.48,0.62
0.45,0.47,0.63
0.44,0.46,0.66
0.43,0.46,0.71
0.42,0.46,0.75
0.42,0.47,0.77
0.43,0.48,0.77
0.46,0.49,0.74
0.47,0.48,0.71
0.49,0.47,0.7
0.5,0.45,0.7
0.5,0.43,0.72
0.5,0.42,0.75
0.51,0.42,0.79
0.52,0.41,0.8
0.53,0.41,0.8
0.53,0.41,0.78
0.52,0.39,0.79
0.53,0.37,0.82
0.55,0.36,0.85
0.56,0.36,0.88
0.57,0.35,0.9
0.56,0.35,0.91
0.55,0.35,0.91
0.55,0.35,0.89
0.56,0.35,0.87
0.57,0.35,0.86
0.58,0.34,0.86
0.58,0.34,0.87
0.58,0.34,0.88
0.58,0.34,0.88
0.58,0.36,0.87
0.58,0.37,0.86
0.57,0.36,0.84
0.57,0.36,0.83
0.56,0.35,0.83
0.55,0.35,0.85
0.54,0.34,0.86
0.54,0.35,0.86
0.54,0.36,0.85
0.55,0.37,0.85
0.55,0.38,0.84
0.53,0.39,0.86
0.52,0.39,0.87
0.53,0.39,0.88
0.53,0.39,0.88
0.53,0.39,0.88
0.52,0.38,0.88
0.52,0.38,0.87
0.53,0.38,0.86
0.54,0.38,0.86
0.53,0.38,0.87
0.53,0.38,0.88
0.53,0.38,0.89
0.53,0.38,0.89
0.52,0.38,0.88
0.51,0.38,0.88
0.5,0.37,0.88
0.5,0.37,0.89
0.5,0.37,0.89
0.49,0.37,0.91
0.48,0.37,0.92
0.46,0.37,0.92
0.45,0.37,0.92
0.45,0.37,0.92
0.45,0.37,0.92
0.44,0.38,0.93
0.43,0.38,0.93
0.43,0.37,0.91
0.45,0.37,0.89
0.46,0.37,0.88
0.49,0.37,0.86
0.51,0.38,0.85
0.51,0.38,0.84
0.5,0.38,0.84
0.49,0.38,0.83
0.47,0.38,0.82
0.46,0.38,0.8
0.44,0.38,0.79
0.43,0.38,0.78
0.43,0.38,0.77
0.44,0.38,0.75
0.46,0.39,0.72
0.48,0.39,0.7
0.49,0.39,0.68
0.5,0.39,0.66
0.49,0.4,0.67
0.46,0.4,0.69
0.45,0.4,0.7
0.45,0.4,0.69
0.44,0.41,0.66
0.42,0.42,0.63
0.42,0.42,0.62
0.43,0.43,0.59
0.46,0.43,0.57
0.53,0.43,0.57
0.55,0.44,0.57
0.54,0.45,0.56
0.53,0.46,0.56
0.51,0.48,0.55
0.49,0.49,0.54
0.47,0.5,0.51
0.44,0.51,0.49
0.42,0.52,0.46
0.4,0.53,0.44
0.41,0.53,0.42
0.44,0.53,0.4
0.47,0.54,0.41
0.49,0.55,0.42
0.49,0.54,0.43
0.47,0.54,0.44
0.47,0.54,0.44
0.47,0.54,0.45
0.5,0.53,0.47
0.54,0.53,0.49
0.56,0.52,0.5
0.59,0.51,0.53
0.64,0.49,0.55
0.68,0.48,0.57
0.7,0.47,0.6
0.71,0.47,0.62
0.71,0.46,0.64
0.68,0.46,0.65
0.69,0.45,0.66
0.71,0.45,0.66
0.72,0.45,0.65
0.75,0.45,0.65
0.75,0.45,0.64
0.75,0.45,0.65
0.74,0.45,0.66
0.73,0.45,0.67
0.71,0.45,0.67
0.7,0.45,0.67
0.69,0.44,0.7
0.68,0.43,0.71
0.65,0.43,0.72
0.64,0.43,0.73
0.64,0.42,0.72
0.64,0.42,0.72
0.64,0.41,0.73
0.65,0.4,0.74
0.66,0.39,0.75
0.66,0.37,0.76
0.67,0.36,0.76
0.66,0.35,0.76
0.65,0.34,0.76
0.64,0.34,0.77
0.64,0.3,0.74
0.78,0.31,0.79
0.86,0.37,0.89
0.75,0.39,0.94
0.59,0.38,0.96
0.5,0.36,0.93
0.52,0.36,0.87
0.6,0.37,0.82
0.63,0.37,0.8
0.59,0.36,0.8
0.56,0.35,0.8
0.56,0.33,0.8
0.58,0.33,0.79
0.61,0.32,0.79
0.63,0.31,0.78
0.63,0.31,0.78
0.63,0.3,0.78
0.64,0.3,0.78
0.66,0.31,0.77
0.67,0.31,0.78
0.66,0.32,0.79
0.66,0.33,0.79
0.65,0.34,0.8
0.65,0.35,0.81
0.66,0.37,0.82
0.66,0.38,0.81
0.67,0.4,0.8
0.68,0.41,0.77
0.68,0.42,0.76
0.68,0.43,0.75
0.68,0.44,0.74
0.68,0.44,0.74
0.67,0.45,0.73
0.66,0.46,0.74
0.66,0.46,0.74
0.65,0.47,0.73
0.65,0.48,0.71
0.65,0.49,0.69
0.65,0.49,0.68
0.64,0.49,0.67
0.64,0.5,0.66
-0.37,0.39,0.71
-0.38,0.52,0.64
-0.29,0.38,0.62
-0.34,0.44,0.68
-0.35,0.56,0.68
-0.23,0.53,0.67
-0.23,0.56,0.7
-0.22,0.6,0.7
-0.19,0.57,0.73
-0.2,0.5,0.75
-0.19,0.5,0.75
-0.19,0.53,0.73
-0.22,0.5,0.74
-0.21,0.45,0.74
-0.17,0.45,0.7
-0.14,0.45,0.73
-0.1,0.43,0.75
-0.09,0.42,0.81
-0.06,0.45,0.82
-0.07,0.48,0.81
-0.11,0.52,0.81
-0.15,0.55,0.81
-0.19,0.55,0.82
-0.22,0.53,0.83
-0.2,0.51,0.83
-0.16,0.5,0.82
-0.13,0.48,0.82
-0.11,0.5,0.83
-0.11,0.52,0.85
-0.13,0.53,0.86
-0.16,0.52,0.87
-0.19,0.52,0.86
-0.21,0.49,0.84
-0.22,0.46,0.83
-0.2,0.43,0.82
-0.17,0.4,0.81
-0.14,0.39,0.81
-0.1,0.38,0.81
-0.1,0.37,0.84
-0.13,0.34,0.88
-0.16,0.34,0.9
-0.17,0.4,0.9
-0.16,0.46,0.86
-0.13,0.53,0.8
-0.13,0.57,0.71
-0.14,0.53,0.74
-0.12,0.48,0.77
-0.07,0.46,0.78
-0.05,0.49,0.73
-0.1,0.56,0.76
-0.1,0.51,0.84
0,0.42,0.83
0.03,0.51,0.76
0.03,0.62,0.74
0.05,0.66,0.73
0.07,0.66,0.7
0.06,0.65,0.72
0.03,0.66,0.74
0.03,0.66,0.76
0.04,0.63,0.76
0.07,0.59,0.74
0.1,0.59,0.71
0.13,0.64,0.68
0.14,0.77,0.64
0.13,0.89,0.6
0.13,0.95,0.59
0.14,0.98,0.58
0.15,0.97,0.59
0.18,0.95,0.59
0.2,0.93,0.59
0.2,1.04,0.57
0.22,1.08,0.55
0.2,1.06,0.55
0.18,1.04,0.56
0.18,1.01,0.55
0.21,0.97,0.55
0.27,0.94,0.57
0.29,0.91,0.61
0.26,0.88,0.68
0.21,0.84,0.75
0.2,0.79,0.79
0.2,0.75,0.82
0.19,0.72,0.81
0.19,0.69,0.79
0.17,0.68,0.77
0.15,0.67,0.77
0.12,0.67,0.79
0.05,0.66,0.84
-0.03,0.63,0.88
-0.05,0.62,0.88
-0.07,0.62,0.88
-0.08,0.63,0.86
-0.08,0.63,0.84
-0.09,0.61,0.82
-0.13,0.59,0.82
-0.18,0.57,0.82
-0.2,0.54,0.82
-0.18,0.52,0.83
-0.15,0.5,0.84
-0.11,0.49,0.86
-0.1,0.48,0.88
-0.09,0.48,0.87
-0.1,0.46,0.87
-0.13,0.43,0.88
-0.13,0.42,0.87
-0.12,0.4,0.86
-0.13,0.39,0.86
-0.13,0.4,0.87
-0.11,0.4,0.89
-0.08,0.4,0.91
-0.06,0.39,0.92
-0.06,0.39,0.93
-0.08,0.38,0.93
-0.08,0.37,0.92
-0.11,0.36,0.9
-0.13,0.34,0.89
-0.14,0.35,0.88
-0.15,0.35,0.88
-0.15,0.35,0.87
-0.14,0.36,0.88
-0.13,0.36,0.89
-0.13,0.35,0.91
-0.13,0.34,0.94
-0.15,0.34,0.94
-0.16,0.34,0.93
-0.17,0.34,0.91
-0.17,0.34,0.89
-0.18,0.34,0.88
-0.17,0.36,0.87
-0.17,0.37,0.88
-0.18,0.36,0.89
-0.18,0.36,0.91
-0.18,0.36,0.92
-0.18,0.37,0.91
-0.19,0.36,0.91
-0.17,0.37,0.9
-0.18,0.38,0.89
-0.19,0.4,0.88
-0.18,0.4,0.88
-0.19,0.4,0.87
-0.21,0.4,0.88
-0.2,0.38,0.88
-0.19,0.37,0.89
-0.18,0.38,0.88
-0.17,0.38,0.88
-0.17,0.39,0.88
-0.17,0.39,0.88
-0.18,0.37,0.89
-0.19,0.39,0.9
-0.2,0.37,0.89
-0.19,0.41,0.88
-0.17,0.42,0.87
-0.19,0.39,0.88
-0.17,0.4,0.88
-0.14,0.4,0.88
-0.16,0.42,0.89
-0.17,0.45,0.89
-0.17,0.44,0.89
-0.17,0.41,0.89
-0.17,0.41,0.88
-0.16,0.42,0.88
-0.15,0.4,0.89
-0.16,0.4,0.89
-0.17,0.42,0.87
-0.15,0.42,0.88
-0.15,0.43,0.89
-0.15,0.45,0.87
-0.14,0.46,0.87
-0.14,0.48,0.87
-0.13,0.5,0.84
-0.13,0.49,0.83
-0.15,0.51,0.86
-0.15,0.5,0.93
-0.16,0.45,0.93
-0.14,0.39,0.89
-0.06,0.37,0.86
-0.07,0.41,0.85
-0.07,0.45,0.86
-0.08,0.45,0.87
-0.11,0.45,0.88
-0.14,0.45,0.89
-0.15,0.44,0.9
-0.11,0.44,0.9
-0.08,0.42,0.9
-0.08,0.4,0.91
-0.09,0.39,0.91
-0.1,0.38,0.91
-0.11,0.36,0.91
-0.11,0.37,0.9
-0.09,0.4,0.9
-0.08,0.42,0.91
-0.06,0.41,0.91
-0.06,0.4,0.92
-0.05,0.39,0.92
-0.04,0.39,0.91
-0.06,0.41,0.89
-0.07,0.42,0.88
-0.07,0.4,0.89
-0.08,0.38,0.85
-0.07,0.38,0.87
-0.05,0.38,0.92
-0.06,0.39,0.93
-0.05,0.38,0.93
-0.06,0.37,0.91
-0.07,0.38,0.92
-0.06,0.38,0.94
-0.06,0.37,0.94
-0.08,0.38,0.93
-0.1,0.37,0.93
-0.07,0.37,0.92
-0.06,0.38,0.9
-0.07,0.39,0.9
-0.07,0.38,0.91
-0.07,0.37,0.93
-0.04,0.36,0.93
-0.02,0.35,0.94
-0.02,0.34,0.95
-0.02,0.35,0.94
-0.01,0.35,0.94
0.01,0.34,0.94
0.01,0.33,0.93
-0.02,0.33,0.93
-0.01,0.39,0.92
-0.01,0.37,0.93
-0.04,0.31,0.94
-0.05,0.33,0.92
-0.05,0.33,0.93
-0.03,0.32,0.94
-0.1,0.32,0.94
-0.11,0.3,0.94
-0.09,0.29,0.94
-0.05,0.3,0.94
-0.02,0.3,0.93
-0.03,0.3,0.94
-0.07,0.31,0.94
-0.11,0.31,0.94
-0.13,0.32,0.95
-0.13,0.31,0.96
-0.07,0.31,0.93
-0.02,0.32,0.91
0,0.33,0.93
0,0.31,0.95
0,0.3,0.94
0.02,0.3,0.93
0.02,0.31,0.92
0.04,0.3,0.92
0.08,0.31,0.93
0.09,0.31,0.96
0.06,0.29,1
0.03,0.28,1.02
0.06,0.29,1
0.08,0.3,0.98
0.08,0.3,0.99
0.09,0.32,1.03
0.04,0.33,1.07
0.07,0.32,1.07
0.09,0.31,1.05
0.09,0.3,1.05
0.09,0.3,1.06
0.11,0.29,1.03
0.1,0.29,1.02
0.09,0.3,1.02
0.09,0.32,1.01
0.1,0.33,1
0.13,0.33,1
0.14,0.33,1
0.13,0.2,0.96
0.15,0.16,0.93
0.19,0.26,0.93
0.19,0.27,0.91
0.19,0.28,0.9
0.22,0.29,0.9
0.24,0.29,0.91
0.25,0.29,0.92
0.23,0.32,0.93
0.18,0.35,0.95
0.16,0.32,0.94
0.16,0.3,0.91
0.17,0.3,0.91
0.2,0.29,0.9
0.26,0.3,0.92
0.27,0.33,0.89
0.25,0.33,0.9
0.26,0.33,0.89
0.29,0.34,0.85
0.29,0.35,0.88
0.19,0.31,0.92
0.09,0.29,0.93
0,0.28,0.92
-0.11,0.36,0.94
-0.26,0.45,0.97
-0.06,0.27,0.92
0.27,0.16,0.92
0.26,0.3,0.94
0.16,0.4,0.91
0.26,0.4,0.91
0.38,0.42,0.89
0.37,0.44,0.84
0.39,0.42,0.81
0.38,0.37,0.81
0.35,0.36,0.83
0.33,0.38,0.84
0.35,0.39,0.83
0.36,0.38,0.84
0.37,0.38,0.86
0.36,0.37,0.89
0.28,0.36,0.9
0.27,0.36,0.91
0.27,0.35,0.91
0.27,0.36,0.9
0.27,0.36,0.87
0.28,0.36,0.86
0.3,0.37,0.85
0.32,0.39,0.84
0.33,0.38,0.85
0.33,0.36,0.86
0.34,0.37,0.86
0.37,0.38,0.86
0.38,0.35,0.87
0.4,0.37,0.88
0.41,0.4,0.88
0.37,0.35,0.88
0.37,0.38,0.86
0.44,0.4,0.84
0.41,0.37,0.85
0.35,0.38,0.84
0.34,0.37,0.83
0.35,0.37,0.83
0.37,0.37,0.82
0.39,0.38,0.82
0.55,0.22,0.53
0.52,0.37,0.58
0.46,0.34,0.8
0.46,0.42,0.82
0.46,0.41,0.8
0.47,0.37,0.8
0.45,0.39,0.81
0.43,0.43,0.8
0.46,0.43,0.79
0.48,0.41,0.79
0.45,0.45,0.8
0.45,0.46,0.8
0.47,0.39,0.78
0.48,0.38,0.77
0.49,0.45,0.76
0.51,0.44,0.73
0.56,0.34,0.73
0.59,0.32,0.74
0.55,0.4,0.75
0.53,0.37,0.75
0.49,0.39,0.76
0.49,0.48,0.75
0.51,0.49,0.73
0.49,0.47,0.71
0.49,0.47,0.71
0.52,0.42,0.72
0.54,0.4,0.72
0.53,0.43,0.73
0.54,0.44,0.74
0.51,0.44,0.74
0.53,0.46,0.71
0.52,0.46,0.7
0.5,0.48,0.71
0.5,0.49,0.7
0.51,0.47,0.67
0.53,0.46,0.65
0.56,0.46,0.64
0.58,0.46,0.64
0.59,0.46,0.65
0.59,0.46,0.66
0.54,0.46,0.68
0.55,0.47,0.68
0.62,0.51,0.66
0.62,0.52,0.65
0.57,0.49,0.66
0.53,0.47,0.68
0.53,0.45,0.69
0.67,0.68,0.86
0.6,0.46,0.86
0.49,0.19,0.69
0.61,0.5,0.67
0.67,0.57,0.64
0.63,0.54,0.65
0.58,0.49,0.67
0.55,0.47,0.67
0.6,0.48,0.65
0.61,0.5,0.64
0.63,0.51,0.62
0.61,0.5,0.63
0.61,0.49,0.62
0.64,0.47,0.6
0.61,0.48,0.61
0.6,0.5,0.61
0.58,0.49,0.62
0.56,0.48,0.65
0.54,0.45,0.67
0.54,0.43,0.69
0.54,0.44,0.7
0.51,0.44,0.69
0.51,0.45,0.69
0.56,0.46,0.66
0.61,0.45,0.62
0.63,0.44,0.61
0.66,0.43,0.6
0.68,0.42,0.6
0.67,0.43,0.62
0.65,0.42,0.63
0.67,0.43,0.6
0.72,0.46,0.59
0.72,0.45,0.61
0.71,0.43,0.64
0.71,0.42,0.65
0.68,0.43,0.66
0.66,0.44,0.65
0.65,0.46,0.63
0.66,0.46,0.61
0.66,0.45,0.62
0.67,0.43,0.63
0.7,0.42,0.62
0.71,0.42,0.63
0.71,0.42,0.63
0.71,0.43,0.62
0.7,0.44,0.6
0.67,0.44,0.6
0.65,0.43,0.61
0.66,0.42,0.63
0.68,0.42,0.63
0.68,0.43,0.63
0.66,0.43,0.65
0.66,0.44,0.65
0.64,0.44,0.66
0.62,0.44,0.66
0.64,0.42,0.65
0.64,0.42,0.65
0.61,0.43,0.65
0.62,0.43,0.63
0.65,0.43,0.62
0.67,0.42,0.61
0.69,0.41,0.59
0.69,0.42,0.6
0.68,0.42,0.6
0.67,0.42,0.6
0.68,0.42,0.6
0.68,0.43,0.61
0.68,0.42,0.62
0.68,0.42,0.62
0.66,0.42,0.63
0.63,0.43,0.64
0.61,0.44,0.63
0.59,0.44,0.63
0.59,0.43,0.61
0.61,0.41,0.6
0.64,0.4,0.61
0.66,0.4,0.61
0.66,0.41,0.62
0.65,0.41,0.62
0.64,0.42,0.62
0.64,0.41,0.63
0.67,0.4,0.63
0.68,0.4,0.63
0.69,0.4,0.64
0.7,0.4,0.65
0.7,0.4,0.66
0.68,0.4,0.67
0.68,0.4,0.67
0.67,0.4,0.69
0.66,0.41,0.71
0.66,0.41,0.71
0.64,0.4,0.73
0.61,0.4,0.73
0.57,0.4,0.74
0.51,0.4,0.77
0.47,0.41,0.8
0.46,0.44,0.81
0.45,0.45,0.81
0.43,0.46,0.77
0.43,0.5,0.76
0.49,0.54,0.77
0.55,0.51,0.72
0.62,0.37,0.49
0.86,0.16,0.53
0.97,-0.04,0.63
0.76,-0.05,0.59
0.57,0.08,0.69
0.59,0.16,0.69
0.65,0.2,0.68
0.64,0.22,0.69
0.6,0.24,0.72
0.56,0.22,0.73
0.53,0.19,0.77
0.49,0.2,0.77
0.5,0.2,0.77
0.51,0.2,0.77
0.51,0.22,0.76
0.52,0.23,0.74
0.54,0.24,0.74
0.55,0.25,0.73
0.57,0.27,0.72
0.59,0.29,0.7
0.59,0.31,0.68
0.59,0.33,0.66
0.6,0.35,0.64
0.62,0.37,0.63
0.62,0.39,0.62
0.63,0.41,0.61
0.64,0.43,0.59
0.64,0.47,0.57
0.65,0.5,0.57
0.66,0.51,0.57
0.66,0.54,0.57
0.65,0.55,0.59
0.64,0.57,0.6
0.63,0.6,0.6
0.6,0.61,0.57
0.58,0.62,0.54
0.56,0.63,0.49
0.62,0.6,0.47
0.68,0.58,0.46
0.72,0.58,0.48
0.73,0.6,0.49
0.72,0.61,0.49
0.68,0.62,0.48
0.62,0.64,0.48
0.58,0.63,0.49
0.53,0.59,0.53
0.49,0.57,0.58
0.52,0.55,0.6
0.57,0.52,0.61
0.61,0.48,0.63
0.68,0.45,0.65
0.74,0.43,0.65
0.74,0.43,0.66
0.67,0.42,0.69
0.64,0.41,0.69
0.6,0.41,0.68
0.59,0.39,0.71
0.56,0.37,0.75
0.46,0.35,0.79
