Acc_x,Acc_y,Acc_z
0.17,-1.2,0.17
0.16,-1.22,0.19
0.16,-1.24,0.2
0.13,-1.24,0.2
0.11,-1.19,0.21
0.08,-1.03,0.22
-0.03,-0.96,0.2
-0.03,-0.91,0.2
-0.01,-0.86,0.23
0.01,-0.84,0.23
0.04,-0.85,0.23
0.09,-0.88,0.23
0.14,-0.92,0.22
0.17,-0.97,0.21
0.21,-1.02,0.19
0.23,-1.07,0.18
0.26,-1.11,0.19
0.29,-1.14,0.2
0.32,-1.14,0.22
0.44,-0.86,0.35
0.44,-0.86,0.35
0.43,-0.8,0.35
0.43,-0.75,0.37
0.4,-0.75,0.38
0.37,-0.77,0.36
0.37,-0.72,0.34
0.38,-0.68,0.32
0.38,-0.72,0.3
0.36,-0.75,0.25
0.35,-0.81,0.24
0.34,-0.84,0.24
0.33,-0.87,0.25
0.34,-0.89,0.26
0.34,-0.91,0.26
0.32,-0.92,0.27
0.32,-0.93,0.26
0.34,-0.94,0.24
0.35,-0.94,0.23
0.35,-0.94,0.23
0.36,-0.94,0.22
0.37,-0.95,0.22
0.37,-1,0.22
0.36,-1.05,0.22
0.37,-1.09,0.2
0.38,-1.12,0.17
0.39,-1.14,0.15
0.4,-1.15,0.15
0.4,-1.17,0.15
0.38,-1.18,0.13
0.36,-1.19,0.13
0.35,-1.18,0.12
0.35,-1.18,0.1
0.35,-1.18,0.11
0.35,-1.22,0.13
0.34,-1.3,0.11
0.29,-1.37,0.08
0.27,-1.34,0.05
0.29,-1.25,0.03
0.28,-1.18,0.03
0.25,-1.15,0.05
0.22,-1.12,0.08
0.23,-1.13,0.11
0.21,-1.22,0.14
0.19,-1.3,0.14
0.19,-1.32,0.13
0.2,-1.32,0.09
0.19,-1.31,0.06
0.18,-1.31,0.06
0.18,-1.28,0.06
0.18,-1.22,0.05
0.15,-1.18,0.03
0.05,-1.17,0.07
0.05,-1.06,0.06
0.07,-0.94,0.03
0.04,-0.9,0.03
0.05,-0.87,0.03
0.06,-0.85,0.04
0.08,-0.84,0.04
0.09,-0.83,0.03
0.08,-0.85,0.01
0.08,-0.86,-0.03
0.03,-0.89,-0.04
-0.02,-0.9,-0.05
-0.04,-0.9,-0.04
-0.07,-0.91,-0.02
-0.07,-0.93,-0.02
-0.02,-0.97,-0.02
0.04,-1.01,-0.02
0.06,-1.06,-0.02
0.08,-1.11,-0.02
0.12,-1.16,-0.03
0.13,-1.21,-0.04
0.12,-1.25,-0.02
0.12,-1.28,0
0.13,-1.32,0
0.14,-1.34,0.02
0.18,-1.34,0.03
0.19,-1.33,0.03
0.17,-1.35,0.03
0.2,-1.39,0.02
0.18,-1.41,0.03
0.19,-1.42,0.03
0.23,-1.44,0.03
0.2,-1.42,0.04
0.22,-1.4,0.03
0.27,-1.39,0.01
0.3,-1.36,0.06
0.38,-1.34,0.08
0.42,-1.28,0.1
0.44,-1.17,0.1
0.46,-1.09,0.1
0.47,-1.05,0.08
0.45,-1.01,0.08
0.44,-0.96,0.08
0.46,-0.91,0.06
0.47,-0.92,0.06
0.49,-0.96,0.07
0.53,-0.98,0.09
0.56,-1.01,0.12
0.54,-1.03,0.14
0.51,-1.02,0.13
0.47,-1.02,0.14
0.48,-1.01,0.13
0.52,-0.98,0.11
0.55,-0.97,0.09
0.6,-0.96,0.09
0.65,-0.97,0.07
0.68,-0.99,0.07
0.71,-0.97,0.09
0.74,-0.93,0.11
0.76,-0.88,0.12
0.74,-0.85,0.13
0.71,-0.83,0.13
0.56,-0.84,0.12
0.54,-0.88,0.12
0.53,-0.92,0.12
0.53,-0.97,0.12
0.54,-1.03,0.11
0.54,-1.08,0.09
0.55,-1.13,0.08
0.55,-1.19,0.07
0.55,-1.25,0.06
0.54,-1.3,0.08
0.52,-1.37,0.1
0.52,-1.42,0.1
0.55,-1.47,0.09
0.55,-1.53,0.09
0.55,-1.6,0.09
0.55,-1.67,0.08
0.53,-1.7,0.08
0.54,-1.7,0.09
0.54,-1.68,0.09
0.52,-1.63,0.1
0.48,-1.57,0.09
0.46,-1.5,0.09
0.44,-1.43,0.08
0.41,-1.29,0.05
0.38,-1.25,0.02
0.38,-1.25,0
0.37,-1.31,-0.01
0.35,-1.38,-0.02
0.32,-1.42,-0.04
0.3,-1.44,-0.04
0.29,-1.42,-0.04
0.28,-1.36,-0.06
0.25,-1.27,-0.08
0.22,-1.17,-0.09
0.19,-1.08,-0.1
0.16,-1.01,-0.11
0.16,-0.93,-0.09
0.19,-0.87,-0.09
0.19,-0.84,-0.1
0.17,-0.79,-0.11
0.16,-0.74,-0.11
0.16,-0.7,-0.11
0.17,-0.68,-0.12
0.18,-0.67,-0.12
0.19,-0.65,-0.12
0.19,-0.64,-0.12
0.18,-0.63,-0.12
0.19,-0.63,-0.11
0.2,-0.63,-0.12
0.19,-0.64,-0.12
0.2,-0.65,-0.12
0.21,-0.67,-0.12
0.22,-0.67,-0.12
0.23,-0.69,-0.13
0.24,-0.7,-0.15
0.24,-0.72,-0.14
0.24,-0.73,-0.13
0.27,-0.74,-0.13
0.29,-0.77,-0.14
0.32,-0.79,-0.14
0.33,-0.8,-0.13
0.36,-0.82,-0.11
0.38,-0.85,-0.11
0.41,-0.87,-0.1
0.45,-0.88,-0.08
0.46,-0.92,-0.08
0.47,-0.96,-0.07
0.48,-1,-0.07
0.47,-1.06,-0.07
0.46,-1.09,-0.06
0.45,-1.13,-0.04
0.43,-1.18,-0.02
0.43,-1.23,-0.01
0.44,-1.26,0.01
0.44,-1.3,0.02
0.46,-1.34,0.02
0.53,-1.43,0.02
0.55,-1.48,0.02
0.56,-1.51,0.03
0.57,-1.51,0.06
0.56,-1.5,0.07
0.58,-1.49,0.08
0.57,-1.47,0.1
0.57,-1.44,0.11
0.59,-1.4,0.12
0.58,-1.35,0.12
0.58,-1.27,0.14
0.57,-1.21,0.13
0.55,-1.19,0.11
0.58,-1.18,0.11
0.6,-1.19,0.13
0.61,-1.21,0.13
0.6,-1.23,0.14
0.57,-1.23,0.15
0.56,-1.19,0.16
0.57,-1.13,0.16
0.55,-1.05,0.16
0.54,-0.98,0.16
0.53,-0.92,0.15
0.54,-0.87,0.13
0.56,-0.83,0.13
0.57,-0.82,0.12
0.57,-0.84,0.12
0.56,-0.85,0.12
0.55,-0.86,0.13
0.54,-0.88,0.13
0.52,-0.89,0.13
0.51,-0.88,0.12
0.5,-0.88,0.11
0.5,-0.87,0.1
0.49,-0.86,0.09
0.49,-0.84,0.09
0.49,-0.84,0.09
0.5,-0.85,0.08
0.51,-0.86,0.07
0.52,-0.87,0.07
0.53,-0.89,0.08
0.54,-0.92,0.07
0.54,-0.95,0.06
0.55,-0.97,0.04
0.55,-1,0.04
0.55,-1.02,0.05
0.56,-1.04,0.04
0.56,-1.06,0.03
0.55,-1.08,0.03
0.56,-1.09,0.04
0.57,-1.11,0.04
0.58,-1.13,0.03
0.57,-1.17,0.02
0.56,-1.19,0.02
0.56,-1.21,0.04
0.57,-1.23,0.07
0.59,-1.25,0.08
0.59,-1.29,0.07
0.59,-1.34,0.06
0.59,-1.41,0.06
0.59,-1.47,0.06
0.58,-1.52,0.06
0.56,-1.52,0.07
0.55,-1.48,0.08
0.55,-1.44,0.08
0.53,-1.4,0.07
0.51,-1.36,0.06
0.52,-1.33,0.05
0.53,-1.28,0.04
0.52,-1.22,0.03
0.52,-1.17,0.02
0.5,-1.12,0.01
0.49,-1.07,0
0.47,-1.01,0
0.44,-0.96,0
0.41,-0.92,0
0.39,-0.91,-0.01
0.38,-0.91,-0.07
0.37,-0.99,-0.09
0.34,-1.03,-0.11
0.32,-1.09,-0.13
0.31,-1.15,-0.13
0.31,-1.14,-0.12
0.28,-1.06,-0.11
0.26,-0.95,-0.12
0.26,-0.83,-0.13
0.29,-0.74,-0.13
0.31,-0.67,-0.14
0.33,-0.61,-0.14
0.35,-0.58,-0.14
0.34,-0.56,-0.14
0.33,-0.54,-0.14
0.31,-0.54,-0.13
0.3,-0.54,-0.14
0.29,-0.54,-0.14
0.28,-0.54,-0.14
0.27,-0.55,-0.13
0.27,-0.55,-0.12
0.28,-0.56,-0.12
0.28,-0.58,-0.12
0.29,-0.61,-0.12
0.31,-0.64,-0.11
0.33,-0.67,-0.11
0.34,-0.7,-0.11
0.37,-0.74,-0.11
0.37,-0.77,-0.11
0.36,-0.79,-0.1
0.37,-0.81,-0.1
0.36,-0.84,-0.09
0.36,-0.86,-0.09
0.36,-0.89,-0.07
0.37,-0.92,-0.05
0.37,-0.96,-0.06
0.36,-1,-0.06
0.38,-1.03,-0.05
0.4,-1.06,-0.04
0.42,-1.08,-0.03
0.42,-1.12,-0.01
0.45,-1.15,0
0.47,-1.18,0
0.49,-1.22,0.02
0.51,-1.25,0.03
0.5,-1.27,0.04
0.51,-1.29,0.05
0.5,-1.33,0.07
0.5,-1.36,0.07
0.5,-1.38,0.06
0.49,-1.4,0.05
0.49,-1.43,0.07
0.47,-1.44,0.08
0.47,-1.45,0.09
0.48,-1.44,0.09
0.48,-1.43,0.09
0.5,-1.38,0.1
0.52,-1.33,0.09
0.54,-1.26,0.07
0.57,-1.18,0.08
0.57,-1.09,0.1
0.55,-1.01,0.1
0.53,-0.94,0.09
0.52,-0.88,0.09
0.49,-0.87,0.09
0.48,-0.89,0.08
0.5,-0.93,0.08
0.5,-0.99,0.09
0.51,-1.05,0.09
0.52,-1.1,0.1
0.51,-1.13,0.11
0.5,-1.14,0.12
0.5,-1.12,0.11
0.5,-1.07,0.1
0.49,-1.01,0.1
0.49,-0.95,0.1
0.51,-0.89,0.1
0.53,-0.86,0.09
0.55,-0.83,0.08
0.56,-0.81,0.07
0.57,-0.81,0.07
0.59,-0.81,0.07
0.59,-0.82,0.07
0.58,-0.84,0.06
0.58,-0.85,0.06
0.6,-0.86,0.06
0.6,-0.88,0.07
0.6,-0.88,0.08
0.61,-0.88,0.09
0.62,-0.88,0.09
0.63,-0.89,0.09
0.63,-0.9,0.08
0.63,-0.92,0.07
0.65,-0.95,0.05
0.65,-0.98,0.04
0.65,-1,0.04
0.64,-1.01,0.05
0.64,-1.02,0.05
0.66,-1.03,0.04
0.66,-1.06,0.03
0.65,-1.1,0.03
0.65,-1.15,0.02
0.65,-1.2,0.02
0.63,-1.25,0.01
0.61,-1.28,0.01
0.61,-1.3,0.03
0.61,-1.32,0.04
0.6,-1.31,0.04
0.59,-1.3,0.04
0.59,-1.27,0.04
0.58,-1.27,0.03
0.56,-1.29,0.02
0.55,-1.32,0.02
0.53,-1.35,0.02
0.5,-1.37,0.02
0.47,-1.36,0.01
0.44,-1.34,0
0.42,-1.31,0.01
0.42,-1.32,0
0.42,-1.34,-0.02
0.42,-1.36,-0.04
0.41,-1.36,-0.04
0.4,-1.32,-0.04
0.37,-1.27,-0.06
0.35,-1.19,-0.06
0.32,-1.11,-0.06
0.32,-1.03,-0.06
0.33,-0.96,-0.07
0.3,-0.91,-0.08
0.28,-0.86,-0.09
0.29,-0.84,-0.08
0.29,-0.83,-0.09
0.26,-0.77,-0.08
0.24,-0.76,-0.08
0.23,-0.74,-0.08
0.22,-0.72,-0.08
0.22,-0.71,-0.08
0.2,-0.7,-0.08
0.19,-0.69,-0.08
0.2,-0.68,-0.08
0.2,-0.68,-0.09
0.2,-0.69,-0.09
0.2,-0.68,-0.09
0.2,-0.68,-0.09
0.2,-0.69,-0.09
0.19,-0.69,-0.09
0.19,-0.69,-0.1
0.19,-0.69,-0.1
0.19,-0.7,-0.1
0.2,-0.72,-0.1
0.2,-0.74,-0.09
0.2,-0.75,-0.09
0.22,-0.77,-0.1
0.25,-0.8,-0.1
0.26,-0.82,-0.1
0.28,-0.84,-0.1
0.3,-0.87,-0.09
0.31,-0.9,-0.06
0.35,-0.93,-0.05
0.35,-0.98,-0.05
0.36,-1.02,-0.04
0.38,-1.06,-0.03
0.4,-1.1,-0.03
0.42,-1.15,-0.02
0.42,-1.22,-0.01
0.43,-1.29,-0.01
0.43,-1.38,0
0.43,-1.46,-0.01
0.44,-1.52,-0.01
0.44,-1.57,0
0.43,-1.58,0.02
0.45,-1.58,0.01
0.48,-1.56,0.02
0.51,-1.52,0.03
0.51,-1.48,0.06
0.52,-1.41,0.09
0.56,-1.31,0.09
0.56,-1.2,0.1
0.55,-1.1,0.09
0.55,-1.01,0.08
0.53,-0.97,0.08
0.5,-0.97,0.09
0.5,-1,0.07
0.49,-1.09,0.06
0.56,-1.36,0.09
0.56,-1.49,0.1
0.55,-1.56,0.1
0.56,-1.55,0.09
0.56,-1.46,0.1
0.56,-1.34,0.11
0.57,-1.18,0.1
0.59,-1.01,0.09
0.59,-0.88,0.07
0.58,-0.78,0.06
0.61,-0.72,0.05
0.61,-0.69,0.04
0.58,-0.71,0.04
0.58,-0.73,0.03
0.61,-0.73,0.03
0.58,-0.75,0.03
0.55,-0.79,0.04
0.58,-0.81,0.05
0.6,-0.82,0.05
0.62,-0.84,0.06
0.62,-0.88,0.06
0.64,-0.92,0.06
0.66,-0.95,0.05
0.68,-0.97,0.05
0.68,-0.98,0.06
0.68,-0.98,0.07
0.69,-0.98,0.07
0.68,-0.98,0.07
0.67,-1,0.08
0.66,-1.02,0.07
0.64,-1.05,0.07
0.62,-1.07,0.06
0.61,-1.1,0.06
0.6,-1.15,0.05
0.6,-1.2,0.04
0.59,-1.24,0.03
0.58,-1.28,0.03
0.56,-1.32,0.03
0.55,-1.33,0.03
0.54,-1.33,0.03
0.52,-1.32,0.02
0.51,-1.3,0.02
0.48,-1.26,0.01
0.46,-1.22,0
0.45,-1.21,0
0.45,-1.24,-0.01
0.44,-1.3,-0.02
0.44,-1.39,-0.03
0.44,-1.48,-0.03
0.43,-1.55,-0.03
0.39,-1.56,-0.02
0.35,-1.52,-0.02
0.34,-1.35,-0.03
0.3,-1.29,-0.03
0.31,-1.25,-0.04
0.3,-1.21,-0.05
0.3,-1.18,-0.05
0.29,-1.15,-0.05
0.28,-1.13,-0.06
0.28,-1.1,-0.07
0.27,-1.07,-0.07
0.26,-1.04,-0.08
0.25,-1.01,-0.08
0.25,-0.98,-0.09
0.25,-0.93,-0.09
0.23,-0.91,-0.09
0.22,-0.88,-0.09
0.23,-0.85,-0.09
0.22,-0.82,-0.1
0.22,-0.79,-0.1
0.22,-0.76,-0.09
0.23,-0.74,-0.09
0.22,-0.72,-0.09
0.22,-0.71,-0.09
0.21,-0.69,-0.08
0.22,-0.68,-0.08
0.22,-0.68,-0.09
0.21,-0.69,-0.08
0.2,-0.69,-0.08
0.19,-0.7,-0.08
0.19,-0.7,-0.07
0.18,-0.71,-0.06
0.19,-0.72,-0.06
0.21,-0.73,-0.06
0.23,-0.74,-0.06
0.24,-0.75,-0.05
0.26,-0.77,-0.05
0.28,-0.79,-0.04
0.3,-0.81,-0.02
0.32,-0.84,-0.01
0.33,-0.87,0
0.34,-0.88,0.01
0.35,-0.9,0.02
0.34,-0.94,0.02
0.34,-0.96,0.02
0.37,-0.99,0.04
0.37,-1.03,0.05
0.38,-1.09,0.06
0.39,-1.16,0.07
0.39,-1.23,0.06
0.41,-1.29,0.05
0.41,-1.36,0.05
0.39,-1.42,0.05
0.39,-1.46,0.04
0.42,-1.49,0.03
0.46,-1.49,0.05
0.48,-1.47,0.06
0.52,-1.45,0.06
0.54,-1.42,0.06
0.55,-1.37,0.08
0.58,-1.33,0.07
0.65,-1.26,0.07
0.6,-1.21,0.09
0.54,-1.17,0.07
0.55,-1.09,0.05
0.51,-1.05,0.07
0.52,-1.02,0.09
0.5,-1.03,0.08
0.48,-1.07,0.08
0.5,-1.11,0.07
0.54,-1.14,0.07
0.56,-1.16,0.06
0.55,-1.19,0.06
0.56,-1.19,0.07
0.56,-1.16,0.08
0.55,-1.11,0.08
0.55,-1.06,0.09
0.55,-1.01,0.08
0.56,-0.98,0.09
0.56,-0.95,0.08
0.55,-0.92,0.06
0.56,-0.88,0.07
0.56,-0.86,0.08
0.56,-0.84,0.08
0.57,-0.83,0.08
0.56,-0.82,0.08
0.58,-0.82,0.08
0.59,-0.82,0.09
0.57,-0.84,0.08
0.59,-0.84,0.08
0.61,-0.85,0.08
0.61,-0.86,0.09
0.62,-0.87,0.08
0.64,-0.89,0.08
0.65,-0.91,0.08
0.65,-0.93,0.08
0.66,-0.96,0.09
0.66,-0.99,0.08
0.65,-1.02,0.07
0.63,-1.03,0.07
0.62,-1.04,0.07
0.61,-1.06,0.06
0.6,-1.08,0.05
0.59,-1.1,0.04
0.59,-1.12,0.05
0.59,-1.14,0.05
0.59,-1.18,0.04
0.6,-1.29,0.03
0.59,-1.33,0.02
0.55,-1.35,0.02
0.53,-1.33,0.02
0.52,-1.28,0.02
0.51,-1.23,0.03
0.51,-1.2,0.03
0.51,-1.2,0.02
0.5,-1.22,0.01
0.49,-1.25,0
0.46,-1.29,0
0.44,-1.33,-0.01
0.42,-1.34,-0.01
0.4,-1.33,-0.02
0.38,-1.32,0
0.37,-1.32,0.03
0.38,-1.33,0.05
0.39,-1.33,0.03
0.38,-1.33,0
0.36,-1.33,-0.02
0.34,-1.29,-0.02
0.31,-1.23,-0.01
0.29,-1.16,-0.02
0.27,-1.08,-0.02
0.27,-1.01,-0.04
0.26,-0.95,-0.06
0.25,-0.85,-0.07
0.25,-0.83,-0.08
0.25,-0.82,-0.08
0.23,-0.81,-0.08
0.23,-0.8,-0.09
0.23,-0.77,-0.09
0.22,-0.76,-0.08
0.22,-0.75,-0.08
0.22,-0.73,-0.08
0.23,-0.71,-0.08
0.24,-0.7,-0.08
0.24,-0.7,-0.08
0.24,-0.7,-0.08
0.24,-0.7,-0.07
0.23,-0.71,-0.07
0.22,-0.71,-0.07
0.21,-0.72,-0.07
0.19,-0.72,-0.07
0.18,-0.72,-0.07
0.18,-0.73,-0.07
0.18,-0.74,-0.07
0.18,-0.75,-0.07
0.2,-0.77,-0.07
0.22,-0.79,-0.07
0.25,-0.8,-0.07
0.27,-0.82,-0.06
0.29,-0.86,-0.04
0.33,-0.88,-0.03
0.35,-0.89,-0.03
0.36,-0.93,-0.01
0.37,-0.96,0.01
0.39,-0.96,0.03
0.39,-1,0.03
0.39,-1.06,0.03
0.41,-1.11,0.04
0.41,-1.18,0.04
0.42,-1.27,0.05
0.44,-1.35,0.04
0.43,-1.42,0.04
0.42,-1.49,0.05
0.42,-1.53,0.05
0.44,-1.56,0.05
0.43,-1.55,0.07
0.47,-1.5,0.08
0.54,-1.43,0.11
0.51,-1.38,0.09
0.48,-1.32,0.03
0.56,-1.22,0.02
0.58,-1.14,0.03
0.57,-1.14,0.06
0.62,-1.14,0.06
0.59,-1.16,0.08
0.55,-1.25,0.07
0.57,-1.28,0.07
0.56,-1.29,0.07
0.56,-1.27,0.08
0.55,-1.23,0.09
0.55,-1.18,0.1
0.54,-1.13,0.1
0.54,-1.08,0.09
0.57,-1.01,0.09
0.57,-0.97,0.08
0.55,-0.94,0.09
0.55,-0.9,0.12
0.56,-0.88,0.11
0.55,-0.87,0.09
0.54,-0.86,0.09
0.54,-0.86,0.11
0.54,-0.85,0.12
0.53,-0.84,0.12
0.54,-0.84,0.11
0.55,-0.85,0.11
0.57,-0.86,0.1
0.59,-0.87,0.1
0.6,-0.88,0.09
0.61,-0.89,0.09
0.62,-0.9,0.09
0.63,-0.91,0.09
0.63,-0.92,0.09
0.62,-0.95,0.09
0.61,-0.96,0.08
0.61,-0.97,0.07
0.6,-0.98,0.07
0.58,-0.99,0.07
0.57,-1,0.07
0.56,-1.02,0.06
0.54,-1.04,0.06
0.53,-1.06,0.05
0.52,-1.09,0.04
0.52,-1.12,0.05
0.52,-1.15,0.04
0.52,-1.19,0.02
0.52,-1.24,0
0.51,-1.29,0.01
0.51,-1.32,0.02
0.5,-1.34,0.02
0.5,-1.35,0.02
0.51,-1.33,0.02
0.5,-1.31,0.02
0.5,-1.29,0.02
0.49,-1.28,0.01
0.48,-1.26,0.01
0.48,-1.22,0.01
0.46,-1.18,0.01
0.44,-1.14,-0.01
0.43,-1.14,-0.01
0.42,-1.18,-0.01
0.41,-1.22,-0.01
0.4,-1.25,0
0.39,-1.26,-0.01
0.37,-1.26,-0.02
0.33,-1.24,-0.03
0.3,-1.2,-0.03
0.3,-1.14,-0.02
0.31,-1.08,-0.02
0.29,-1.04,-0.01
0.28,-1.01,-0.01
0.29,-1,-0.02
0.29,-1,-0.02
0.29,-1,-0.03
0.26,-0.99,-0.04
0.25,-0.95,-0.04
0.25,-0.92,-0.04
0.24,-0.89,-0.03
0.24,-0.85,-0.03
0.23,-0.82,-0.04
0.23,-0.78,-0.04
0.24,-0.75,-0.05
0.24,-0.72,-0.06
0.24,-0.7,-0.06
0.24,-0.68,-0.05
0.23,-0.66,-0.05
0.23,-0.66,-0.05
0.22,-0.65,-0.05
0.2,-0.66,-0.04
0.2,-0.67,-0.04
0.2,-0.69,-0.04
0.2,-0.7,-0.04
0.21,-0.72,-0.04
0.22,-0.74,-0.04
0.24,-0.77,-0.04
0.25,-0.79,-0.05
0.26,-0.81,-0.04
0.26,-0.84,-0.04
0.29,-0.87,-0.03
0.29,-0.9,-0.03
0.3,-0.92,-0.03
0.31,-0.94,-0.02
0.32,-0.96,-0.02
0.34,-1,-0.02
0.36,-1.02,0
0.36,-1.05,0.01
0.37,-1.09,0.02
0.38,-1.14,0.03
0.39,-1.2,0.03
0.39,-1.24,0.03
0.4,-1.28,0.04
0.4,-1.34,0.03
0.41,-1.36,0.02
0.44,-1.36,0.02
0.45,-1.36,0.03
0.46,-1.36,0.05
0.47,-1.38,0.06
0.48,-1.4,0.05
0.48,-1.43,0.03
0.5,-1.45,0.01
0.53,-1.44,0.03
0.53,-1.41,0.04
0.52,-1.36,0.04
0.53,-1.29,0.04
0.54,-1.19,0.04
0.53,-1.07,0.05
0.51,-0.98,0.04
0.49,-0.91,0.03
0.48,-0.87,0.04
0.46,-0.89,0.05
0.47,-0.92,0.04
0.5,-0.96,0.03
0.5,-0.99,0.04
0.49,-1.03,0.04
0.5,-1.05,0.05
0.51,-1.07,0.05
0.5,-1.08,0.05
0.5,-1.03,0.07
0.51,-1,0.05
0.51,-0.97,0.03
0.53,-0.95,0.03
0.54,-0.94,0.03
0.56,-0.91,0.03
0.58,-0.9,0.04
0.61,-0.89,0.03
0.64,-0.89,0.03
0.68,-0.88,0.04
0.7,-0.89,0.05
0.73,-0.89,0.05
0.73,-0.88,0.06
0.71,-0.87,0.07
0.69,-0.86,0.07
0.69,-0.86,0.08
0.69,-0.89,0.1
0.7,-0.91,0.1
0.71,-0.94,0.1
0.7,-0.97,0.09
0.7,-0.99,0.09
0.7,-1.02,0.08
0.69,-1.05,0.07
0.66,-1.07,0.07
0.63,-1.11,0.07
0.61,-1.14,0.07
0.59,-1.2,0.06
0.58,-1.23,0.05
0.58,-1.27,0.05
0.56,-1.31,0.05
0.55,-1.35,0.04
0.53,-1.37,0.03
0.51,-1.37,0.02
0.49,-1.37,0.02
0.48,-1.36,0.02
0.46,-1.34,0.01
0.45,-1.3,0.01
0.44,-1.25,0.02
0.43,-1.21,0.02
0.43,-1.2,0
0.41,-1.22,-0.02
0.4,-1.24,-0.03
0.38,-1.27,-0.04
0.36,-1.3,-0.05
0.33,-1.3,-0.05
0.32,-1.31,-0.05
0.31,-1.31,-0.05
0.31,-1.33,-0.05
0.31,-1.34,-0.06
0.3,-1.32,-0.06
0.27,-1.27,-0.06
0.24,-1.22,-0.06
0.24,-1.08,-0.06
0.23,-1.02,-0.07
0.24,-0.95,-0.07
0.24,-0.89,-0.07
0.24,-0.85,-0.07
0.24,-0.8,-0.07
0.25,-0.76,-0.08
0.25,-0.74,-0.08
0.22,-0.72,-0.08
0.21,-0.7,-0.08
0.2,-0.69,-0.07
0.19,-0.68,-0.07
0.19,-0.67,-0.07
0.19,-0.67,-0.06
0.19,-0.66,-0.06
0.19,-0.67,-0.06
0.19,-0.68,-0.06
0.19,-0.69,-0.06
0.2,-0.7,-0.06
0.21,-0.71,-0.06
0.21,-0.73,-0.06
0.22,-0.74,-0.06
0.22,-0.75,-0.06
0.22,-0.76,-0.05
0.24,-0.78,-0.05
0.26,-0.8,-0.05
0.27,-0.82,-0.03
0.29,-0.85,-0.02
0.29,-0.86,-0.01
0.29,-0.88,0
0.3,-0.9,-0.01
0.31,-0.91,-0.01
0.33,-0.94,-0.01
0.35,-0.97,-0.01
0.36,-1.02,0
0.39,-1.08,0.01
0.4,-1.17,0.02
0.41,-1.26,0.02
0.43,-1.35,0.01
0.43,-1.42,0.01
0.42,-1.47,0.02
0.41,-1.49,0.02
0.41,-1.5,0.01
0.44,-1.48,0.02
0.46,-1.47,0.05
0.5,-1.45,0.08
0.54,-1.43,0.1
0.51,-1.39,0.1
0.53,-1.32,0.1
0.59,-1.24,0.08
0.6,-1.17,0.06
0.56,-1.14,0.06
0.51,-1.14,0.06
0.49,-1.21,0.07
0.51,-1.25,0.08
0.49,-1.29,0.1
0.48,-1.31,0.12
0.5,-1.3,0.1
0.51,-1.26,0.09
0.51,-1.21,0.09
0.51,-1.13,0.08
0.51,-1.05,0.08
0.52,-0.97,0.08
0.53,-0.9,0.08
0.53,-0.86,0.07
0.56,-0.82,0.07
0.55,-0.79,0.08
0.51,-0.79,0.09
0.51,-0.79,0.09
0.5,-0.79,0.09
0.48,-0.81,0.09
0.48,-0.82,0.1
0.49,-0.84,0.1
0.5,-0.85,0.09
0.49,-0.87,0.09
0.49,-0.88,0.09
0.51,-0.89,0.09
0.52,-0.89,0.08
0.53,-0.9,0.09
0.56,-0.9,0.09
0.57,-0.91,0.08
0.58,-0.92,0.08
0.6,-0.94,0.08
0.61,-0.97,0.09
0.62,-0.99,0.08
0.63,-1.01,0.07
0.62,-1.02,0.08
0.62,-1.02,0.1
0.63,-1.01,0.11
0.63,-1.01,0.11
0.63,-1.02,0.09
0.62,-1.03,0.09
0.62,-1.05,0.09
0.62,-1.07,0.1
0.61,-1.09,0.1
0.61,-1.11,0.12
0.6,-1.14,0.13
0.61,-1.2,0.12
0.61,-1.28,0.11
0.61,-1.36,0.1
0.6,-1.43,0.1
0.58,-1.46,0.1
0.55,-1.42,0.1
0.52,-1.33,0.11
0.51,-1.23,0.11
0.52,-1.05,0.12
0.52,-1.04,0.09
0.51,-1.09,0.06
0.5,-1.19,0.04
0.47,-1.31,0.02
0.44,-1.42,0.01
0.39,-1.51,0
0.36,-1.6,-0.01
0.35,-1.63,-0.01
0.33,-1.57,0
0.31,-1.46,0
0.31,-1.36,-0.04
0.29,-1.27,-0.06
0.28,-1.18,-0.07
0.29,-1.1,-0.08
0.31,-1.03,-0.07
0.31,-0.98,-0.05
0.28,-0.95,-0.06
0.27,-0.89,-0.07
0.26,-0.84,-0.07
0.25,-0.79,-0.07
0.25,-0.73,-0.07
0.24,-0.69,-0.07
0.22,-0.66,-0.08
0.2,-0.62,-0.07
0.2,-0.61,-0.08
0.21,-0.63,-0.09
0.23,-0.64,-0.09
0.24,-0.66,-0.1
0.25,-0.68,-0.1
0.25,-0.69,-0.1
0.26,-0.68,-0.09
0.27,-0.68,-0.1
0.28,-0.67,-0.09
0.29,-0.66,-0.09
0.31,-0.66,-0.09
0.34,-0.66,-0.08
0.35,-0.66,-0.08
0.36,-0.67,-0.08
0.38,-0.66,-0.08
0.39,-0.66,-0.07
0.41,-0.66,-0.05
0.44,-0.66,-0.03
0.47,-0.67,-0.01
0.49,-0.69,-0.01
0.51,-0.71,-0.01
0.54,-0.74,0
0.55,-0.77,-0.01
0.56,-0.81,-0.01
0.58,-0.85,0
0.59,-0.88,0.01
0.6,-0.93,0.01
0.6,-1.03,0
0.59,-1.07,0.01
0.59,-1.12,0.01
0.59,-1.15,0.01
0.59,-1.2,0
0.6,-1.25,0
0.63,-1.28,0.02
0.66,-1.29,0.03
0.68,-1.28,0.04
0.69,-1.25,0.06
0.69,-1.2,0.08
0.67,-1.15,0.09
0.67,-1.11,0.09
0.69,-1.06,0.09
0.67,-1.02,0.1
0.68,-0.99,0.11
0.7,-0.98,0.11
0.58,-0.99,0.14
0.48,-1.03,0.16
0.47,-1.1,0.17
0.5,-1.19,0.17
0.57,-1.26,0.11
0.59,-1.27,0.07
0.55,-1.27,0.05
0.52,-1.27,0.07
0.54,-1.22,0.09
0.58,-1.15,0.09
0.6,-1.02,0.09
0.6,-0.95,0.09
0.6,-0.89,0.09
0.59,-0.86,0.09
0.58,-0.83,0.09
0.58,-0.79,0.1
0.59,-0.76,0.11
0.6,-0.75,0.11
0.63,-0.75,0.12
0.65,-0.75,0.11
0.65,-0.77,0.08
0.67,-0.79,0.06
0.72,-0.79,0.06
0.74,-0.79,0.07
0.74,-0.81,0.06
0.75,-0.81,0.06
0.78,-0.81,0.05
0.79,-0.82,0.04
0.8,-0.84,0.03
0.82,-0.86,0.01
0.83,-0.88,0
0.83,-0.91,-0.01
0.82,-0.94,-0.01
0.82,-0.96,0
0.81,-0.98,0
0.8,-1,-0.02
0.78,-1.02,-0.02
0.78,-1.02,-0.03
0.77,-1.04,-0.04
0.76,-1.05,-0.04
0.75,-1.08,-0.04
0.75,-1.12,-0.05
0.76,-1.16,-0.06
0.76,-1.19,-0.07
0.76,-1.21,-0.07
0.77,-1.22,-0.09
0.76,-1.21,-0.09
0.74,-1.2,-0.09
0.72,-1.16,-0.08
0.69,-1.11,-0.07
0.68,-1.07,-0.07
0.67,-1.06,-0.08
0.66,-1.08,-0.1
0.62,-1.12,-0.1
0.6,-1.14,-0.1
0.6,-1.16,-0.1
0.59,-1.17,-0.1
0.57,-1.17,-0.09
0.57,-1.17,-0.08
0.57,-1.18,-0.09
0.58,-1.19,-0.1
0.57,-1.19,-0.1
0.52,-1.17,-0.09
0.5,-1.12,-0.07
0.48,-1.05,-0.07
0.47,-0.97,-0.06
0.44,-0.89,-0.06
0.43,-0.83,-0.06
0.42,-0.78,-0.06
0.4,-0.75,-0.06
0.39,-0.72,-0.06
0.38,-0.71,-0.06
0.37,-0.7,-0.05
0.36,-0.71,-0.04
0.34,-0.7,-0.04
0.32,-0.69,-0.04
0.31,-0.68,-0.04
0.3,-0.66,-0.04
0.29,-0.65,-0.04
0.27,-0.65,-0.04
0.25,-0.65,-0.05
0.26,-0.64,-0.05
0.27,-0.65,-0.05
0.26,-0.65,-0.05
0.25,-0.63,-0.05
0.26,-0.63,-0.05
0.26,-0.64,-0.05
0.25,-0.65,-0.06
0.26,-0.66,-0.05
0.27,-0.67,-0.05
0.28,-0.68,-0.04
0.3,-0.69,-0.03
0.31,-0.7,-0.03
0.32,-0.72,-0.03
0.33,-0.74,-0.03
0.34,-0.76,-0.02
0.35,-0.79,-0.02
0.36,-0.83,-0.02
0.38,-0.86,-0.01
0.38,-0.93,0.01
0.38,-1.03,0.01
0.4,-1.12,0.01
0.4,-1.22,0.02
0.4,-1.32,0.03
0.4,-1.41,0.03
0.4,-1.48,0.02
0.42,-1.55,0
0.44,-1.59,-0.02
0.45,-1.62,-0.02
0.48,-1.62,-0.02
0.53,-1.6,-0.01
0.54,-1.54,0.02
0.54,-1.47,0.04
0.59,-1.39,0.05
0.58,-1.23,0
0.6,-1.19,0.03
0.6,-1.2,0
0.63,-1.24,-0.02
0.62,-1.3,-0.01
0.57,-1.38,0
0.58,-1.43,0.02
0.61,-1.42,0.03
0.61,-1.36,0.05
0.61,-1.26,0.06
0.63,-1.16,0.07
0.65,-1.05,0.07
0.65,-0.98,0.07
0.62,-0.93,0.09
0.6,-0.93,0.09
0.64,-0.91,0.08
0.65,-0.9,0.09
0.64,-0.91,0.1
0.66,-0.9,0.09
0.68,-0.88,0.07
0.68,-0.87,0.07
0.67,-0.87,0.07
0.69,-0.85,0.06
0.71,-0.84,0.05
0.73,-0.85,0.04
0.74,-0.86,0.03
0.76,-0.88,0
0.81,-0.88,-0.01
0.82,-0.89,-0.01
0.81,-0.89,0
0.79,-0.9,0.02
0.76,-0.92,0.03
0.74,-0.95,0.02
0.72,-0.97,0
0.7,-0.99,-0.01
0.69,-1.02,-0.02
0.68,-1.04,-0.02
0.66,-1.06,-0.03
0.65,-1.08,-0.04
0.66,-1.1,-0.04
0.65,-1.14,-0.05
0.65,-1.17,-0.06
0.65,-1.21,-0.08
0.65,-1.26,-0.09
0.65,-1.3,-0.11
0.63,-1.34,-0.09
0.61,-1.35,-0.08
0.6,-1.34,-0.1
0.59,-1.31,-0.1
0.58,-1.27,-0.09
0.56,-1.24,-0.08
0.52,-1.22,-0.08
0.51,-1.2,-0.07
0.48,-1.21,-0.08
0.47,-1.21,-0.07
0.47,-1.22,-0.07
0.47,-1.24,-0.05
0.47,-1.28,-0.05
0.47,-1.33,-0.06
0.47,-1.37,-0.06
0.46,-1.39,-0.07
0.45,-1.42,-0.07
0.44,-1.42,-0.07
0.41,-1.38,-0.07
0.37,-1.3,-0.07
0.35,-1.21,-0.07
0.33,-1.12,-0.07
0.31,-1.04,-0.07
0.3,-0.98,-0.07
0.29,-0.91,-0.07
0.28,-0.84,-0.07
0.29,-0.8,-0.08
0.29,-0.75,-0.08
0.27,-0.71,-0.09
0.27,-0.68,-0.09
0.26,-0.66,-0.09
0.24,-0.63,-0.09
0.23,-0.61,-0.09
0.23,-0.61,-0.1
0.23,-0.61,-0.09
0.23,-0.62,-0.09
0.23,-0.64,-0.09
0.23,-0.67,-0.09
0.23,-0.7,-0.09
0.22,-0.7,-0.08
0.22,-0.7,-0.08
0.22,-0.71,-0.07
0.22,-0.72,-0.07
0.22,-0.73,-0.06
0.22,-0.74,-0.06
0.23,-0.75,-0.06
0.24,-0.76,-0.06
0.25,-0.77,-0.06
0.26,-0.79,-0.05
0.28,-0.8,-0.04
0.31,-0.81,-0.03
0.33,-0.84,-0.02
0.33,-0.87,-0.02
0.34,-0.9,-0.02
0.35,-0.93,-0.01
0.35,-0.99,-0.01
0.37,-1.03,0
0.39,-1.08,0.01
0.41,-1.18,0.02
0.42,-1.28,0.03
0.4,-1.42,0.04
0.39,-1.47,0.03
0.41,-1.51,0.02
0.43,-1.55,0.02
0.44,-1.57,0.02
0.47,-1.57,0.04
0.52,-1.53,0.06
0.54,-1.47,0.09
0.55,-1.4,0.1
0.57,-1.31,0.09
0.59,-1.24,0.08
0.62,-1.2,0.1
0.6,-1.2,0.1
0.57,-1.23,0.09
0.58,-1.26,0.09
0.57,-1.3,0.09
0.53,-1.34,0.11
0.5,-1.36,0.13
0.51,-1.33,0.12
0.52,-1.28,0.11
0.52,-1.2,0.12
0.54,-1.13,0.12
0.56,-1.05,0.12
0.6,-0.96,0.12
0.6,-0.91,0.14
0.57,-0.87,0.12
0.6,-0.82,0.13
0.61,-0.8,0.12
0.61,-0.8,0.09
0.6,-0.79,0.1
0.62,-0.78,0.11
0.61,-0.78,0.11
0.62,-0.78,0.11
0.64,-0.78,0.1
0.65,-0.8,0.08
0.65,-0.83,0.08
0.67,-0.85,0.07
0.69,-0.87,0.06
0.68,-0.89,0.05
0.68,-0.91,0.05
0.68,-0.92,0.05
0.68,-0.94,0.04
0.68,-0.95,0.04
0.68,-0.96,0.04
0.69,-0.99,0.04
0.69,-1,0.04
0.68,-1.02,0.03
0.68,-1.03,0.02
0.67,-1.05,0.02
0.67,-1.06,0.01
0.65,-1.08,0
0.63,-1.1,-0.02
0.61,-1.19,-0.02
0.61,-1.24,-0.02
0.6,-1.29,-0.02
0.6,-1.32,-0.01
0.61,-1.34,-0.01
0.6,-1.34,-0.01
0.59,-1.31,-0.03
0.57,-1.28,-0.05
0.52,-1.26,-0.04
0.5,-1.25,-0.04
0.49,-1.24,-0.05
0.47,-1.24,-0.05
0.47,-1.25,-0.05
0.45,-1.27,-0.06
0.44,-1.28,-0.06
0.44,-1.27,-0.06
0.43,-1.27,-0.05
0.42,-1.27,-0.06
0.43,-1.27,-0.07
0.44,-1.29,-0.07
0.44,-1.33,-0.07
0.42,-1.37,-0.08
0.39,-1.37,-0.07
0.37,-1.34,-0.07
0.33,-1.27,-0.05
0.29,-1.17,-0.06
0.27,-0.95,-0.07
0.27,-0.86,-0.08
0.28,-0.79,-0.08
0.29,-0.74,-0.09
0.28,-0.7,-0.1
0.26,-0.68,-0.1
0.27,-0.66,-0.09
0.27,-0.64,-0.09
0.24,-0.64,-0.09
0.22,-0.66,-0.09
0.23,-0.7,-0.09
0.24,-0.72,-0.09
0.24,-0.76,-0.09
0.23,-0.78,-0.09
0.22,-0.8,-0.09
0.22,-0.8,-0.09
0.22,-0.8,-0.08
0.23,-0.79,-0.09
0.23,-0.78,-0.09
0.23,-0.77,-0.09
0.23,-0.76,-0.09
0.23,-0.76,-0.09
0.22,-0.76,-0.08
0.23,-0.76,-0.08
0.24,-0.77,-0.08
0.25,-0.79,-0.08
0.26,-0.84,-0.07
0.3,-0.87,-0.06
0.3,-0.89,-0.05
0.33,-0.88,-0.04
0.35,-0.91,-0.03
0.35,-0.95,-0.02
0.36,-0.97,0
0.37,-1.01,0
0.38,-1.06,0.01
0.39,-1.1,0.02
0.4,-1.14,0.03
0.41,-1.21,0.03
0.41,-1.27,0.04
0.4,-1.32,0.03
0.4,-1.35,0.04
0.4,-1.38,0.04
0.42,-1.4,0.05
0.45,-1.42,0.06
0.46,-1.43,0.07
0.47,-1.4,0.08
0.49,-1.36,0.09
0.51,-1.31,0.1
0.53,-1.23,0.11
0.56,-1.16,0.12
0.56,-1.08,0.14
0.52,-1.04,0.08
0.51,-1.05,0.07
0.5,-1.14,0.07
0.52,-1.25,0.08
0.52,-1.37,0.1
0.53,-1.49,0.11
0.57,-1.53,0.11
0.58,-1.47,0.1
0.58,-1.35,0.1
0.58,-1.22,0.11
0.6,-1.09,0.1
0.62,-0.97,0.1
0.6,-0.9,0.1
0.63,-0.85,0.1
0.64,-0.83,0.11
0.62,-0.81,0.09
0.64,-0.79,0.07
0.63,-0.8,0.08
0.61,-0.81,0.09
0.59,-0.82,0.09
0.59,-0.82,0.08
0.59,-0.83,0.07
0.59,-0.84,0.06
0.6,-0.85,0.05
0.61,-0.86,0.04
0.62,-0.88,0.03
0.63,-0.89,0.03
0.63,-0.9,0.04
0.65,-0.91,0.03
0.65,-0.92,0.02
0.65,-0.93,0.03
0.65,-0.95,0.03
0.66,-0.97,0.03
0.65,-1,0.02
0.64,-1.02,0.02
0.63,-1.03,0.01
0.62,-1.03,0.01
0.61,-1.02,0.01
0.6,-1.03,0.01
0.59,-1.04,0.02
0.59,-1.07,0.01
0.58,-1.12,0
0.57,-1.18,-0.01
0.57,-1.24,0
0.58,-1.3,0
0.56,-1.34,0.01
0.55,-1.35,0.01
0.55,-1.33,0.02
0.54,-1.3,0
0.5,-1.27,-0.01
0.48,-1.26,0
0.47,-1.25,-0.01
0.46,-1.24,-0.02
0.47,-1.24,-0.02
0.41,-1.26,-0.03
0.39,-1.24,-0.04
0.38,-1.22,-0.04
0.36,-1.2,-0.03
0.35,-1.17,-0.02
0.36,-1.15,-0.02
0.38,-1.16,-0.04
0.39,-1.21,-0.06
0.39,-1.27,-0.07
0.39,-1.34,-0.08
0.38,-1.39,-0.07
0.34,-1.41,-0.07
0.31,-1.37,-0.06
0.28,-1.3,-0.05
0.26,-1.2,-0.06
0.24,-1.09,-0.07
0.23,-1,-0.07
0.24,-0.92,-0.08
0.25,-0.86,-0.08
0.23,-0.8,-0.09
0.23,-0.75,-0.09
0.25,-0.72,-0.09
0.24,-0.72,-0.09
0.23,-0.7,-0.08
0.23,-0.68,-0.08
0.23,-0.68,-0.07
0.23,-0.71,-0.08
0.23,-0.73,-0.09
0.24,-0.75,-0.08
0.24,-0.77,-0.07
0.23,-0.8,-0.07
0.24,-0.81,-0.07
0.23,-0.83,-0.07
0.22,-0.83,-0.06
0.21,-0.83,-0.07
0.2,-0.83,-0.07
0.2,-0.82,-0.06
0.2,-0.82,-0.06
0.21,-0.82,-0.06
0.22,-0.82,-0.05
0.23,-0.82,-0.06
0.25,-0.82,-0.05
0.27,-0.82,-0.04
0.29,-0.83,-0.03
0.3,-0.83,-0.02
0.31,-0.85,-0.03
0.3,-0.87,-0.03
0.31,-0.88,-0.02
0.34,-0.92,-0.01
0.35,-0.98,0
0.35,-1.03,0.01
0.37,-1.17,-0.01
0.38,-1.25,-0.01
0.39,-1.31,0.01
0.42,-1.35,0.02
0.44,-1.38,0.02
0.45,-1.41,0.03
0.48,-1.44,0.04
0.49,-1.46,0.05
0.52,-1.47,0.06
0.55,-1.49,0.08
0.57,-1.49,0.1
0.61,-1.45,0.13
0.59,-1.42,0.11
0.57,-1.35,0.09
0.57,-1.26,0.09
0.54,-1.17,0.09
0.54,-1.08,0.1
0.51,-1.04,0.06
0.51,-1.05,0.06
0.53,-1.09,0.1
0.55,-1.17,0.1
0.6,-1.23,0.09
0.61,-1.29,0.09
0.63,-1.33,0.1
0.64,-1.32,0.1
0.64,-1.27,0.11
0.65,-1.19,0.11
0.72,-1.01,0.1
0.65,-0.95,0.11
0.62,-0.9,0.11
0.65,-0.85,0.08
0.67,-0.8,0.07
0.68,-0.77,0.07
0.67,-0.78,0.07
0.67,-0.79,0.06
0.66,-0.79,0.05
0.67,-0.79,0.04
0.67,-0.8,0.02
0.66,-0.82,0.02
0.67,-0.83,0.01
0.69,-0.86,0
0.72,-0.91,0
0.75,-0.94,-0.01
0.76,-0.97,-0.01
0.76,-1,-0.03
0.75,-1.03,-0.03
0.75,-1.05,-0.03
0.74,-1.07,-0.03
0.74,-1.08,-0.03
0.74,-1.1,-0.04
0.73,-1.11,-0.04
0.73,-1.12,-0.04
0.71,-1.14,-0.03
0.68,-1.21,-0.05
0.6,-1.24,-0.07
0.56,-1.25,-0.09
0.56,-1.25,-0.12
0.58,-1.26,-0.17
0.64,-1.28,-0.2
0.69,-1.31,-0.19
0.7,-1.34,-0.19
0.67,-1.36,-0.19
0.67,-1.37,-0.22
0.64,-1.35,-0.26
0.53,-1.33,-0.27
0.51,-1.33,-0.31
0.53,-1.31,-0.31
0.5,-1.29,-0.31
0.48,-1.28,-0.29
0.48,-1.27,-0.28
0.47,-1.22,-0.28
0.44,-1.16,-0.27
0.41,-1.11,-0.26
0.4,-1.07,-0.26
0.39,-1.04,-0.26
0.36,-1.01,-0.25
0.34,-0.99,-0.25
0.35,-0.97,-0.23
0.36,-0.94,-0.22
0.37,-0.89,-0.22
0.36,-0.88,-0.22
0.34,-0.86,-0.23
0.33,-0.86,-0.23
0.32,-0.85,-0.23
0.31,-0.84,-0.22
0.3,-0.83,-0.21
0.3,-0.81,-0.19
0.3,-0.79,-0.19
0.3,-0.77,-0.2
0.29,-0.75,-0.21
0.29,-0.73,-0.21
0.28,-0.72,-0.21
0.27,-0.71,-0.21
0.27,-0.7,-0.21
0.27,-0.68,-0.2
0.27,-0.68,-0.2
0.27,-0.68,-0.19
0.28,-0.68,-0.19
0.27,-0.69,-0.19
0.26,-0.7,-0.18
0.25,-0.72,-0.18
0.23,-0.75,-0.19
0.21,-0.77,-0.18
0.21,-0.8,-0.16
0.22,-0.85,-0.16
0.25,-0.92,-0.17
0.27,-0.94,-0.16
0.3,-0.97,-0.13
0.31,-1,-0.09
0.36,-1.04,-0.07
0.39,-1.05,-0.03
0.37,-1.07,0.01
0.38,-1.11,0.06
0.4,-1.14,0.11
0.4,-1.19,0.18
0.39,-1.23,0.26
0.37,-1.27,0.29
0.38,-1.32,0.31
0.37,-1.35,0.35
0.37,-1.33,0.39
0.37,-1.32,0.43
0.37,-1.33,0.46
0.4,-1.35,0.48
0.4,-1.36,0.5
0.4,-1.39,0.52
0.39,-1.47,0.53
0.33,-1.52,0.55
0.31,-1.52,0.58
0.29,-1.49,0.56
0.25,-1.43,0.53
0.24,-1.33,0.51
0.23,-1.22,0.49
0.24,-1.04,0.48
0.26,-0.97,0.45
0.28,-0.93,0.43
0.27,-0.94,0.4
0.28,-0.96,0.38
0.28,-0.99,0.38
0.27,-1.06,0.35
0.3,-1.1,0.32
0.33,-1.13,0.32
0.36,-1.12,0.27
0.39,-1.1,0.23
0.4,-1.08,0.21
0.39,-1.06,0.19
0.4,-1.01,0.18
0.43,-0.96,0.16
0.44,-0.92,0.15
0.45,-0.88,0.14
0.45,-0.87,0.1
0.46,-0.85,0.08
0.47,-0.83,0.06
0.48,-0.82,0.05
0.47,-0.83,0.05
0.47,-0.83,0.04
0.47,-0.83,0.03
0.47,-0.83,0.03
0.48,-0.84,0.01
0.49,-0.87,0
0.49,-0.89,-0.01
0.51,-0.92,0
0.53,-0.94,-0.01
0.54,-0.97,-0.01
0.55,-0.99,-0.02
0.56,-1.01,-0.03
0.56,-1.02,-0.04
0.55,-1.03,-0.04
0.55,-1.05,-0.05
0.54,-1.06,-0.05
0.53,-1.07,-0.04
0.53,-1.09,-0.03
0.54,-1.12,-0.03
0.54,-1.16,-0.03
0.54,-1.2,-0.03
0.53,-1.24,-0.03
0.51,-1.27,-0.03
0.49,-1.3,-0.03
0.48,-1.31,-0.02
0.46,-1.33,-0.02
0.45,-1.34,-0.02
0.44,-1.34,-0.01
0.43,-1.34,-0.01
0.43,-1.33,0
0.42,-1.32,0.01
0.39,-1.29,0
0.39,-1.28,-0.01
0.38,-1.27,-0.01
0.36,-1.28,-0.01
0.34,-1.3,-0.02
0.33,-1.3,-0.02
0.32,-1.28,-0.02
0.29,-1.23,-0.02
0.28,-1.15,-0.03
0.26,-1.07,-0.03
0.25,-0.99,-0.03
0.24,-0.92,-0.05
0.24,-0.87,-0.07
0.24,-0.85,-0.07
0.25,-0.84,-0.07
0.27,-0.84,-0.07
0.26,-0.85,-0.07
0.28,-0.88,-0.07
0.29,-0.92,-0.07
0.28,-0.97,-0.07
0.27,-0.99,-0.07
0.26,-0.98,-0.06
0.24,-0.97,-0.06
0.23,-0.96,-0.07
0.22,-0.94,-0.07
0.22,-0.9,-0.07
0.21,-0.82,-0.06
0.19,-0.79,-0.05
0.19,-0.76,-0.05
0.19,-0.74,-0.06
0.19,-0.71,-0.05
0.2,-0.71,-0.05
0.21,-0.72,-0.06
0.22,-0.75,-0.06
0.24,-0.77,-0.07
0.27,-0.79,-0.07
0.28,-0.82,-0.06
0.29,-0.85,-0.06
0.3,-0.89,-0.06
0.31,-0.93,-0.06
0.32,-0.96,-0.05
0.31,-0.99,-0.04
0.29,-1.02,-0.04
0.29,-1.04,-0.03
0.29,-1.06,-0.03
0.3,-1.08,-0.03
0.31,-1.1,-0.02
0.31,-1.12,-0.02
0.33,-1.14,-0.01
0.34,-1.16,0
0.34,-1.19,0.01
0.35,-1.23,0.01
0.35,-1.28,0
0.36,-1.28,0
0.38,-1.28,0.01
0.39,-1.28,0.02
0.4,-1.28,0.03
0.44,-1.26,0.05
0.47,-1.27,0.05
0.46,-1.28,0.05
0.46,-1.29,0.07
0.49,-1.31,0.08
0.54,-1.31,0.09
0.53,-1.32,0.1
0.53,-1.33,0.1
0.56,-1.33,0.11
0.54,-1.33,0.11
0.52,-1.31,0.12
0.53,-1.27,0.11
0.48,-1.21,0.1
0.46,-1.12,0.09
0.47,-1.02,0.08
0.47,-0.95,0.08
0.48,-0.89,0.09
0.51,-0.86,0.07
0.52,-0.87,0.06
0.54,-0.87,0.06
0.55,-0.88,0.06
0.56,-0.9,0.06
0.57,-0.96,0.07
0.57,-0.99,0.08
0.57,-1,0.08
0.57,-1.01,0.08
0.57,-1.01,0.07
0.58,-1,0.07
0.58,-0.99,0.08
0.59,-0.97,0.08
0.6,-0.95,0.08
0.61,-0.93,0.09
0.62,-0.92,0.08
0.62,-0.91,0.09
0.64,-0.92,0.09
0.66,-0.92,0.09
0.67,-0.93,0.08
0.66,-0.94,0.07
0.65,-0.95,0.07
0.65,-0.96,0.07
0.63,-0.97,0.07
0.62,-0.99,0.08
0.61,-1.01,0.09
0.61,-1.03,0.08
0.6,-1.06,0.07
0.6,-1.08,0.08
0.59,-1.1,0.08
0.59,-1.12,0.07
0.57,-1.19,0.06
0.56,-1.22,0.06
0.56,-1.26,0.06
0.57,-1.3,0.06
0.56,-1.35,0.05
0.56,-1.4,0.04
0.56,-1.43,0.04
0.55,-1.45,0.03
0.53,-1.43,0.03
0.53,-1.38,0.03
0.52,-1.32,0.04
0.51,-1.27,0.04
0.49,-1.23,0.02
0.47,-1.22,0
0.44,-1.23,0
0.42,-1.24,0
0.4,-1.23,-0.01
0.37,-1.2,-0.01
0.34,-1.17,-0.02
0.32,-1.11,-0.02
0.3,-1.06,-0.02
0.28,-1.01,-0.03
0.28,-0.98,-0.03
0.28,-0.97,-0.04
0.28,-0.98,-0.05
0.28,-1.02,-0.07
0.29,-1.19,-0.08
0.26,-1.26,-0.08
0.23,-1.28,-0.08
0.21,-1.25,-0.08
0.18,-1.16,-0.08
0.15,-1.04,-0.09
0.14,-0.9,-0.1
0.15,-0.78,-0.11
0.16,-0.68,-0.11
0.18,-0.61,-0.12
0.2,-0.57,-0.12
0.23,-0.54,-0.12
0.23,-0.53,-0.11
0.22,-0.53,-0.11
0.23,-0.55,-0.09
0.23,-0.57,-0.08
0.23,-0.6,-0.07
0.24,-0.63,-0.07
0.24,-0.67,-0.07
0.25,-0.71,-0.06
0.25,-0.75,-0.05
0.26,-0.79,-0.05
0.26,-0.82,-0.06
0.26,-0.84,-0.05
0.26,-0.85,-0.04
0.27,-0.86,-0.04
0.27,-0.88,-0.03
0.27,-0.9,-0.03
0.27,-0.91,-0.02
0.28,-0.93,-0.02
0.3,-0.97,-0.01
0.33,-1.01,-0.01
0.36,-1.06,0
0.37,-1.14,-0.01
0.36,-1.21,-0.02
0.36,-1.29,-0.02
0.37,-1.35,-0.02
0.39,-1.4,-0.02
0.41,-1.44,-0.01
0.43,-1.48,-0.01
0.46,-1.52,0
0.5,-1.55,0.01
0.53,-1.57,0.03
0.57,-1.57,0.06
0.62,-1.54,0.11
0.64,-1.48,0.11
0.64,-1.4,0.11
0.62,-1.33,0.11
0.64,-1.23,0.1
0.59,-1.15,0.09
0.5,-1.11,0.1
0.49,-1.08,0.11
0.47,-1.09,0.1
0.48,-1.12,0.11
0.52,-1.16,0.11
0.54,-1.18,0.11
0.55,-1.19,0.11
0.55,-1.17,0.12
0.55,-1.13,0.12
0.55,-1.08,0.12
0.56,-1.02,0.11
0.56,-0.97,0.1
0.55,-0.94,0.09
0.56,-0.91,0.08
0.58,-0.89,0.08
0.57,-0.88,0.1
0.57,-0.87,0.12
0.59,-0.86,0.12
0.59,-0.87,0.11
0.61,-0.88,0.1
0.62,-0.89,0.09
0.63,-0.9,0.1
0.63,-0.91,0.1
0.63,-0.92,0.1
0.63,-0.92,0.1
0.64,-0.92,0.11
0.65,-0.91,0.12
0.64,-0.91,0.13
0.64,-0.91,0.14
0.65,-0.93,0.14
0.65,-0.96,0.13
0.64,-0.99,0.11
0.63,-1.02,0.1
0.62,-1.05,0.09
0.6,-1.08,0.08
0.59,-1.12,0.07
0.59,-1.16,0.05
0.59,-1.21,0.04
0.59,-1.27,0.03
0.6,-1.32,0.03
0.6,-1.37,0.03
0.59,-1.4,0.01
0.58,-1.4,0
0.55,-1.38,-0.01
0.54,-1.33,0
0.52,-1.3,0
0.5,-1.25,0
0.49,-1.21,0
0.48,-1.2,0
0.47,-1.18,-0.01
0.46,-1.16,-0.01
0.43,-1.13,-0.02
0.41,-1.12,-0.03
0.38,-1.1,-0.04
0.36,-1.13,-0.05
0.33,-1.18,-0.06
0.33,-1.24,-0.06
0.33,-1.28,-0.07
0.32,-1.3,-0.07
0.32,-1.28,-0.06
0.29,-1.23,-0.07
0.3,-1.16,-0.07
0.3,-1.06,-0.06
0.27,-0.97,-0.05
0.28,-0.9,-0.05
0.29,-0.86,-0.06
0.29,-0.84,-0.07
0.29,-0.84,-0.07
0.28,-0.85,-0.07
0.28,-0.85,-0.07
0.27,-0.87,-0.08
0.26,-0.89,-0.07
0.26,-0.89,-0.07
0.24,-0.88,-0.07
0.23,-0.87,-0.07
0.23,-0.85,-0.07
0.23,-0.83,-0.08
0.23,-0.82,-0.08
0.22,-0.81,-0.09
0.22,-0.79,-0.09
0.22,-0.78,-0.08
0.21,-0.75,-0.08
0.21,-0.75,-0.08
0.22,-0.75,-0.08
0.22,-0.75,-0.09
0.23,-0.76,-0.09
0.24,-0.78,-0.09
0.24,-0.81,-0.08
0.26,-0.84,-0.08
0.27,-0.88,-0.08
0.27,-0.91,-0.07
0.28,-0.93,-0.06
0.3,-0.95,-0.06
0.31,-0.96,-0.06
0.32,-0.96,-0.06
0.33,-0.97,-0.05
0.35,-0.99,-0.03
0.36,-1.02,0
0.37,-1.04,0.01
0.39,-1.06,0
0.4,-1.09,0.01
0.39,-1.13,0.02
0.38,-1.16,0.04
0.38,-1.17,0.06
0.37,-1.16,0.06
0.37,-1.15,0.07
0.38,-1.16,0.08
0.41,-1.18,0.08
0.42,-1.19,0.11
0.43,-1.23,0.12
0.46,-1.26,0.12
0.48,-1.31,0.13
0.5,-1.38,0.15
0.49,-1.43,0.17
0.47,-1.43,0.18
0.49,-1.37,0.16
0.49,-1.29,0.18
0.47,-1.18,0.2
0.45,-1.08,0.18
0.46,-0.99,0.15
0.45,-0.93,0.12
0.41,-0.91,0.14
0.4,-0.92,0.15
0.43,-0.95,0.15
0.47,-0.99,0.14
0.51,-1.03,0.13
0.51,-1.06,0.14
0.5,-1.1,0.14
0.51,-1.09,0.13
0.51,-1.08,0.14
0.51,-1.07,0.13
0.51,-1.04,0.12
0.5,-1.02,0.12
0.52,-0.95,0.1
0.56,-0.91,0.09
0.54,-0.91,0.09
0.5,-0.95,0.09
0.53,-0.94,0.09
0.56,-0.93,0.09
0.57,-0.94,0.1
0.58,-0.95,0.1
0.61,-0.94,0.1
0.61,-0.93,0.12
0.59,-0.93,0.13
0.59,-0.91,0.14
0.59,-0.88,0.16
0.59,-0.87,0.16
0.57,-0.88,0.16
0.56,-0.87,0.16
0.54,-0.88,0.16
0.53,-0.9,0.17
0.54,-0.92,0.16
0.54,-0.96,0.15
0.54,-0.99,0.13
0.52,-1.02,0.12
0.51,-1.05,0.11
0.51,-1.08,0.1
0.52,-1.11,0.1
0.55,-1.16,0.07
0.58,-1.3,0.05
0.58,-1.35,0.04
0.58,-1.36,0.04
0.57,-1.33,0.04
0.55,-1.29,0.05
0.55,-1.24,0.06
0.54,-1.2,0.05
0.53,-1.17,0.04
0.51,-1.17,0.02
0.5,-1.16,0.02
0.47,-1.16,0.02
0.45,-1.15,0.03
0.43,-1.15,0.04
0.42,-1.15,0.03
0.39,-1.15,0.01
0.36,-1.14,0
0.35,-1.13,-0.01
0.33,-1.1,-0.01
0.32,-1.08,-0.01
0.32,-1.07,-0.03
0.31,-1.07,-0.03
0.32,-1.07,-0.04
0.32,-1.09,-0.05
0.33,-1.11,-0.06
0.32,-1.13,-0.06
0.32,-1.13,-0.06
0.32,-1.06,-0.06
0.27,-1,-0.06
0.26,-0.94,-0.06
0.26,-0.9,-0.06
0.26,-0.87,-0.07
0.26,-0.86,-0.08
0.26,-0.85,-0.08
0.26,-0.85,-0.08
0.25,-0.86,-0.07
0.25,-0.86,-0.07
0.24,-0.87,-0.07
0.23,-0.87,-0.06
0.23,-0.87,-0.06
0.23,-0.88,-0.05
0.24,-0.88,-0.05
0.23,-0.86,-0.04
0.23,-0.85,-0.04
0.23,-0.83,-0.03
0.23,-0.81,-0.02
0.23,-0.81,-0.02
0.23,-0.8,-0.03
0.24,-0.8,-0.03
0.25,-0.8,-0.03
0.25,-0.8,-0.03
0.25,-0.8,-0.03
0.25,-0.82,-0.04
0.25,-0.85,-0.03
0.29,-0.87,-0.03
0.29,-0.9,-0.03
0.29,-0.94,-0.03
0.3,-0.96,-0.03
0.32,-0.98,-0.02
0.33,-1.01,-0.03
0.35,-1.04,-0.03
0.36,-1.08,-0.01
0.37,-1.13,0
0.37,-1.18,0
0.39,-1.22,0
0.4,-1.26,0
0.4,-1.28,0.02
0.4,-1.28,0.02
0.41,-1.27,0.03
0.42,-1.25,0.03
0.43,-1.21,0.03
0.43,-1.18,0.05
0.44,-1.15,0.06
0.46,-1.16,0.06
0.5,-1.21,0.06
0.51,-1.3,0.06
0.51,-1.38,0.06
0.54,-1.43,0.06
0.55,-1.43,0.07
0.53,-1.31,0.1
0.5,-1.23,0.08
0.5,-1.13,0.08
0.5,-1.06,0.09
0.52,-0.99,0.09
0.54,-0.95,0.08
0.53,-0.96,0.05
0.52,-0.99,0.06
0.51,-1.01,0.08
0.54,-1,0.09
0.54,-1,0.1
0.53,-1.01,0.1
0.54,-0.99,0.09
0.53,-0.98,0.09
0.53,-0.97,0.09
0.54,-0.94,0.1
0.55,-0.92,0.1
0.55,-0.9,0.1
0.59,-0.88,0.1
0.61,-0.87,0.1
0.61,-0.88,0.09
0.63,-0.89,0.09
0.64,-0.9,0.09
0.66,-0.91,0.09
0.67,-0.92,0.11
0.67,-0.93,0.12
0.68,-0.93,0.13
0.67,-0.93,0.13
0.66,-0.94,0.12
0.65,-0.94,0.12
0.64,-0.95,0.12
0.63,-0.97,0.12
0.62,-0.99,0.11
0.6,-1.01,0.1
0.6,-1.04,0.1
0.59,-1.08,0.08
0.58,-1.11,0.07
0.57,-1.14,0.06
0.56,-1.17,0.05
0.55,-1.22,0.04
0.56,-1.27,0.04
0.56,-1.33,0.04
0.57,-1.38,0.02
0.56,-1.41,0.02
0.55,-1.41,0.02
0.53,-1.4,0.02
0.51,-1.35,0.02
0.49,-1.29,0.01
0.46,-1.24,0.01
0.44,-1.2,0.01
0.43,-1.15,0.01
0.41,-1.11,0.01
0.39,-1.07,0
0.35,-1,-0.01
0.33,-0.99,-0.01
0.31,-0.99,-0.02
0.31,-1.02,-0.04
0.31,-1.09,-0.05
0.3,-1.18,-0.05
0.3,-1.26,-0.05
0.29,-1.31,-0.05
0.27,-1.32,-0.05
0.25,-1.29,-0.06
0.23,-1.22,-0.06
0.21,-1.12,-0.06
0.2,-1.02,-0.07
0.2,-0.93,-0.07
0.2,-0.87,-0.08
0.24,-0.83,-0.09
0.26,-0.82,-0.09
0.26,-0.82,-0.1
0.25,-0.81,-0.1
0.25,-0.8,-0.08
0.24,-0.78,-0.07
0.23,-0.76,-0.07
0.22,-0.74,-0.06
0.22,-0.72,-0.06
0.23,-0.7,-0.06
0.24,-0.69,-0.05
0.25,-0.69,-0.04
0.24,-0.7,-0.04
0.24,-0.71,-0.03
0.23,-0.74,-0.03
0.22,-0.75,-0.02
0.22,-0.76,-0.02
0.22,-0.78,-0.02
0.22,-0.81,-0.03
0.23,-0.85,-0.03
0.24,-0.87,-0.03
0.26,-0.9,-0.03
0.26,-0.94,-0.04
0.29,-0.97,-0.05
0.3,-1,-0.03
0.31,-1.03,-0.03
0.33,-1.05,-0.03
0.34,-1.09,-0.02
0.35,-1.13,-0.02
0.37,-1.16,-0.02
0.38,-1.2,-0.01
0.39,-1.24,0
0.4,-1.28,0
0.42,-1.3,0
0.43,-1.32,0.01
0.43,-1.32,0
0.46,-1.32,0
0.49,-1.31,0.05
0.51,-1.31,0.05
0.49,-1.3,0.05
0.47,-1.3,0.06
0.51,-1.3,0.06
0.54,-1.32,0.08
0.51,-1.36,0.1
0.5,-1.38,0.09
0.54,-1.35,0.07
0.53,-1.3,0.08
0.49,-1.23,0.08
0.49,-1.13,0.09
0.48,-1.04,0.08
0.47,-0.96,0.09
0.47,-0.9,0.09
0.48,-0.88,0.07
0.48,-0.88,0.06
0.49,-0.89,0.07
0.5,-0.92,0.07
0.5,-0.93,0.07
0.5,-0.94,0.07
0.49,-0.96,0.08
0.48,-0.96,0.08
0.47,-0.95,0.08
0.47,-0.94,0.08
0.48,-0.92,0.09
0.49,-0.89,0.08
0.51,-0.89,0.09
0.53,-0.9,0.08
0.54,-0.91,0.08
0.54,-0.93,0.07
0.56,-0.94,0.08
0.58,-0.94,0.09
0.59,-0.95,0.09
0.6,-0.95,0.08
0.62,-0.95,0.09
0.64,-0.93,0.1
0.64,-0.93,0.11
0.64,-0.94,0.1
0.65,-0.94,0.1
0.64,-0.94,0.11
0.63,-0.96,0.1
0.6,-0.98,0.09
0.58,-1,0.1
0.57,-1.01,0.11
0.55,-1.02,0.11
0.54,-1.04,0.1
0.54,-1.06,0.1
0.54,-1.09,0.09
0.53,-1.13,0.08
0.53,-1.18,0.08
0.53,-1.23,0.09
0.54,-1.34,0.08
0.56,-1.38,0.1
0.55,-1.4,0.11
0.53,-1.37,0.11
0.53,-1.32,0.11
0.52,-1.28,0.09
0.51,-1.24,0.09
0.5,-1.21,0.1
0.48,-1.17,0.1
0.47,-1.14,0.1
0.45,-1.1,0.1
0.44,-1.06,0.09
0.43,-1.05,0.07
0.43,-1.07,0.05
0.42,-1.14,0.03
0.42,-1.22,0.01
0.4,-1.29,-0.01
0.38,-1.33,-0.01
0.38,-1.32,0.01
0.36,-1.27,0.01
0.35,-1.19,0
0.33,-1.09,-0.02
0.32,-1.01,-0.03
0.32,-0.96,-0.03
0.33,-0.93,-0.04
0.33,-0.93,-0.04
0.32,-0.9,-0.07
0.27,-0.88,-0.07
0.25,-0.86,-0.06
0.23,-0.83,-0.06
0.23,-0.81,-0.07
0.21,-0.78,-0.08
0.21,-0.75,-0.09
0.22,-0.73,-0.09
0.23,-0.7,-0.09
0.24,-0.68,-0.09
0.24,-0.65,-0.08
0.25,-0.63,-0.08
0.25,-0.61,-0.08
0.25,-0.6,-0.07
0.25,-0.6,-0.07
0.25,-0.61,-0.07
0.26,-0.62,-0.07
0.26,-0.64,-0.08
0.26,-0.67,-0.08
0.26,-0.7,-0.08
0.26,-0.72,-0.08
0.26,-0.76,-0.08
0.25,-0.79,-0.09
0.26,-0.82,-0.08
0.27,-0.85,-0.08
0.28,-0.87,-0.08
0.29,-0.9,-0.06
0.32,-0.97,-0.05
0.33,-1.01,-0.05
0.36,-1.05,-0.04
0.38,-1.1,-0.03
0.4,-1.15,-0.02
0.42,-1.2,-0.01
0.43,-1.26,-0.01
0.43,-1.32,0
0.41,-1.38,0.01
0.41,-1.41,0.01
0.43,-1.44,0.01
0.42,-1.46,0.01
0.44,-1.47,0.02
0.46,-1.48,0.04
0.47,-1.49,0.08
0.49,-1.47,0.09
0.51,-1.43,0.08
0.53,-1.37,0.09
0.54,-1.3,0.11
0.54,-1.22,0.12
0.51,-1.15,0.1
0.5,-1.09,0.07
0.49,-1.04,0.07
0.45,-1.03,0.09
0.45,-1.05,0.08
0.49,-1.07,0.09
0.51,-1.16,0.09
0.52,-1.18,0.09
0.5,-1.19,0.09
0.48,-1.17,0.09
0.49,-1.13,0.09
0.48,-1.07,0.08
0.48,-1.01,0.08
0.49,-0.96,0.08
0.52,-0.91,0.08
0.51,-0.88,0.09
0.51,-0.86,0.09
0.54,-0.84,0.08
0.57,-0.83,0.09
0.57,-0.84,0.1
0.57,-0.85,0.09
0.59,-0.85,0.09
0.58,-0.85,0.09
0.57,-0.86,0.08
0.59,-0.86,0.07
0.61,-0.87,0.08
0.61,-0.89,0.09
0.63,-0.9,0.09
0.65,-0.92,0.1
0.67,-0.94,0.09
0.69,-0.95,0.08
0.69,-0.98,0.07
0.67,-1.01,0.07
0.66,-1.02,0.07
0.66,-1.03,0.07
0.65,-1.03,0.08
0.64,-1.04,0.08
0.63,-1.06,0.08
0.62,-1.08,0.07
0.6,-1.09,0.06
0.59,-1.11,0.06
0.58,-1.14,0.06
0.57,-1.19,0.06
0.57,-1.24,0.07
0.57,-1.29,0.07
0.57,-1.32,0.06
0.55,-1.33,0.06
0.54,-1.31,0.05
0.52,-1.27,0.05
0.5,-1.23,0.05
0.49,-1.19,0.05
0.48,-1.16,0.03
0.47,-1.14,0.04
0.44,-1.13,0.05
0.44,-1.16,0.04
0.46,-1.2,0.02
0.45,-1.23,0.02
0.43,-1.27,0.02
0.38,-1.31,0.02
0.37,-1.29,0.01
0.35,-1.25,0.01
0.35,-1.2,0.01
0.35,-1.17,0.01
0.36,-1.15,0.01
0.36,-1.14,-0.01
0.35,-1.14,-0.02
0.33,-1.14,-0.02
0.31,-1.1,-0.03
0.3,-1.07,-0.03
0.28,-1.03,-0.04
0.26,-0.97,-0.04
0.25,-0.92,-0.04
0.24,-0.87,-0.05
0.23,-0.83,-0.06
0.23,-0.79,-0.05
0.23,-0.76,-0.06
0.23,-0.73,-0.06
0.23,-0.71,-0.06
0.23,-0.69,-0.06
0.24,-0.69,-0.07
0.23,-0.69,-0.07
0.23,-0.7,-0.07
0.24,-0.72,-0.07
0.24,-0.74,-0.07
0.23,-0.77,-0.07
0.23,-0.78,-0.08
0.22,-0.79,-0.08
0.22,-0.8,-0.08
0.22,-0.8,-0.08
0.21,-0.81,-0.08
0.22,-0.81,-0.08
0.23,-0.81,-0.08
0.24,-0.82,-0.08
0.26,-0.82,-0.07
0.27,-0.84,-0.07
0.28,-0.85,-0.07
0.29,-0.86,-0.06
0.3,-0.87,-0.05
0.32,-0.9,-0.05
0.33,-0.93,-0.05
0.34,-0.98,-0.04
0.34,-1.04,-0.03
0.35,-1.11,-0.03
0.35,-1.19,-0.04
0.36,-1.26,-0.04
0.36,-1.32,-0.04
0.37,-1.38,-0.05
0.38,-1.44,-0.04
0.41,-1.48,-0.02
0.44,-1.5,0
0.48,-1.48,0.05
0.56,-1.43,0.1
0.59,-1.37,0.12
0.54,-1.32,0.11
0.54,-1.26,0.11
0.56,-1.17,0.11
0.54,-1.1,0.1
0.48,-1.08,0.09
0.44,-1.07,0.09
0.47,-1.08,0.12
0.45,-1.13,0.14
0.46,-1.19,0.13
0.5,-1.22,0.13
0.51,-1.23,0.13
0.52,-1.21,0.14
0.53,-1.18,0.15
0.52,-1.14,0.15
0.52,-1.1,0.15
0.54,-1.05,0.15
0.56,-1,0.14
0.55,-0.97,0.13
0.57,-0.95,0.12
0.6,-0.94,0.11
0.58,-0.95,0.12
0.57,-0.95,0.11
0.61,-0.93,0.11
0.63,-0.89,0.12
0.69,-0.86,0.12
0.7,-0.85,0.12
0.7,-0.84,0.1
0.71,-0.82,0.1
0.69,-0.83,0.11
0.66,-0.84,0.13
0.66,-0.85,0.12
0.66,-0.85,0.11
0.65,-0.85,0.12
0.63,-0.87,0.12
0.62,-0.9,0.11
0.61,-0.94,0.11
0.61,-0.99,0.11
0.6,-1.04,0.11
0.6,-1.07,0.1
0.6,-1.08,0.09
0.6,-1.09,0.08
0.59,-1.11,0.08
0.6,-1.11,0.09
0.59,-1.11,0.1
0.59,-1.12,0.08
0.59,-1.15,0.06
0.59,-1.18,0.05
0.6,-1.22,0.05
0.63,-1.27,0.05
0.67,-1.32,0.02
0.68,-1.35,0.02
0.65,-1.35,0.01
0.62,-1.33,0.01
0.6,-1.32,0.01
0.58,-1.32,0.01
0.56,-1.35,0.02
0.54,-1.37,0.02
0.51,-1.36,0.02
0.49,-1.32,0.02
0.45,-1.27,0.01
0.41,-1.2,0.01
0.39,-1.14,0.02
0.39,-1.1,0.02
0.4,-1.1,0.01
0.4,-1.14,0
0.41,-1.18,-0.02
0.4,-1.24,-0.04
0.38,-1.27,-0.05
0.35,-1.27,-0.04
0.31,-1.26,-0.04
0.29,-1.22,-0.05
0.27,-1.16,-0.05
0.25,-1.1,-0.06
0.24,-1.03,-0.06
0.24,-0.95,-0.06
0.25,-0.87,-0.07
0.22,-0.74,-0.06
0.23,-0.68,-0.06
0.23,-0.63,-0.06
0.23,-0.59,-0.05
0.23,-0.57,-0.04
0.24,-0.56,-0.05
0.24,-0.55,-0.05
0.24,-0.55,-0.05
0.25,-0.56,-0.06
0.25,-0.58,-0.06
0.25,-0.61,-0.07
0.24,-0.64,-0.07
0.23,-0.68,-0.07
0.23,-0.72,-0.07
0.22,-0.76,-0.07
0.21,-0.79,-0.07
0.22,-0.81,-0.07
0.22,-0.83,-0.07
0.22,-0.84,-0.07
0.22,-0.86,-0.06
0.23,-0.87,-0.06
0.23,-0.89,-0.05
0.25,-0.91,-0.04
0.28,-0.93,-0.03
0.3,-0.97,-0.01
0.33,-1,0.02
0.37,-1.02,0.03
0.36,-1.06,0.03
0.38,-1.1,0.04
0.41,-1.17,0.05
0.41,-1.26,0.06
0.39,-1.32,0.06
0.38,-1.38,0.06
0.4,-1.44,0.05
0.41,-1.5,0.05
0.43,-1.53,0.05
0.45,-1.53,0.06
0.49,-1.49,0.07
0.53,-1.42,0.09
0.51,-1.37,0.08
0.51,-1.3,0.07
0.58,-1.27,0.07
0.58,-1.35,0.08
0.58,-1.47,0.1
0.59,-1.57,0.1
0.57,-1.65,0.12
0.57,-1.68,0.13
0.55,-1.65,0.12
0.53,-1.55,0.11
0.54,-1.41,0.13
0.54,-1.28,0.15
0.51,-1.16,0.15
0.52,-0.95,0.14
0.52,-0.89,0.14
0.55,-0.83,0.15
0.55,-0.8,0.15
0.56,-0.79,0.12
0.54,-0.78,0.13
0.5,-0.8,0.12
0.51,-0.8,0.11
0.53,-0.79,0.11
0.53,-0.8,0.12
0.52,-0.81,0.11
0.52,-0.82,0.1
0.54,-0.83,0.08
0.55,-0.83,0.08
0.57,-0.83,0.08
0.6,-0.85,0.07
0.63,-0.87,0.05
0.67,-0.87,0.02
0.7,-0.88,0.01
0.74,-0.9,0.01
0.76,-0.92,0.01
0.78,-0.92,0.02
0.8,-0.93,0.02
0.82,-0.94,0.02
0.81,-0.95,0.02
0.79,-0.96,0.02
0.76,-1.02,0.03
0.72,-1.06,0.03
0.7,-1.09,0.04
0.69,-1.11,0.04
0.68,-1.14,0.05
0.68,-1.17,0.05
0.67,-1.2,0.05
0.66,-1.24,0.05
0.66,-1.28,0.04
0.65,-1.32,0.04
0.64,-1.38,0.04
0.62,-1.43,0.04
0.62,-1.46,0.05
0.62,-1.49,0.04
0.63,-1.52,0.02
0.63,-1.54,-0.01
0.6,-1.56,-0.01
0.57,-1.56,0.01
0.55,-1.53,0.01
0.57,-1.47,0.03
0.58,-1.42,0.05
0.56,-1.4,0.06
0.56,-1.39,0.05
0.56,-1.41,0.04
0.54,-1.45,0.02
0.5,-1.48,0.01
0.45,-1.45,0.01
0.36,-1.37,0.02
0.32,-1.28,0.02
0.3,-1.19,0.02
0.29,-1.09,0.01
0.27,-0.99,0
0.26,-0.92,-0.01
0.26,-0.86,0
0.27,-0.8,0
0.26,-0.76,-0.02
0.24,-0.72,-0.02
0.22,-0.69,-0.02
0.21,-0.66,-0.03
0.19,-0.62,-0.03
0.17,-0.59,-0.03
0.16,-0.58,-0.04
0.14,-0.57,-0.04
0.13,-0.56,-0.04
0.13,-0.57,-0.04
0.13,-0.57,-0.04
0.13,-0.58,-0.04
0.14,-0.59,-0.04
0.14,-0.61,-0.05
0.14,-0.63,-0.05
0.14,-0.64,-0.06
0.15,-0.65,-0.06
0.16,-0.66,-0.06
0.18,-0.68,-0.06
0.19,-0.68,-0.07
0.21,-0.7,-0.07
0.23,-0.72,-0.07
0.24,-0.75,-0.08
0.25,-0.78,-0.09
0.28,-0.82,-0.09
0.28,-0.86,-0.09
0.29,-0.9,-0.08
0.3,-0.96,-0.08
0.31,-1,-0.09
0.35,-1.04,-0.09
0.37,-1.11,-0.07
0.37,-1.18,-0.06
0.39,-1.25,-0.06
0.42,-1.34,-0.05
0.43,-1.46,-0.05
0.45,-1.6,-0.06
0.45,-1.73,-0.07
0.42,-1.87,-0.07
0.42,-2.01,-0.09
0.4,-2.07,-0.09
0.38,-2.03,-0.07
0.42,-1.9,-0.03
0.47,-1.74,0
0.48,-1.58,-0.04
0.62,-1.31,-0.05
0.56,-1.23,-0.05
0.52,-1.19,-0.05
0.55,-1.22,-0.04
0.55,-1.29,-0.04
0.48,-1.36,-0.02
0.48,-1.43,0.01
0.53,-1.48,0.01
0.5,-1.52,0
0.49,-1.53,-0.01
0.49,-1.5,-0.01
0.5,-1.42,-0.01
0.52,-1.31,-0.01
0.52,-1.2,0
0.54,-1.09,0
0.56,-0.99,0
0.57,-0.89,0
0.57,-0.83,0
0.55,-0.79,0
0.55,-0.76,0
0.55,-0.73,0
0.56,-0.71,0
0.58,-0.68,-0.01
0.56,-0.68,-0.02
0.56,-0.69,-0.03
0.57,-0.71,0
0.58,-0.76,0
0.6,-0.79,0
0.6,-0.83,0
0.6,-0.86,0
0.61,-0.88,0.01
0.61,-0.89,0.03
0.61,-0.91,0.05
0.61,-0.93,0.07
0.62,-0.95,0.09
0.62,-0.97,0.11
0.62,-1,0.12
0.62,-1.04,0.13
0.62,-1.08,0.15
0.6,-1.11,0.18
0.6,-1.14,0.2
0.61,-1.19,0.22
0.62,-1.24,0.25
0.65,-1.28,0.29
0.67,-1.32,0.3
0.68,-1.33,0.29
0.68,-1.33,0.27
0.68,-1.34,0.26
0.69,-1.38,0.24
0.7,-1.46,0.23
0.69,-1.58,0.21
0.67,-1.71,0.2
0.59,-1.85,0.2
0.53,-1.77,0.2
0.5,-1.65,0.17
0.47,-1.5,0.16
0.47,-1.38,0.16
0.49,-1.33,0.15
0.48,-1.3,0.14
0.47,-1.3,0.12
0.45,-1.3,0.1
0.43,-1.29,0.1
0.41,-1.26,0.1
0.38,-1.2,0.1
0.34,-1.14,0.09
0.29,-1.06,0.08
0.26,-0.97,0.06
0.24,-0.89,0.06
0.23,-0.82,0.05
0.22,-0.76,0.04
0.21,-0.71,0.03
0.21,-0.68,0.02
0.22,-0.66,0.01
0.21,-0.65,-0.01
0.2,-0.66,-0.04
0.17,-0.68,-0.05
0.15,-0.66,-0.05
0.15,-0.66,-0.05
0.15,-0.71,-0.08
0.15,-0.72,-0.1
0.15,-0.74,-0.13
0.14,-0.76,-0.16
0.13,-0.78,-0.16
0.15,-0.79,-0.17
0.16,-0.78,-0.17
0.18,-0.77,-0.17
0.19,-0.76,-0.17
0.21,-0.76,-0.18
0.23,-0.75,-0.18
0.24,-0.77,-0.19
0.25,-0.79,-0.19
0.26,-0.82,-0.19
0.28,-0.87,-0.18
0.3,-0.93,-0.19
0.3,-1.02,-0.19
0.28,-1.12,-0.18
0.27,-1.18,-0.16
0.27,-1.21,-0.14
0.25,-1.22,-0.13
0.27,-1.24,-0.11
0.32,-1.27,-0.1
0.37,-1.32,-0.09
0.43,-1.37,-0.06
0.46,-1.44,-0.04
0.47,-1.57,0.02
0.49,-1.61,0.02
0.56,-1.69,0.05
1.05,-1.8,0.21
1.22,-1.78,0.41
0.52,-1.55,0.48
-0.05,-1.42,0.33
0.09,-1.49,0.04
0.57,-1.54,-0.17
0.71,-1.48,-0.18
0.62,-1.37,-0.09
0.56,-1.29,-0.06
0.55,-1.21,-0.07
0.56,-1.13,-0.07
0.55,-1.08,-0.05
0.52,-1.04,-0.02
0.46,-1.01,0
0.41,-1,0
0.43,-0.97,0
0.43,-0.94,-0.01
0.4,-0.93,-0.01
0.39,-0.92,-0.01
0.41,-0.91,-0.02
0.43,-0.89,-0.02
0.43,-0.88,-0.02
0.43,-0.86,-0.01
0.43,-0.81,0.01
0.45,-0.79,0.01
0.44,-0.76,0.01
0.45,-0.72,0.02
0.44,-0.7,0.01
0.45,-0.7,0.02
0.47,-0.74,0.04
0.49,-0.79,0.06
0.5,-0.84,0.07
0.49,-0.9,0.07
0.47,-0.97,0.05
0.42,-1.03,0.04
0.38,-1.07,0.03
0.33,-1.1,0.04
0.28,-1.12,0.03
0.24,-1.11,0.03
0.22,-1.1,0.03
0.2,-1.08,0.03
0.17,-1.07,0.05
0.14,-1.08,0.08
0.11,-1.08,0.11
0.11,-1.09,0.13
0.07,-1.12,0.14
0.03,-1.13,0.15
0,-1.14,0.15
-0.04,-1.15,0.13
-0.09,-1.14,0.11
-0.17,-1.1,0.14
-0.18,-1.06,0.16
-0.17,-1.02,0.17
-0.13,-1,0.16
-0.11,-0.99,0.15
-0.11,-0.98,0.16
-0.07,-0.97,0.16
-0.04,-0.98,0.17
-0.02,-1,0.16
-0.02,-1.01,0.16
-0.02,-1.01,0.15
-0.02,-1.02,0.14
-0.02,-1.03,0.14
-0.02,-1.04,0.13
-0.01,-1.04,0.11
0,-1.03,0.11
0.02,-1.02,0.09
0.05,-1.01,0.08
0.09,-1,0.07
0.11,-0.99,0.06
0.13,-0.98,0.05
0.14,-0.98,0.04
0.16,-0.98,0.03
0.17,-0.97,0.03
0.18,-0.98,0.02
0.19,-0.98,0.01
0.2,-0.99,0
0.2,-0.99,-0.01
0.21,-0.99,-0.02
0.21,-0.99,-0.03
0.22,-0.98,-0.03
0.22,-0.97,-0.03
0.22,-0.97,-0.04
0.21,-0.96,-0.04
0.2,-0.95,-0.04
0.21,-0.94,-0.05
0.21,-0.94,-0.07
0.21,-0.93,-0.07
0.21,-0.92,-0.08
0.22,-0.92,-0.08
0.23,-0.92,-0.08
0.23,-0.92,-0.08
0.24,-0.92,-0.08
0.24,-0.9,-0.08
0.23,-0.87,-0.08
0.23,-0.83,-0.08
0.24,-0.79,-0.08
0.22,-0.78,-0.08
0.21,-0.77,-0.07
0.21,-0.77,-0.06
0.2,-0.78,-0.03
0.2,-0.78,-0.01
0.2,-0.79,0.01
0.16,-0.82,0.02
0.13,-0.85,0.02
0.11,-0.93,0.02
0.09,-0.98,0.02
0.07,-0.98,0.03
0.06,-0.86,0.04
0.11,-0.7,0.06
0.17,-0.69,0.08
0.19,-0.71,0.11
0.22,-0.74,0.15
0.24,-0.81,0.17
0.25,-0.89,0.16
0.22,-0.93,0.14
0.2,-0.94,0.16
0.17,-0.93,0.21
0.17,-0.93,0.26
0.17,-0.92,0.28
0.17,-0.93,0.28
0.19,-0.95,0.27
0.23,-0.97,0.25
0.27,-1,0.22
0.29,-1.02,0.2
0.3,-1.03,0.19
0.29,-1.01,0.18
0.27,-0.98,0.16
0.27,-0.98,0.18
0.29,-1,0.2
0.3,-1.01,0.22
0.29,-1.02,0.24
0.29,-1.05,0.26
0.3,-1.08,0.28
0.33,-1.11,0.26
0.35,-1.15,0.24
0.36,-1.21,0.21
0.39,-1.28,0.2
0.4,-1.34,0.2
0.33,-1.38,0.21
0.15,-1.47,0.35
-0.08,-1.6,0.67
-0.13,-1.64,0.94
0.19,-1.56,0.96
0.57,-1.47,0.75
0.8,-1.44,0.5
0.88,-1.38,0.27
0.84,-1.33,0.06
0.79,-1.38,-0.08
0.77,-1.47,-0.14
0.79,-1.51,-0.15
0.79,-1.47,-0.07
0.8,-1.38,0.06
0.88,-1.3,0.15
0.89,-1.1,0.15
0.86,-0.89,0.13
0.76,-0.78,0.16
0.71,-0.71,0.2
0.68,-0.64,0.24
0.62,-0.57,0.23
0.56,-0.46,0.21
0.68,-0.15,0.34
0.72,-0.12,0.24
0.75,-0.32,0.11
0.76,-0.34,0.22
0.64,-0.37,0.27
0.71,-0.35,0.29
0.81,-0.31,0.28
0.73,-0.3,0.31
0.71,-0.37,0.25
0.71,-0.39,0.25
0.65,-0.43,0.26
0.61,-0.43,0.25
0.58,-0.38,0.32
0.79,-0.53,0.4
0.63,-0.82,0.31
0.44,-0.56,0.27
0.57,-0.22,0.34
0.57,-0.45,0.29
0.61,-0.58,0.28
0.65,-0.55,0.29
0.66,-0.59,0.29
0.66,-0.63,0.28
0.67,-0.66,0.27
0.69,-0.67,0.26
0.69,-0.7,0.24
0.7,-0.73,0.22
0.71,-0.75,0.19
0.72,-0.77,0.16
0.74,-0.79,0.13
0.73,-0.79,0.12
0.71,-0.79,0.13
0.7,-0.8,0.14
0.68,-0.81,0.17
0.64,-0.81,0.19
0.59,-0.81,0.2
0.57,-0.81,0.21
0.56,-0.8,0.21
0.53,-0.78,0.22
0.52,-0.79,0.22
