Acc_x,Acc_y,Acc_z
-0.36,0.36,0.77
-0.38,0.37,0.81
-0.4,0.38,0.86
-0.42,0.38,0.9
-0.43,0.38,0.92
-0.43,0.38,0.92
-0.42,0.37,0.91
-0.41,0.36,0.88
-0.4,0.35,0.85
-0.4,0.34,0.83
-0.41,0.33,0.81
-0.43,0.32,0.81
-0.44,0.31,0.81
-0.44,0.31,0.82
-0.45,0.31,0.83
-0.45,0.31,0.84
-0.45,0.31,0.85
-0.43,0.32,0.85
-0.43,0.32,0.85
-0.42,0.32,0.85
-0.42,0.33,0.85
-0.41,0.33,0.85
-0.4,0.33,0.84
-0.4,0.34,0.85
-0.4,0.34,0.85
-0.41,0.34,0.85
-0.41,0.34,0.84
-0.42,0.34,0.84
-0.43,0.34,0.84
-0.43,0.33,0.85
-0.44,0.32,0.84
-0.44,0.32,0.84
-0.44,0.32,0.85
-0.44,0.32,0.85
-0.43,0.32,0.85
-0.43,0.32,0.85
-0.42,0.32,0.84
-0.42,0.32,0.85
-0.41,0.32,0.84
-0.42,0.32,0.84
-0.42,0.32,0.85
-0.43,0.32,0.85
-0.43,0.33,0.85
-0.43,0.33,0.84
-0.43,0.33,0.85
-0.43,0.33,0.85
-0.43,0.33,0.85
-0.43,0.33,0.85
-0.43,0.33,0.84
-0.42,0.32,0.84
-0.43,0.32,0.84
-0.43,0.32,0.84
-0.43,0.32,0.84
-0.43,0.32,0.84
-0.43,0.32,0.85
-0.43,0.32,0.85
-0.43,0.32,0.85
-0.43,0.32,0.85
-0.43,0.32,0.85
-0.43,0.32,0.85
-0.43,0.32,0.84
-0.43,0.32,0.84
-0.43,0.32,0.85
-0.43,0.32,0.84
-0.43,0.32,0.84
-0.43,0.32,0.84
-0.43,0.33,0.84
-0.43,0.32,0.84
-0.43,0.32,0.85
-0.43,0.32,0.85
-0.43,0.32,0.84
-0.43,0.32,0.84
-0.43,0.32,0.84
-0.43,0.32,0.85
-0.43,0.32,0.85
-0.43,0.32,0.85
-0.43,0.32,0.85
-0.43,0.32,0.85
-0.43,0.32,0.85
-0.43,0.32,0.84
-0.43,0.32,0.84
-0.43,0.32,0.84
-0.43,0.32,0.85
-0.43,0.32,0.85
-0.43,0.32,0.84
-0.43,0.32,0.84
-0.43,0.32,0.84
-0.43,0.32,0.84
-0.43,0.32,0.85
-0.43,0.32,0.85
-0.43,0.32,0.84
-0.43,0.32,0.84
-0.43,0.32,0.84
-0.43,0.32,0.84
-0.43,0.32,0.84
-0.43,0.32,0.84
-0.43,0.32,0.84
-0.43,0.32,0.84
-0.43,0.32,0.84
-0.43,0.32,0.84
-0.43,0.32,0.84
-0.43,0.31,0.85
-0.43,0.31,0.85
-0.42,0.32,0.85
-0.42,0.32,0.85
-0.43,0.32,0.85
-0.43,0.32,0.85
-0.43,0.32,0.84
-0.43,0.32,0.84
-0.43,0.32,0.85
-0.43,0.32,0.85
-0.43,0.32,0.85
-0.42,0.32,0.85
-0.42,0.32,0.85
-0.43,0.32,0.85
-0.43,0.32,0.84
-0.43,0.32,0.84
-0.43,0.32,0.84
-0.43,0.32,0.84
-0.43,0.33,0.84
-0.43,0.32,0.85
-0.43,0.32,0.85
-0.43,0.32,0.85
-0.43,0.32,0.85
-0.43,0.32,0.85
-0.42,0.32,0.85
-0.43,0.32,0.84
-0.43,0.32,0.84
-0.43,0.32,0.84
-0.42,0.32,0.84
-0.42,0.32,0.84
-0.43,0.32,0.84
-0.43,0.32,0.85
-0.44,0.32,0.85
-0.43,0.32,0.85
-0.43,0.32,0.85
-0.43,0.32,0.85
-0.43,0.32,0.85
-0.43,0.32,0.85
-0.42,0.32,0.84
-0.42,0.32,0.84
-0.43,0.32,0.85
-0.43,0.32,0.85
-0.43,0.32,0.85
-0.43,0.32,0.84
-0.43,0.32,0.85
-0.43,0.32,0.84
-0.43,0.32,0.85
-0.43,0.32,0.85
-0.42,0.32,0.85
-0.42,0.32,0.85
-0.42,0.32,0.85
-0.43,0.32,0.85
-0.43,0.32,0.85
-0.43,0.32,0.85
-0.42,0.32,0.85
-0.43,0.32,0.85
-0.43,0.32,0.85
-0.43,0.32,0.85
-0.43,0.32,0.85
-0.43,0.32,0.85
-0.43,0.32,0.85
-0.43,0.32,0.85
-0.43,0.32,0.85
-0.43,0.32,0.84
-0.43,0.32,0.84
-0.43,0.32,0.85
-0.43,0.32,0.85
-0.43,0.32,0.85
-0.43,0.33,0.85
-0.42,0.32,0.85
-0.42,0.32,0.85
-0.43,0.32,0.85
-0.43,0.32,0.84
-0.43,0.32,0.84
-0.42,0.32,0.85
-0.42,0.31,0.85
-0.42,0.31,0.85
-0.4,0.32,0.85
-0.39,0.32,0.85
-0.4,0.32,0.86
-0.41,0.33,0.87
-0.43,0.34,0.88
-0.44,0.34,0.88
-0.45,0.33,0.88
-0.47,0.33,0.88
-0.48,0.33,0.89
-0.48,0.34,0.91
-0.48,0.34,0.95
-0.5,0.34,0.98
-0.5,0.34,0.99
-0.5,0.31,0.97
-0.54,0.29,0.95
-0.64,0.32,1.03
-0.72,0.37,1.07
-0.69,0.37,1.09
-0.69,0.38,1.12
-0.71,0.38,1.13
-0.74,0.37,1.13
-0.75,0.37,1.13
-0.76,0.36,1.15
-0.77,0.34,1.15
-0.75,0.32,1.14
-0.73,0.3,1.12
-0.72,0.29,1.1
-0.71,0.28,1.07
-0.67,0.26,1.04
-0.64,0.24,1.01
-0.61,0.21,0.98
-0.59,0.19,0.96
-0.61,0.16,0.96
-0.59,0.11,0.96
-0.58,0.08,0.96
-0.59,0.08,0.97
-0.57,0.05,0.95
-0.54,0.03,0.92
-0.5,-0.01,0.87
-0.44,-0.05,0.8
-0.38,-0.09,0.7
-0.35,-0.12,0.6
-0.37,-0.15,0.55
-0.39,-0.19,0.52
-0.4,-0.3,0.53
-0.38,-0.33,0.55
-0.34,-0.36,0.55
-0.28,-0.38,0.54
-0.23,-0.4,0.52
-0.19,-0.42,0.5
-0.15,-0.45,0.47
-0.12,-0.48,0.45
-0.11,-0.5,0.44
-0.1,-0.52,0.44
-0.08,-0.55,0.42
-0.07,-0.58,0.41
-0.07,-0.6,0.4
-0.09,-0.61,0.39
-0.1,-0.62,0.39
-0.11,-0.64,0.37
-0.11,-0.66,0.35
-0.11,-0.66,0.34
-0.12,-0.65,0.34
-0.15,-0.65,0.35
-0.18,-0.64,0.37
-0.22,-0.62,0.41
-0.26,-0.61,0.44
-0.27,-0.61,0.47
-0.26,-0.61,0.46
-0.22,-0.6,0.44
-0.2,-0.58,0.41
-0.19,-0.57,0.39
-0.18,-0.55,0.33
-0.15,-0.5,0.31
-0.13,-0.46,0.33
-0.12,-0.42,0.35
-0.13,-0.39,0.36
-0.14,-0.35,0.36
-0.14,-0.29,0.34
-0.14,-0.23,0.3
-0.15,-0.17,0.27
-0.16,-0.09,0.23
-0.17,-0.02,0.21
-0.18,0.08,0.21
-0.21,0.19,0.26
-0.26,0.3,0.35
-0.33,0.39,0.42
-0.36,0.48,0.47
-0.33,0.58,0.55
-0.37,0.66,0.71
-0.48,0.7,0.94
-0.67,0.75,1.09
-1.72,1.54,2.56
-3.31,1.62,3.99
-3.23,0.9,3.94
-1.55,0.79,3.24
-0.54,0.76,2.01
-0.35,0.85,1.1
-0.21,0.68,0.55
-0.15,0.31,0.22
-0.07,0.25,0.12
0.03,0.41,0.27
0.03,0.37,0.58
0.01,0.34,0.74
-0.12,0.33,0.71
-0.18,0.32,0.77
-0.21,0.32,0.85
-0.21,0.32,0.96
-0.28,0.31,1.1
-0.42,0.31,1.22
-0.55,0.3,1.25
-0.6,0.3,1.19
-0.57,0.29,1.07
-0.51,0.29,0.96
-0.43,0.31,0.88
-0.38,0.31,0.81
-0.37,0.31,0.76
-0.37,0.31,0.72
-0.39,0.31,0.68
-0.4,0.31,0.67
-0.41,0.29,0.68
-0.44,0.29,0.72
-0.48,0.29,0.77
-0.51,0.3,0.84
-0.51,0.3,0.89
-0.51,0.3,0.92
-0.5,0.32,0.94
-0.47,0.33,0.95
-0.43,0.33,0.93
-0.41,0.33,0.86
-0.39,0.33,0.83
-0.4,0.33,0.81
-0.4,0.32,0.8
-0.41,0.31,0.8
-0.42,0.31,0.8
-0.45,0.3,0.82
-0.47,0.29,0.84
-0.48,0.29,0.86
-0.49,0.29,0.86
-0.49,0.28,0.86
-0.48,0.28,0.85
-0.47,0.28,0.85
-0.46,0.29,0.85
-0.45,0.3,0.84
-0.44,0.3,0.83
-0.44,0.3,0.83
-0.43,0.3,0.83
-0.43,0.31,0.83
-0.44,0.31,0.83
-0.44,0.31,0.84
-0.45,0.31,0.85
-0.45,0.31,0.86
-0.45,0.31,0.86
-0.44,0.31,0.86
-0.44,0.31,0.86
-0.44,0.31,0.85
-0.43,0.31,0.85
-0.43,0.31,0.84
-0.43,0.31,0.84
-0.44,0.31,0.83
-0.44,0.31,0.83
-0.45,0.31,0.84
-0.45,0.3,0.84
-0.46,0.31,0.85
-0.45,0.31,0.85
-0.45,0.31,0.85
-0.44,0.31,0.85
-0.44,0.31,0.85
-0.43,0.31,0.84
-0.44,0.31,0.84
-0.44,0.31,0.84
-0.45,0.31,0.84
-0.45,0.31,0.84
-0.45,0.31,0.84
-0.45,0.31,0.84
-0.45,0.31,0.84
-0.45,0.31,0.84
-0.45,0.3,0.85
-0.44,0.3,0.84
-0.44,0.3,0.85
-0.45,0.3,0.85
-0.45,0.3,0.85
-0.45,0.3,0.84
-0.45,0.3,0.84
-0.45,0.31,0.84
-0.45,0.31,0.84
-0.45,0.31,0.84
-0.45,0.31,0.85
-0.45,0.3,0.85
-0.44,0.3,0.84
-0.44,0.31,0.84
-0.44,0.31,0.84
-0.44,0.31,0.84
-0.44,0.3,0.84
-0.44,0.3,0.84
-0.44,0.3,0.84
-0.44,0.3,0.84
-0.44,0.3,0.84
-0.44,0.3,0.84
-0.45,0.31,0.84
-0.45,0.31,0.84
-0.45,0.31,0.84
-0.45,0.31,0.84
-0.45,0.31,0.85
-0.45,0.31,0.85
-0.44,0.31,0.85
-0.44,0.31,0.84
-0.45,0.31,0.84
-0.45,0.3,0.84
-0.45,0.3,0.84
-0.45,0.3,0.84
-0.45,0.3,0.84
-0.45,0.31,0.84
-0.44,0.3,0.85
-0.44,0.3,0.84
-0.45,0.31,0.84
-0.45,0.31,0.84
-0.45,0.31,0.84
-0.45,0.31,0.84
-0.45,0.3,0.84
-0.44,0.31,0.84
-0.44,0.3,0.84
-0.45,0.31,0.84
-0.44,0.31,0.85
-0.44,0.31,0.85
-0.45,0.31,0.84
-0.45,0.31,0.84
-0.45,0.3,0.84
-0.45,0.31,0.84
-0.44,0.31,0.84
-0.45,0.31,0.84
-0.44,0.31,0.84
-0.45,0.31,0.84
-0.44,0.3,0.84
-0.44,0.3,0.84
-0.45,0.31,0.84
-0.45,0.31,0.84
-0.45,0.31,0.84
-0.45,0.31,0.84
-0.45,0.31,0.84
-0.45,0.31,0.84
-0.45,0.31,0.84
-0.45,0.31,0.84
-0.45,0.31,0.84
-0.45,0.31,0.84
-0.45,0.3,0.84
-0.45,0.3,0.84
-0.45,0.3,0.84
-0.45,0.3,0.84
-0.45,0.3,0.84
-0.45,0.3,0.84
-0.45,0.3,0.84
-0.45,0.3,0.84
-0.44,0.3,0.84
-0.45,0.3,0.84
-0.45,0.31,0.84
-0.45,0.3,0.84
-0.45,0.3,0.84
-0.45,0.3,0.85
-0.45,0.3,0.84
-0.45,0.31,0.84
-0.44,0.31,0.84
-0.45,0.3,0.84
-0.45,0.3,0.84
-0.45,0.31,0.84
-0.45,0.31,0.84
-0.45,0.31,0.84
-0.45,0.31,0.84
-0.45,0.31,0.84
-0.44,0.31,0.84
-0.44,0.31,0.84
-0.44,0.3,0.85
-0.45,0.3,0.85
-0.44,0.3,0.84
-0.44,0.3,0.84
-0.44,0.3,0.84
-0.45,0.31,0.84
-0.45,0.3,0.84
-0.45,0.3,0.84
-0.45,0.3,0.84
-0.45,0.3,0.84
-0.45,0.3,0.84
-0.45,0.31,0.84
-0.45,0.31,0.84
-0.45,0.31,0.84
-0.45,0.31,0.84
-0.45,0.31,0.84
-0.45,0.31,0.84
-0.45,0.3,0.84
-0.45,0.3,0.84
-0.45,0.31,0.84
-0.44,0.31,0.84
-0.44,0.31,0.84
-0.45,0.3,0.84
-0.45,0.3,0.84
-0.45,0.3,0.84
-0.45,0.3,0.84
-0.45,0.3,0.84
-0.44,0.3,0.84
-0.44,0.3,0.85
-0.44,0.3,0.85
-0.44,0.3,0.84
-0.44,0.31,0.84
-0.45,0.3,0.84
-0.44,0.3,0.84
-0.44,0.3,0.84
-0.45,0.3,0.84
-0.44,0.3,0.84
-0.44,0.3,0.84
-0.44,0.3,0.84
-0.44,0.3,0.84
-0.44,0.31,0.84
-0.44,0.31,0.84
-0.45,0.3,0.84
-0.44,0.3,0.84
-0.44,0.3,0.84
-0.44,0.31,0.84
-0.44,0.31,0.84
-0.44,0.31,0.84
-0.44,0.31,0.84
-0.45,0.31,0.85
-0.45,0.31,0.84
-0.44,0.3,0.84
-0.44,0.3,0.85
-0.44,0.3,0.85
-0.44,0.3,0.85
-0.44,0.3,0.85
-0.44,0.31,0.85
-0.45,0.31,0.85
-0.42,0.31,0.84
-0.36,0.31,0.8
-0.42,0.33,0.83
-0.47,0.34,0.89
-0.52,0.35,0.97
-0.52,0.35,1.04
-0.52,0.32,1.06
-0.57,0.31,1.03
-0.64,0.32,0.98
-0.67,0.33,0.95
-0.71,0.33,0.96
-0.77,0.32,1
-0.85,0.33,1.06
-0.89,0.34,1.1
-0.9,0.34,1.12
-0.89,0.33,1.16
-0.87,0.32,1.19
-0.85,0.32,1.18
-0.84,0.31,1.15
-0.81,0.31,1.11
-0.8,0.3,1.09
-0.78,0.28,1.09
-0.76,0.27,1.09
-0.72,0.25,1.09
-0.69,0.23,1.1
-0.66,0.21,1.1
-0.62,0.17,1.06
-0.58,0.12,1
-0.56,0.09,0.92
-0.51,0.08,0.78
-0.5,-0.01,0.75
-0.51,-0.03,0.74
-0.49,-0.04,0.74
-0.43,-0.05,0.72
-0.37,-0.09,0.68
-0.31,-0.13,0.63
-0.26,-0.17,0.57
-0.22,-0.2,0.53
-0.19,-0.23,0.5
-0.16,-0.26,0.48
-0.14,-0.28,0.46
-0.14,-0.32,0.45
-0.11,-0.36,0.44
-0.08,-0.4,0.42
-0.08,-0.45,0.41
-0.08,-0.48,0.41
-0.06,-0.51,0.45
-0.09,-0.56,0.43
-0.11,-0.59,0.38
-0.11,-0.59,0.38
-0.12,-0.61,0.39
-0.13,-0.62,0.4
-0.13,-0.64,0.41
-0.14,-0.64,0.41
-0.14,-0.64,0.41
-0.15,-0.64,0.41
-0.18,-0.64,0.43
-0.21,-0.62,0.47
-0.25,-0.6,0.57
-0.22,-0.58,0.59
-0.18,-0.57,0.58
-0.15,-0.56,0.56
-0.13,-0.54,0.53
-0.12,-0.51,0.5
-0.11,-0.48,0.48
-0.1,-0.44,0.46
-0.09,-0.4,0.45
-0.09,-0.36,0.43
-0.1,-0.32,0.41
-0.11,-0.28,0.39
-0.12,-0.23,0.37
-0.13,-0.18,0.35
-0.12,-0.13,0.33
-0.11,-0.07,0.31
-0.14,0,0.28
-0.21,0.08,0.26
-0.28,0.18,0.31
-0.33,0.31,0.46
-0.33,0.44,0.64
-0.26,0.52,0.73
-0.23,0.51,0.68
-0.26,0.49,0.63
-0.22,0.54,0.64
-0.17,0.63,0.67
-1.78,1.48,2.34
-1.59,2.11,3.99
-1.88,1.01,4
-2.33,0.78,2.29
-0.48,0.61,1.51
-0.25,0.64,0.83
0.09,0.49,0.37
0.18,0.39,0.19
0.24,0.38,0.14
0.09,0.36,0.2
-0.13,0.4,0.34
-0.25,0.42,0.45
-0.27,0.34,0.52
-0.23,0.25,0.64
-0.2,0.23,0.78
-0.18,0.26,0.89
-0.23,0.28,0.99
-0.34,0.26,1.12
-0.44,0.27,1.21
-0.51,0.29,1.24
-0.57,0.3,1.22
-0.58,0.31,1.17
-0.52,0.32,1.07
-0.44,0.33,0.97
-0.39,0.33,0.86
-0.37,0.32,0.76
-0.34,0.31,0.69
-0.31,0.31,0.66
-0.31,0.3,0.65
-0.32,0.29,0.68
-0.36,0.29,0.72
-0.41,0.28,0.84
-0.5,0.29,0.9
-0.51,0.3,0.93
-0.51,0.31,0.96
-0.49,0.32,0.97
-0.45,0.32,0.96
-0.42,0.33,0.95
-0.4,0.33,0.92
-0.37,0.33,0.89
-0.35,0.32,0.85
-0.35,0.32,0.81
-0.35,0.31,0.79
-0.36,0.31,0.79
-0.37,0.3,0.8
-0.39,0.29,0.82
-0.41,0.29,0.85
-0.43,0.29,0.87
-0.44,0.29,0.89
-0.44,0.3,0.91
-0.44,0.3,0.91
-0.43,0.3,0.91
-0.42,0.3,0.9
-0.4,0.31,0.88
-0.39,0.31,0.86
-0.39,0.31,0.85
-0.39,0.31,0.83
-0.39,0.31,0.83
-0.39,0.32,0.83
-0.4,0.32,0.84
-0.41,0.31,0.86
-0.42,0.31,0.87
-0.42,0.31,0.88
-0.42,0.3,0.88
-0.41,0.3,0.88
-0.41,0.31,0.87
-0.4,0.31,0.87
-0.4,0.31,0.86
-0.4,0.31,0.85
-0.4,0.31,0.85
-0.4,0.31,0.85
-0.4,0.31,0.85
-0.41,0.31,0.85
-0.41,0.3,0.86
-0.41,0.3,0.87
-0.41,0.3,0.88
-0.41,0.3,0.88
-0.4,0.3,0.88
-0.4,0.3,0.87
-0.4,0.3,0.87
-0.4,0.3,0.86
-0.4,0.3,0.86
-0.39,0.31,0.86
-0.4,0.31,0.85
-0.4,0.31,0.86
-0.4,0.31,0.86
-0.41,0.31,0.87
-0.4,0.31,0.87
-0.4,0.31,0.87
-0.41,0.31,0.87
-0.4,0.3,0.87
-0.4,0.3,0.87
-0.4,0.3,0.87
-0.4,0.3,0.87
-0.4,0.31,0.86
-0.4,0.31,0.86
-0.4,0.3,0.86
-0.41,0.3,0.86
-0.41,0.31,0.86
-0.41,0.3,0.87
-0.41,0.3,0.87
-0.4,0.31,0.87
-0.4,0.31,0.87
-0.41,0.31,0.87
-0.41,0.3,0.86
-0.41,0.31,0.86
-0.4,0.31,0.86
-0.4,0.3,0.86
-0.4,0.31,0.86
-0.4,0.31,0.86
-0.4,0.31,0.86
-0.4,0.31,0.86
-0.4,0.31,0.86
-0.4,0.3,0.87
-0.4,0.3,0.87
-0.4,0.3,0.87
-0.4,0.31,0.87
-0.39,0.31,0.87
-0.4,0.31,0.87
-0.4,0.31,0.87
-0.4,0.31,0.87
-0.4,0.3,0.86
-0.4,0.3,0.86
-0.4,0.3,0.86
-0.4,0.3,0.87
-0.4,0.3,0.87
-0.4,0.3,0.87
-0.4,0.3,0.87
-0.4,0.3,0.86
-0.4,0.31,0.86
-0.4,0.31,0.86
-0.41,0.31,0.86
-0.41,0.31,0.86
-0.41,0.31,0.86
-0.41,0.31,0.86
-0.4,0.3,0.86
-0.39,0.3,0.87
-0.4,0.3,0.87
-0.39,0.3,0.87
-0.39,0.3,0.87
-0.39,0.31,0.87
-0.39,0.31,0.87
-0.4,0.31,0.87
-0.4,0.31,0.87
-0.4,0.3,0.87
-0.4,0.3,0.87
-0.4,0.3,0.87
-0.4,0.3,0.87
-0.4,0.31,0.87
-0.4,0.31,0.87
-0.4,0.31,0.86
-0.4,0.3,0.87
-0.4,0.3,0.87
-0.4,0.3,0.87
-0.4,0.31,0.86
-0.4,0.31,0.86
-0.41,0.31,0.86
-0.41,0.31,0.86
-0.41,0.31,0.86
-0.4,0.31,0.87
-0.4,0.31,0.87
-0.4,0.31,0.87
-0.4,0.31,0.87
-0.39,0.31,0.87
-0.39,0.31,0.87
-0.39,0.3,0.87
-0.39,0.3,0.87
-0.39,0.3,0.87
-0.39,0.3,0.87
-0.39,0.3,0.87
-0.39,0.31,0.87
-0.4,0.31,0.87
-0.4,0.3,0.87
-0.4,0.3,0.87
-0.4,0.3,0.87
-0.4,0.3,0.87
-0.4,0.3,0.87
-0.4,0.3,0.87
-0.4,0.3,0.87
-0.4,0.3,0.87
-0.39,0.3,0.87
-0.4,0.3,0.87
-0.4,0.3,0.87
-0.4,0.31,0.87
-0.4,0.31,0.87
-0.4,0.31,0.87
-0.39,0.31,0.87
-0.39,0.31,0.87
-0.39,0.31,0.87
-0.4,0.31,0.87
-0.39,0.3,0.87
-0.39,0.31,0.87
-0.4,0.3,0.87
-0.39,0.3,0.87
-0.39,0.3,0.87
-0.39,0.3,0.87
-0.4,0.3,0.87
-0.4,0.3,0.87
-0.4,0.3,0.87
-0.4,0.3,0.87
-0.39,0.3,0.87
-0.39,0.3,0.87
-0.39,0.3,0.87
-0.39,0.3,0.87
-0.4,0.31,0.87
-0.4,0.3,0.87
-0.4,0.31,0.87
-0.39,0.31,0.87
-0.4,0.31,0.87
-0.39,0.31,0.87
-0.39,0.31,0.87
-0.39,0.31,0.87
-0.39,0.31,0.87
-0.39,0.31,0.87
-0.39,0.31,0.87
-0.39,0.31,0.87
-0.39,0.31,0.87
-0.39,0.3,0.87
-0.39,0.3,0.87
-0.39,0.3,0.87
-0.4,0.3,0.87
-0.4,0.3,0.87
-0.39,0.3,0.87
-0.4,0.3,0.87
-0.4,0.3,0.87
-0.39,0.31,0.87
-0.39,0.31,0.87
-0.39,0.3,0.87
-0.39,0.31,0.87
-0.4,0.31,0.87
-0.4,0.31,0.87
-0.39,0.31,0.87
-0.39,0.3,0.87
-0.39,0.31,0.87
-0.39,0.31,0.87
-0.39,0.31,0.87
-0.39,0.31,0.87
-0.39,0.31,0.87
-0.39,0.31,0.87
-0.39,0.3,0.87
-0.39,0.31,0.88
-0.39,0.31,0.88
-0.39,0.3,0.87
-0.38,0.3,0.87
-0.37,0.3,0.87
-0.36,0.29,0.87
-0.35,0.29,0.87
-0.33,0.29,0.86
-0.31,0.28,0.84
-0.31,0.3,0.82
-0.36,0.32,0.83
-0.41,0.33,0.86
-0.42,0.32,0.9
-0.4,0.32,0.93
-0.43,0.33,0.95
-0.48,0.33,0.96
-0.5,0.34,0.95
-0.48,0.34,0.96
-0.44,0.34,0.97
-0.42,0.33,0.96
-0.45,0.32,0.98
-0.61,0.31,1
-0.66,0.31,1.06
-0.65,0.32,1.12
-0.61,0.33,1.17
-0.59,0.34,1.21
-0.59,0.33,1.21
-0.61,0.33,1.2
-0.62,0.34,1.18
-0.61,0.34,1.15
-0.62,0.33,1.09
-0.64,0.33,1.05
-0.65,0.31,1.05
-0.65,0.29,1.08
-0.65,0.27,1.11
-0.62,0.24,1.12
-0.58,0.22,1.12
-0.56,0.2,1.1
-0.54,0.19,1.07
-0.49,0.17,1.01
-0.44,0.14,0.95
-0.41,0.11,0.89
-0.39,0.07,0.84
-0.35,0.03,0.79
-0.34,0.01,0.75
-0.33,-0.01,0.74
-0.29,-0.07,0.74
-0.29,-0.12,0.74
-0.26,-0.15,0.72
-0.24,-0.17,0.65
-0.19,-0.21,0.59
-0.2,-0.23,0.56
-0.23,-0.25,0.55
-0.25,-0.3,0.55
-0.25,-0.33,0.55
-0.24,-0.36,0.55
-0.22,-0.37,0.56
-0.21,-0.39,0.55
-0.2,-0.42,0.54
-0.19,-0.44,0.52
-0.18,-0.45,0.51
-0.2,-0.45,0.5
-0.22,-0.45,0.49
-0.23,-0.45,0.49
-0.26,-0.45,0.5
-0.27,-0.44,0.51
-0.27,-0.43,0.52
-0.26,-0.42,0.52
-0.27,-0.41,0.54
-0.29,-0.4,0.55
-0.3,-0.38,0.55
-0.29,-0.37,0.54
-0.28,-0.34,0.51
-0.28,-0.32,0.49
-0.26,-0.29,0.46
-0.25,-0.25,0.43
-0.24,-0.22,0.41
-0.25,-0.18,0.41
-0.24,-0.12,0.41
-0.21,-0.09,0.42
-0.17,-0.07,0.44
-0.14,-0.03,0.47
-0.12,0.01,0.5
-0.14,0.05,0.5
-0.2,0.1,0.52
-0.28,0.17,0.61
-0.32,0.25,0.8
-0.3,0.32,1.01
-0.32,0.35,1.23
-0.43,0.3,1.4
-0.56,0.19,1.39
-1.16,0.36,1.96
-1.24,0.96,2.88
-1.87,1.15,3.17
-2.21,0.85,2.95
-1.01,0.67,2.14
-0.55,0.74,1.23
-0.34,0.73,0.68
-0.15,0.48,0.36
-0.15,0.32,0.21
-0.12,0.32,0.19
-0.09,0.38,0.24
-0.11,0.43,0.43
-0.19,0.45,0.65
-0.25,0.42,0.78
-0.23,0.38,0.81
-0.22,0.37,0.99
-0.44,0.32,1.11
-0.49,0.29,1.15
-0.55,0.28,1.12
-0.59,0.27,1.05
-0.57,0.27,0.97
-0.5,0.28,0.9
-0.43,0.3,0.84
-0.4,0.3,0.79
-0.4,0.3,0.76
-0.41,0.3,0.74
-0.42,0.3,0.72
-0.42,0.29,0.71
-0.44,0.29,0.72
-0.47,0.29,0.76
-0.49,0.29,0.8
-0.52,0.3,0.85
-0.53,0.31,0.89
-0.53,0.32,0.92
-0.51,0.32,0.93
-0.48,0.33,0.93
-0.43,0.33,0.91
-0.41,0.34,0.87
-0.41,0.33,0.84
-0.41,0.33,0.8
-0.42,0.33,0.79
-0.42,0.32,0.79
-0.43,0.31,0.8
-0.45,0.3,0.81
-0.46,0.29,0.84
-0.48,0.29,0.85
-0.48,0.29,0.86
-0.47,0.29,0.85
-0.46,0.29,0.85
-0.45,0.3,0.85
-0.43,0.31,0.84
-0.42,0.31,0.84
-0.42,0.31,0.84
-0.43,0.32,0.83
-0.43,0.32,0.84
-0.44,0.32,0.84
-0.45,0.32,0.84
-0.45,0.31,0.85
-0.45,0.31,0.85
-0.44,0.31,0.85
-0.44,0.31,0.85
-0.44,0.31,0.85
-0.44,0.31,0.84
-0.44,0.31,0.84
-0.44,0.31,0.84
-0.44,0.31,0.84
-0.44,0.31,0.83
-0.44,0.31,0.83
-0.44,0.31,0.83
-0.45,0.31,0.83
-0.45,0.3,0.84
-0.45,0.31,0.84
-0.45,0.31,0.85
-0.45,0.31,0.85
-0.45,0.31,0.85
-0.45,0.31,0.85
-0.45,0.31,0.84
-0.44,0.3,0.84
-0.44,0.3,0.84
-0.45,0.3,0.84
-0.45,0.3,0.84
-0.45,0.3,0.84
-0.45,0.3,0.84
-0.45,0.3,0.84
-0.45,0.3,0.84
-0.45,0.3,0.84
-0.45,0.3,0.84
-0.45,0.31,0.84
-0.45,0.31,0.84
-0.45,0.31,0.83
-0.45,0.31,0.84
-0.45,0.31,0.84
-0.45,0.31,0.84
-0.45,0.31,0.85
-0.45,0.31,0.85
-0.45,0.31,0.84
-0.44,0.31,0.84
-0.44,0.31,0.84
-0.44,0.31,0.84
-0.44,0.31,0.84
-0.44,0.31,0.84
-0.44,0.3,0.84
-0.45,0.3,0.84
-0.45,0.31,0.84
-0.45,0.31,0.84
-0.45,0.31,0.84
-0.45,0.3,0.84
-0.45,0.31,0.84
-0.45,0.31,0.84
-0.45,0.31,0.84
-0.45,0.31,0.84
-0.45,0.31,0.84
-0.45,0.31,0.84
-0.45,0.3,0.84
-0.45,0.3,0.84
-0.45,0.3,0.85
-0.44,0.31,0.84
-0.45,0.31,0.84
-0.45,0.31,0.84
-0.46,0.31,0.84
-0.46,0.31,0.84
-0.46,0.31,0.84
-0.45,0.3,0.84
-0.45,0.3,0.84
-0.45,0.31,0.84
-0.45,0.31,0.84
-0.45,0.31,0.84
-0.45,0.31,0.84
-0.45,0.3,0.84
-0.45,0.3,0.84
-0.45,0.3,0.84
-0.45,0.31,0.84
-0.45,0.31,0.84
-0.45,0.31,0.84
-0.45,0.31,0.84
-0.45,0.31,0.84
-0.45,0.31,0.84
-0.45,0.3,0.84
-0.45,0.31,0.84
-0.44,0.31,0.84
-0.45,0.31,0.84
-0.45,0.31,0.84
-0.45,0.31,0.84
-0.45,0.31,0.84
-0.45,0.31,0.84
-0.45,0.31,0.84
-0.45,0.3,0.84
-0.45,0.3,0.84
-0.45,0.31,0.84
-0.45,0.3,0.84
-0.45,0.3,0.84
-0.45,0.3,0.84
-0.45,0.3,0.84
-0.45,0.3,0.84
-0.45,0.3,0.84
-0.45,0.31,0.84
-0.45,0.3,0.84
-0.45,0.3,0.84
-0.45,0.31,0.84
-0.45,0.31,0.84
-0.45,0.31,0.84
-0.45,0.31,0.84
-0.45,0.31,0.84
-0.45,0.31,0.84
-0.45,0.31,0.85
-0.45,0.31,0.84
-0.45,0.31,0.84
-0.45,0.3,0.84
-0.45,0.3,0.84
-0.45,0.3,0.84
-0.45,0.3,0.84
-0.45,0.3,0.84
-0.45,0.31,0.84
-0.45,0.31,0.84
-0.45,0.31,0.84
-0.45,0.31,0.84
-0.45,0.31,0.84
-0.45,0.31,0.84
-0.45,0.3,0.84
-0.45,0.3,0.84
-0.45,0.3,0.84
-0.45,0.31,0.84
-0.45,0.31,0.84
-0.46,0.31,0.84
-0.46,0.31,0.84
-0.46,0.31,0.84
-0.45,0.31,0.84
-0.45,0.31,0.84
-0.45,0.31,0.85
-0.45,0.31,0.84
-0.45,0.31,0.84
-0.45,0.3,0.84
-0.45,0.3,0.84
-0.45,0.31,0.84
-0.45,0.31,0.84
-0.45,0.31,0.84
-0.45,0.31,0.84
-0.45,0.31,0.84
-0.45,0.31,0.84
-0.45,0.3,0.84
-0.45,0.3,0.84
-0.45,0.31,0.84
-0.45,0.31,0.84
-0.45,0.31,0.84
-0.45,0.31,0.84
-0.45,0.31,0.84
-0.45,0.31,0.84
-0.44,0.31,0.84
-0.45,0.31,0.84
-0.45,0.3,0.84
-0.45,0.3,0.84
-0.45,0.31,0.84
-0.45,0.31,0.84
-0.45,0.31,0.84
-0.45,0.31,0.84
-0.45,0.31,0.84
-0.45,0.31,0.84
-0.45,0.31,0.84
-0.45,0.3,0.84
-0.45,0.31,0.84
-0.45,0.31,0.84
-0.45,0.31,0.85
-0.45,0.31,0.85
-0.46,0.31,0.85
-0.46,0.31,0.85
-0.46,0.31,0.85
-0.45,0.31,0.85
-0.45,0.32,0.85
-0.45,0.31,0.84
-0.45,0.31,0.83
-0.45,0.31,0.83
-0.45,0.3,0.83
-0.45,0.3,0.83
-0.45,0.3,0.83
-0.45,0.3,0.83
-0.45,0.29,0.84
-0.46,0.29,0.83
-0.46,0.3,0.83
-0.46,0.3,0.83
-0.46,0.3,0.83
-0.46,0.3,0.83
-0.46,0.31,0.83
-0.46,0.3,0.83
-0.45,0.3,0.84
-0.45,0.3,0.84
-0.45,0.3,0.84
-0.45,0.31,0.84
-0.45,0.31,0.84
-0.46,0.31,0.84
-0.46,0.31,0.84
-0.46,0.3,0.84
-0.46,0.3,0.84
-0.45,0.3,0.84
-0.45,0.3,0.84
-0.45,0.3,0.84
-0.45,0.3,0.84
-0.45,0.3,0.84
-0.45,0.3,0.84
-0.45,0.3,0.84
-0.45,0.3,0.84
-0.45,0.3,0.84
-0.45,0.31,0.84
-0.45,0.31,0.84
-0.45,0.31,0.84
-0.45,0.31,0.84
-0.45,0.31,0.84
-0.45,0.31,0.84
-0.45,0.3,0.84
-0.45,0.3,0.84
-0.45,0.31,0.84
-0.45,0.3,0.84
-0.45,0.31,0.84
-0.45,0.3,0.84
-0.45,0.3,0.84
-0.45,0.31,0.84
-0.45,0.3,0.84
-0.45,0.3,0.84
-0.45,0.3,0.84
-0.45,0.3,0.84
-0.45,0.3,0.84
-0.45,0.3,0.84
-0.45,0.3,0.84
-0.45,0.31,0.84
-0.45,0.3,0.84
-0.45,0.3,0.84
-0.45,0.3,0.84
-0.45,0.3,0.84
-0.45,0.3,0.85
-0.44,0.3,0.85
-0.45,0.31,0.86
-0.47,0.31,0.86
-0.47,0.32,0.87
-0.48,0.33,0.87
-0.47,0.33,0.89
-0.45,0.33,0.91
-0.45,0.33,0.95
-0.47,0.34,0.98
-0.51,0.33,0.99
-0.56,0.33,1
-0.58,0.35,1.04
-0.6,0.36,1.11
-0.61,0.35,1.15
-0.7,0.36,1.13
-0.73,0.37,1.08
-0.73,0.38,1.06
-0.72,0.37,1.07
-0.75,0.34,1.07
-0.76,0.32,1.07
-0.78,0.31,1.09
-0.8,0.28,1.1
-0.79,0.26,1.1
-0.76,0.24,1.09
-0.73,0.23,1.07
-0.69,0.22,1.06
-0.65,0.2,1.05
-0.65,0.17,1.03
-0.65,0.15,0.99
-0.65,0.13,0.96
-0.65,0.09,0.92
-0.61,0.07,0.89
-0.56,0.03,0.86
-0.53,0,0.83
-0.5,-0.03,0.81
-0.46,-0.05,0.78
-0.43,-0.08,0.76
-0.42,-0.09,0.75
-0.38,-0.1,0.67
-0.35,-0.17,0.61
-0.32,-0.24,0.61
-0.25,-0.26,0.6
-0.19,-0.31,0.57
-0.15,-0.33,0.56
-0.12,-0.36,0.55
-0.1,-0.39,0.54
-0.11,-0.41,0.55
-0.12,-0.43,0.56
-0.11,-0.45,0.55
-0.08,-0.48,0.53
-0.08,-0.51,0.53
-0.08,-0.53,0.53
-0.08,-0.56,0.52
-0.07,-0.58,0.51
-0.07,-0.6,0.51
-0.09,-0.61,0.51
-0.1,-0.61,0.52
-0.1,-0.62,0.53
-0.11,-0.63,0.53
-0.11,-0.63,0.53
-0.11,-0.64,0.51
-0.11,-0.65,0.5
-0.11,-0.65,0.5
-0.12,-0.65,0.5
-0.13,-0.64,0.5
-0.15,-0.63,0.52
-0.15,-0.62,0.52
-0.14,-0.61,0.53
-0.14,-0.61,0.53
-0.15,-0.6,0.54
-0.16,-0.58,0.53
-0.14,-0.55,0.51
-0.13,-0.53,0.5
-0.13,-0.51,0.48
-0.14,-0.5,0.47
-0.15,-0.47,0.45
-0.15,-0.43,0.44
-0.14,-0.4,0.44
-0.14,-0.37,0.43
-0.16,-0.33,0.42
-0.18,-0.29,0.42
-0.2,-0.25,0.42
-0.22,-0.2,0.41
-0.22,-0.15,0.39
-0.22,-0.08,0.36
-0.22,-0.02,0.31
-0.24,0.05,0.29
-0.25,0.14,0.29
-0.29,0.22,0.33
-0.36,0.3,0.44
-0.41,0.37,0.6
-0.46,0.42,0.82
-0.51,0.44,1.11
-0.58,0.48,1.37
-0.74,0.49,1.51
-1.19,0.49,1.34
-1.52,0.63,1.63
-2.22,1.08,2.93
-2.51,1.29,3.34
-1.75,0.93,1.82
-0.6,0.61,1.03
-0.44,0.56,0.67
-0.52,0.4,0.51
-0.41,0.39,0.4
-0.2,0.45,0.32
-0.03,0.5,0.3
0.01,0.5,0.32
-0.04,0.48,0.39
-0.11,0.46,0.51
-0.19,0.43,0.68
-0.24,0.38,0.87
-0.31,0.33,1.08
-0.4,0.27,1.26
-0.49,0.23,1.34
-0.51,0.25,1.3
-0.47,0.3,1.16
-0.4,0.33,0.99
-0.34,0.35,0.87
-0.34,0.34,0.81
-0.37,0.34,0.78
-0.4,0.35,0.76
-0.41,0.36,0.74
-0.42,0.35,0.72
-0.43,0.34,0.72
-0.45,0.33,0.74
-0.49,0.32,0.78
-0.53,0.31,0.83
-0.55,0.3,0.87
-0.56,0.29,0.88
-0.51,0.3,0.86
-0.47,0.31,0.84
-0.44,0.32,0.81
-0.43,0.33,0.8
-0.42,0.33,0.8
-0.42,0.33,0.8
-0.42,0.33,0.8
-0.43,0.33,0.81
-0.45,0.32,0.83
-0.46,0.32,0.85
-0.47,0.32,0.86
-0.47,0.32,0.87
-0.47,0.32,0.86
-0.46,0.32,0.85
-0.46,0.32,0.84
-0.45,0.31,0.82
-0.45,0.31,0.81
-0.45,0.32,0.81
-0.46,0.31,0.81
-0.46,0.32,0.82
-0.46,0.32,0.82
-0.46,0.32,0.83
-0.46,0.32,0.84
-0.46,0.32,0.84
-0.45,0.32,0.84
-0.45,0.32,0.84
-0.44,0.32,0.84
-0.44,0.32,0.84
-0.44,0.32,0.84
-0.44,0.32,0.84
-0.44,0.32,0.84
-0.44,0.32,0.83
-0.45,0.32,0.83
-0.46,0.32,0.83
-0.46,0.32,0.83
-0.46,0.32,0.83
-0.46,0.32,0.83
-0.46,0.32,0.83
-0.46,0.31,0.83
-0.45,0.32,0.83
-0.46,0.32,0.83
-0.46,0.32,0.83
-0.46,0.32,0.83
-0.46,0.32,0.83
-0.45,0.31,0.83
-0.45,0.31,0.83
-0.45,0.32,0.83
-0.46,0.32,0.83
-0.46,0.32,0.83
-0.46,0.31,0.83
-0.46,0.31,0.83
-0.47,0.31,0.83
-0.47,0.32,0.83
-0.46,0.32,0.83
-0.45,0.31,0.83
-0.45,0.32,0.83
-0.45,0.32,0.83
-0.45,0.32,0.84
-0.45,0.32,0.84
-0.45,0.32,0.84
-0.45,0.32,0.84
-0.45,0.31,0.84
-0.45,0.32,0.84
-0.45,0.32,0.84
-0.45,0.32,0.84
-0.45,0.32,0.83
-0.45,0.32,0.83
-0.45,0.32,0.83
-0.45,0.32,0.83
-0.46,0.31,0.83
-0.46,0.31,0.83
-0.46,0.32,0.83
-0.46,0.32,0.83
-0.46,0.32,0.83
-0.46,0.32,0.83
-0.45,0.32,0.84
-0.46,0.32,0.84
-0.46,0.32,0.83
-0.45,0.31,0.83
-0.45,0.32,0.83
-0.45,0.32,0.83
-0.45,0.31,0.83
-0.45,0.31,0.83
-0.46,0.31,0.83
-0.46,0.31,0.83
-0.46,0.32,0.83
-0.46,0.32,0.83
-0.46,0.31,0.83
-0.46,0.31,0.83
-0.46,0.32,0.83
-0.46,0.32,0.83
-0.46,0.32,0.83
-0.45,0.32,0.84
-0.45,0.31,0.83
-0.46,0.32,0.83
-0.46,0.32,0.83
-0.45,0.32,0.83
-0.45,0.32,0.84
-0.45,0.31,0.84
-0.45,0.31,0.84
-0.45,0.31,0.84
-0.45,0.31,0.84
-0.45,0.31,0.83
-0.46,0.31,0.83
-0.46,0.32,0.83
-0.46,0.32,0.83
-0.46,0.32,0.83
-0.46,0.32,0.83
-0.46,0.31,0.83
-0.46,0.31,0.83
-0.46,0.31,0.83
-0.46,0.31,0.84
-0.46,0.31,0.84
-0.46,0.31,0.83
-0.46,0.31,0.83
-0.45,0.31,0.83
-0.45,0.31,0.83
-0.45,0.32,0.83
-0.46,0.32,0.83
-0.46,0.32,0.83
-0.45,0.32,0.84
-0.45,0.32,0.83
-0.46,0.32,0.83
-0.46,0.32,0.83
-0.46,0.31,0.83
-0.45,0.31,0.84
-0.45,0.31,0.83
-0.45,0.31,0.83
-0.45,0.31,0.83
-0.46,0.32,0.83
-0.46,0.32,0.83
-0.45,0.31,0.83
-0.46,0.31,0.84
-0.46,0.31,0.84
-0.45,0.31,0.84
-0.46,0.31,0.84
-0.45,0.31,0.84
-0.45,0.31,0.83
-0.45,0.31,0.83
-0.46,0.32,0.83
-0.46,0.32,0.83
-0.46,0.31,0.83
-0.46,0.31,0.83
-0.45,0.31,0.83
-0.45,0.32,0.83
-0.46,0.32,0.83
-0.46,0.32,0.83
-0.46,0.32,0.83
-0.46,0.32,0.83
-0.46,0.32,0.83
-0.45,0.32,0.83
-0.45,0.32,0.83
-0.45,0.31,0.83
-0.46,0.31,0.83
-0.46,0.31,0.83
-0.46,0.31,0.83
-0.46,0.31,0.83
-0.46,0.31,0.83
-0.46,0.31,0.84
-0.45,0.31,0.84
-0.46,0.31,0.84
-0.45,0.31,0.84
-0.45,0.32,0.84
-0.45,0.32,0.83
-0.45,0.32,0.83
-0.46,0.31,0.83
-0.46,0.31,0.83
-0.46,0.31,0.83
-0.45,0.31,0.84
-0.45,0.31,0.84
-0.45,0.32,0.83
-0.45,0.32,0.83
-0.45,0.32,0.83
-0.45,0.32,0.83
-0.45,0.31,0.83
-0.45,0.31,0.84
-0.45,0.31,0.84
-0.45,0.31,0.84
-0.45,0.32,0.83
-0.46,0.32,0.83
-0.46,0.32,0.83
-0.46,0.31,0.83
-0.46,0.31,0.83
-0.45,0.31,0.83
-0.45,0.31,0.83
-0.45,0.31,0.84
-0.45,0.31,0.84
-0.45,0.31,0.84
-0.45,0.32,0.83
-0.45,0.32,0.83
-0.46,0.32,0.83
-0.46,0.32,0.83
-0.45,0.32,0.84
-0.45,0.32,0.83
-0.45,0.32,0.84
-0.45,0.32,0.84
-0.45,0.32,0.83
-0.46,0.32,0.84
-0.46,0.32,0.84
-0.46,0.32,0.84
-0.45,0.32,0.84
-0.45,0.32,0.83
-0.45,0.32,0.83
-0.45,0.32,0.84
-0.46,0.31,0.84
-0.46,0.31,0.84
-0.45,0.31,0.83
-0.45,0.31,0.83
-0.45,0.31,0.84
-0.45,0.31,0.84
-0.45,0.31,0.84
-0.46,0.31,0.83
-0.45,0.31,0.83
-0.46,0.31,0.83
-0.46,0.32,0.83
-0.46,0.32,0.83
-0.45,0.31,0.83
-0.45,0.32,0.83
-0.45,0.32,0.83
-0.45,0.32,0.83
-0.45,0.32,0.83
-0.45,0.32,0.83
-0.45,0.32,0.84
-0.45,0.32,0.84
-0.45,0.32,0.84
-0.45,0.32,0.84
-0.45,0.32,0.84
-0.45,0.31,0.83
-0.45,0.31,0.84
-0.45,0.31,0.83
-0.45,0.31,0.83
-0.45,0.31,0.84
-0.45,0.31,0.83
-0.45,0.31,0.83
-0.46,0.32,0.83
-0.45,0.31,0.83
-0.45,0.31,0.83
-0.45,0.31,0.83
-0.45,0.31,0.83
-0.45,0.31,0.84
-0.45,0.32,0.84
-0.45,0.32,0.83
-0.45,0.32,0.84
-0.45,0.32,0.84
-0.46,0.31,0.84
-0.45,0.31,0.84
-0.45,0.31,0.84
-0.45,0.32,0.83
-0.46,0.32,0.83
-0.45,0.32,0.83
-0.45,0.31,0.83
-0.45,0.32,0.84
-0.45,0.31,0.84
-0.45,0.31,0.84
-0.45,0.32,0.85
-0.46,0.32,0.84
-0.46,0.32,0.83
-0.47,0.34,0.83
-0.49,0.34,0.85
-0.53,0.34,0.89
-0.53,0.35,0.92
-0.55,0.35,0.95
-0.55,0.35,0.97
-0.55,0.34,0.98
-0.61,0.33,0.98
-0.69,0.35,1
-0.76,0.36,1.05
-0.82,0.36,1.12
-0.85,0.36,1.15
-0.85,0.37,1.15
-0.82,0.38,1.15
-0.8,0.38,1.16
-0.78,0.37,1.18
-0.75,0.36,1.2
-0.73,0.36,1.2
-0.68,0.36,1.2
-0.64,0.34,1.2
-0.63,0.32,1.18
-0.64,0.3,1.17
-0.64,0.28,1.14
-0.62,0.25,1.09
-0.58,0.21,1.01
-0.56,0.19,0.95
-0.57,0.15,0.92
-0.57,0.09,0.9
-0.56,0.01,0.85
-0.48,-0.02,0.8
-0.47,-0.06,0.77
-0.46,-0.08,0.76
-0.39,-0.1,0.72
-0.32,-0.14,0.68
-0.26,-0.18,0.65
-0.22,-0.21,0.59
-0.21,-0.25,0.52
-0.17,-0.32,0.47
-0.12,-0.36,0.45
-0.08,-0.37,0.42
-0.05,-0.39,0.39
-0.02,-0.42,0.36
0.01,-0.44,0.34
0.02,-0.47,0.32
0.03,-0.5,0.32
0,-0.55,0.44
0,-0.6,0.42
0.03,-0.6,0.26
0.05,-0.6,0.25
0.05,-0.61,0.22
0.04,-0.62,0.21
0.02,-0.61,0.21
-0.02,-0.6,0.22
-0.04,-0.59,0.24
-0.04,-0.57,0.28
-0.04,-0.55,0.32
-0.06,-0.53,0.35
-0.06,-0.47,0.4
-0.06,-0.44,0.42
-0.08,-0.41,0.44
-0.1,-0.37,0.45
-0.1,-0.33,0.47
-0.11,-0.3,0.48
-0.17,-0.29,0.46
-0.23,-0.28,0.41
-0.27,-0.22,0.35
-0.29,-0.13,0.33
-0.24,-0.03,0.39
-0.14,0.04,0.47
-0.1,0.1,0.55
-0.12,0.18,0.63
-0.11,0.29,0.67
-0.07,0.39,0.69
-0.04,0.49,0.75
-0.07,0.57,0.86
-0.17,0.61,1.01
-0.24,0.65,1.08
-0.5,0.85,1.42
-1.46,1.56,2.88
-3.07,1.62,3.99
-2.93,1.08,3.62
-1.32,0.69,2.46
-0.81,0.64,1.31
-0.63,0.65,0.68
-0.33,0.29,0.3
-0.13,0.31,0.07
0.31,0.4,0.05
0.22,0.32,0.13
0.05,0.35,0.35
-0.06,0.41,0.6
-0.11,0.36,0.76
-0.18,0.27,0.88
-0.25,0.24,1.02
-0.33,0.24,1.17
-0.46,0.24,1.3
-0.58,0.25,1.37
-0.64,0.26,1.34
-0.58,0.27,1.22
-0.49,0.28,1.07
-0.42,0.29,0.93
-0.39,0.3,0.84
-0.39,0.3,0.78
-0.39,0.31,0.73
-0.37,0.31,0.69
-0.35,0.31,0.67
-0.34,0.31,0.67
-0.37,0.3,0.71
-0.44,0.3,0.77
-0.51,0.3,0.83
-0.56,0.29,0.9
-0.57,0.29,0.94
-0.55,0.3,0.96
-0.52,0.31,0.95
-0.48,0.32,0.93
-0.44,0.33,0.86
-0.39,0.33,0.83
-0.38,0.32,0.8
-0.38,0.32,0.79
-0.38,0.31,0.8
-0.39,0.3,0.81
-0.41,0.28,0.83
-0.43,0.28,0.85
-0.45,0.27,0.87
-0.46,0.27,0.89
-0.46,0.27,0.89
-0.46,0.28,0.89
-0.44,0.28,0.88
-0.43,0.28,0.87
-0.42,0.29,0.86
-0.42,0.3,0.85
-0.41,0.31,0.84
-0.41,0.31,0.83
-0.41,0.31,0.83
-0.42,0.31,0.84
-0.43,0.31,0.85
-0.44,0.31,0.85
-0.44,0.31,0.86
-0.44,0.3,0.86
-0.45,0.3,0.87
-0.44,0.3,0.87
-0.44,0.3,0.86
-0.43,0.3,0.85
-0.43,0.3,0.84
-0.43,0.3,0.84
-0.43,0.29,0.85
-0.43,0.29,0.85
-0.43,0.29,0.85
-0.44,0.29,0.86
-0.45,0.29,0.86
-0.44,0.3,0.86
-0.44,0.3,0.86
-0.44,0.3,0.85
-0.44,0.3,0.85
-0.43,0.3,0.85
-0.43,0.3,0.84
-0.43,0.3,0.84
-0.43,0.3,0.84
-0.43,0.3,0.84
-0.44,0.3,0.84
-0.44,0.3,0.85
-0.44,0.3,0.85
-0.44,0.3,0.85
-0.44,0.3,0.85
-0.43,0.3,0.85
-0.43,0.3,0.85
-0.43,0.3,0.85
-0.43,0.3,0.85
-0.43,0.3,0.85
-0.43,0.3,0.85
-0.43,0.3,0.85
-0.43,0.3,0.85
-0.43,0.3,0.85
-0.43,0.3,0.85
-0.44,0.3,0.85
-0.44,0.3,0.85
-0.44,0.3,0.85
-0.44,0.29,0.85
-0.44,0.29,0.85
-0.44,0.3,0.85
-0.44,0.29,0.85
-0.44,0.3,0.85
-0.44,0.3,0.85
-0.44,0.3,0.85
-0.44,0.3,0.85
-0.44,0.3,0.85
-0.44,0.3,0.85
-0.44,0.3,0.85
-0.44,0.3,0.85
-0.43,0.3,0.85
-0.43,0.3,0.85
-0.44,0.3,0.85
-0.43,0.3,0.85
-0.43,0.3,0.85
-0.44,0.3,0.85
-0.43,0.3,0.85
-0.43,0.3,0.85
-0.44,0.3,0.85
-0.44,0.3,0.85
-0.43,0.3,0.85
-0.43,0.3,0.85
-0.44,0.3,0.85
-0.43,0.3,0.85
-0.43,0.3,0.85
-0.43,0.29,0.85
-0.44,0.3,0.85
-0.44,0.3,0.85
-0.44,0.3,0.85
-0.44,0.3,0.85
-0.44,0.3,0.85
-0.44,0.3,0.85
-0.44,0.3,0.85
-0.44,0.3,0.85
-0.44,0.3,0.85
-0.44,0.3,0.85
-0.44,0.3,0.85
-0.44,0.3,0.85
-0.44,0.3,0.85
-0.44,0.3,0.86
-0.44,0.3,0.86
-0.43,0.3,0.86
-0.43,0.3,0.85
-0.44,0.3,0.85
-0.44,0.3,0.85
-0.44,0.3,0.85
-0.44,0.3,0.85
-0.44,0.3,0.85
-0.44,0.29,0.85
-0.44,0.29,0.85
-0.44,0.3,0.85
-0.43,0.3,0.85
-0.43,0.3,0.85
-0.43,0.3,0.85
-0.44,0.3,0.85
-0.44,0.3,0.85
-0.44,0.3,0.85
-0.43,0.3,0.85
-0.43,0.3,0.85
-0.44,0.3,0.85
-0.44,0.3,0.85
-0.43,0.3,0.85
-0.43,0.3,0.85
-0.43,0.3,0.85
-0.44,0.3,0.85
-0.43,0.3,0.86
-0.43,0.3,0.86
-0.44,0.3,0.85
-0.44,0.3,0.85
-0.44,0.3,0.85
-0.44,0.3,0.85
-0.44,0.29,0.85
-0.44,0.29,0.85
-0.44,0.29,0.85
-0.44,0.29,0.85
-0.44,0.29,0.85
-0.44,0.29,0.85
-0.44,0.29,0.85
-0.44,0.3,0.85
-0.44,0.3,0.85
-0.44,0.3,0.85
-0.44,0.3,0.85
-0.44,0.3,0.85
-0.44,0.3,0.85
-0.43,0.3,0.85
-0.43,0.3,0.85
-0.44,0.3,0.85
-0.44,0.3,0.85
-0.44,0.3,0.85
-0.43,0.3,0.85
-0.43,0.3,0.85
-0.43,0.3,0.85
-0.44,0.3,0.85
-0.43,0.3,0.85
-0.44,0.3,0.85
-0.44,0.3,0.85
-0.44,0.3,0.85
-0.44,0.29,0.85
-0.44,0.3,0.85
-0.44,0.3,0.85
-0.44,0.3,0.85
-0.44,0.3,0.85
-0.44,0.3,0.85
-0.44,0.3,0.85
-0.44,0.3,0.85
-0.44,0.3,0.85
-0.44,0.3,0.85
-0.44,0.3,0.85
-0.44,0.3,0.85
-0.44,0.3,0.85
-0.44,0.3,0.85
-0.44,0.3,0.85
-0.44,0.3,0.85
-0.43,0.3,0.85
-0.43,0.3,0.85
-0.44,0.3,0.85
-0.44,0.3,0.85
-0.44,0.3,0.85
-0.44,0.3,0.85
-0.44,0.3,0.85
-0.44,0.29,0.85
-0.44,0.29,0.85
-0.44,0.29,0.85
-0.43,0.3,0.85
-0.43,0.3,0.85
-0.44,0.3,0.85
-0.44,0.3,0.85
-0.44,0.3,0.85
-0.44,0.3,0.85
-0.44,0.3,0.85
-0.44,0.3,0.85
-0.44,0.3,0.85
-0.44,0.3,0.85
-0.44,0.3,0.85
-0.44,0.3,0.85
-0.43,0.3,0.85
-0.43,0.3,0.85
-0.44,0.3,0.85
-0.44,0.3,0.85
-0.44,0.3,0.85
-0.44,0.3,0.85
-0.44,0.3,0.85
-0.44,0.3,0.85
-0.44,0.29,0.85
-0.44,0.29,0.85
-0.43,0.29,0.85
-0.44,0.3,0.85
-0.44,0.3,0.85
-0.44,0.3,0.85
-0.44,0.3,0.85
-0.44,0.3,0.85
-0.44,0.3,0.85
-0.44,0.3,0.85
-0.44,0.3,0.85
-0.44,0.29,0.85
-0.44,0.3,0.85
-0.44,0.3,0.85
-0.44,0.3,0.85
-0.44,0.3,0.85
-0.44,0.3,0.85
-0.44,0.3,0.85
-0.44,0.3,0.85
-0.44,0.3,0.85
-0.44,0.3,0.85
-0.44,0.3,0.85
-0.44,0.29,0.85
-0.44,0.29,0.85
-0.44,0.3,0.85
-0.44,0.3,0.85
-0.44,0.3,0.85
-0.44,0.29,0.85
-0.44,0.29,0.85
-0.44,0.29,0.85
-0.44,0.3,0.85
-0.44,0.3,0.85
-0.44,0.3,0.85
-0.44,0.3,0.85
-0.44,0.3,0.85
-0.44,0.3,0.85
-0.44,0.3,0.85
-0.44,0.3,0.85
-0.44,0.3,0.85
-0.43,0.3,0.85
-0.43,0.3,0.85
-0.44,0.3,0.85
-0.44,0.3,0.85
-0.44,0.3,0.85
-0.44,0.3,0.84
-0.44,0.3,0.85
-0.44,0.29,0.84
-0.44,0.29,0.85
-0.44,0.29,0.85
-0.43,0.29,0.85
-0.44,0.3,0.85
-0.44,0.3,0.85
-0.44,0.3,0.85
-0.44,0.3,0.85
-0.44,0.3,0.85
-0.44,0.3,0.85
-0.44,0.3,0.85
-0.44,0.3,0.85
-0.44,0.3,0.85
-0.44,0.3,0.85
-0.44,0.3,0.85
-0.44,0.29,0.85
-0.44,0.29,0.85
-0.44,0.29,0.85
-0.44,0.3,0.85
-0.44,0.3,0.85
-0.44,0.3,0.85
-0.44,0.3,0.85
-0.44,0.3,0.85
-0.44,0.3,0.85
-0.44,0.29,0.85
-0.44,0.29,0.85
-0.44,0.3,0.85
-0.44,0.29,0.85
-0.44,0.3,0.86
-0.45,0.3,0.86
-0.45,0.3,0.86
-0.45,0.3,0.86
-0.45,0.31,0.87
-0.45,0.31,0.89
-0.49,0.34,0.9
-0.51,0.33,0.91
-0.52,0.33,0.94
-0.5,0.33,0.97
-0.52,0.32,0.96
-0.55,0.33,0.93
-0.57,0.35,0.93
-0.61,0.36,0.98
-0.67,0.35,1.04
-0.72,0.35,1.1
-0.74,0.35,1.14
-0.75,0.34,1.16
-0.74,0.33,1.15
-0.74,0.33,1.14
-0.71,0.32,1.13
-0.7,0.31,1.12
-0.72,0.32,1.13
-0.73,0.35,1.1
-0.73,0.32,1.04
-0.72,0.25,1.08
-0.7,0.23,1.16
-0.66,0.25,1.19
-0.59,0.24,1.2
-0.57,0.22,1.2
-0.56,0.2,1.19
-0.55,0.17,1.17
-0.54,0.14,1.14
-0.52,0.11,1.1
-0.47,0.06,1.01
-0.4,0.02,0.96
-0.41,-0.01,0.91
-0.4,-0.04,0.86
-0.38,-0.07,0.8
-0.35,-0.1,0.74
-0.3,-0.14,0.67
-0.24,-0.17,0.6
-0.2,-0.21,0.54
-0.17,-0.25,0.49
-0.15,-0.28,0.45
-0.12,-0.32,0.41
-0.09,-0.36,0.37
-0.07,-0.41,0.34
-0.05,-0.44,0.3
-0.02,-0.48,0.28
-0.02,-0.52,0.27
-0.04,-0.56,0.27
-0.06,-0.58,0.29
-0.07,-0.62,0.3
-0.08,-0.66,0.31
-0.08,-0.69,0.3
-0.08,-0.7,0.28
-0.06,-0.71,0.27
-0.05,-0.72,0.27
-0.06,-0.72,0.28
-0.08,-0.72,0.31
-0.11,-0.72,0.33
-0.12,-0.72,0.33
-0.11,-0.69,0.33
-0.13,-0.68,0.34
-0.14,-0.66,0.35
-0.15,-0.63,0.35
-0.18,-0.61,0.37
-0.23,-0.57,0.39
-0.26,-0.53,0.4
-0.26,-0.5,0.38
-0.27,-0.49,0.32
-0.29,-0.45,0.26
-0.29,-0.38,0.22
-0.28,-0.3,0.22
-0.3,-0.23,0.29
-0.32,-0.17,0.37
-0.33,-0.13,0.44
-0.34,-0.09,0.49
-0.36,-0.05,0.51
-0.4,-0.01,0.51
-0.43,0.05,0.53
-0.45,0.15,0.59
-0.42,0.25,0.65
-0.39,0.33,0.66
-0.4,0.36,0.63
-0.42,0.37,0.62
-0.38,0.42,0.64
-0.28,0.5,0.63
-0.25,0.58,0.62
-0.28,0.64,0.65
-0.3,1.11,2.32
-2.47,1.18,3.43
-2.14,0.56,3.47
-2.09,0.58,3.57
-1.06,0.81,2.51
-0.77,0.72,1.36
-0.53,0.59,0.59
-0.27,0.4,0.29
-0.29,0.35,0.28
-0.26,0.37,0.3
-0.19,0.34,0.11
-0.12,0.36,0.14
-0.08,0.37,0.42
-0.17,0.28,0.52
-0.24,0.23,0.59
-0.3,0.2,0.71
-0.4,0.2,0.88
-0.52,0.2,1.05
-0.64,0.21,1.17
-0.71,0.22,1.18
-0.74,0.24,1.1
-0.72,0.26,0.97
-0.63,0.28,0.86
-0.52,0.31,0.79
-0.44,0.32,0.76
-0.4,0.33,0.74
-0.38,0.34,0.73
-0.36,0.34,0.72
-0.37,0.34,0.74
-0.43,0.33,0.77
-0.47,0.33,0.81
-0.49,0.34,0.86
-0.52,0.33,0.89
-0.53,0.32,0.91
-0.52,0.32,0.91
-0.5,0.32,0.89
-0.49,0.32,0.86
-0.47,0.32,0.83
-0.46,0.32,0.8
-0.47,0.32,0.78
-0.47,0.31,0.77
-0.47,0.31,0.77
-0.47,0.3,0.78
-0.48,0.3,0.79
-0.49,0.29,0.81
-0.49,0.29,0.83
-0.49,0.29,0.85
-0.49,0.3,0.86
-0.48,0.3,0.86
-0.47,0.3,0.85
-0.46,0.31,0.84
-0.46,0.31,0.83
-0.46,0.32,0.82
-0.46,0.32,0.82
-0.47,0.32,0.81
-0.47,0.33,0.81
-0.48,0.32,0.81
-0.48,0.32,0.82
-0.48,0.31,0.82
-0.49,0.31,0.82
-0.49,0.31,0.82
-0.49,0.31,0.82
-0.48,0.31,0.82
-0.48,0.31,0.82
-0.47,0.31,0.82
-0.48,0.31,0.82
-0.48,0.3,0.82
-0.47,0.29,0.82
-0.47,0.3,0.82
-0.48,0.3,0.82
-0.48,0.3,0.82
-0.49,0.31,0.83
-0.49,0.31,0.83
-0.49,0.32,0.83
-0.49,0.32,0.84
-0.49,0.31,0.85
-0.49,0.3,0.85
-0.49,0.29,0.85
-0.5,0.29,0.83
-0.49,0.29,0.81
-0.49,0.29,0.79
-0.48,0.28,0.78
-0.49,0.28,0.77
-0.51,0.29,0.77
-0.52,0.31,0.77
-0.53,0.33,0.77
-0.54,0.37,0.76
-0.56,0.38,0.76
-0.56,0.38,0.75
-0.56,0.38,0.75
-0.56,0.38,0.75
-0.54,0.36,0.76
-0.51,0.35,0.79
-0.5,0.34,0.82
-0.49,0.33,0.84
-0.47,0.31,0.85
-0.46,0.3,0.86
-0.44,0.3,0.86
-0.43,0.29,0.86
-0.42,0.29,0.86
-0.42,0.29,0.86
-0.43,0.29,0.86
-0.43,0.29,0.86
-0.43,0.29,0.86
-0.43,0.3,0.85
-0.42,0.29,0.84
-0.43,0.29,0.84
-0.43,0.3,0.85
-0.42,0.3,0.85
-0.42,0.3,0.85
-0.42,0.3,0.85
-0.42,0.31,0.85
-0.43,0.3,0.86
-0.44,0.29,0.86
-0.44,0.29,0.86
-0.45,0.29,0.85
-0.46,0.29,0.85
-0.45,0.28,0.84
-0.45,0.28,0.84
-0.46,0.28,0.83
-0.46,0.28,0.83
-0.46,0.28,0.84
-0.46,0.28,0.84
-0.46,0.28,0.84
-0.47,0.28,0.84
-0.47,0.28,0.84
-0.46,0.29,0.83
-0.46,0.3,0.83
-0.47,0.3,0.82
-0.47,0.3,0.82
-0.47,0.3,0.82
-0.48,0.3,0.83
-0.48,0.3,0.83
-0.48,0.3,0.81
-0.48,0.29,0.81
-0.48,0.28,0.81
-0.48,0.27,0.81
-0.49,0.26,0.82
-0.49,0.26,0.82
-0.48,0.26,0.82
-0.47,0.26,0.82
-0.47,0.26,0.82
-0.46,0.26,0.81
-0.47,0.26,0.81
-0.47,0.26,0.81
-0.48,0.26,0.81
-0.49,0.27,0.81
-0.49,0.28,0.8
-0.49,0.28,0.8
-0.49,0.29,0.8
-0.49,0.29,0.79
-0.48,0.29,0.78
-0.48,0.29,0.78
-0.47,0.28,0.78
-0.47,0.27,0.78
-0.47,0.26,0.76
-0.47,0.27,0.74
-0.48,0.28,0.72
-0.51,0.3,0.71
-0.54,0.32,0.71
-0.57,0.34,0.71
-0.6,0.37,0.73
-0.64,0.39,0.75
-0.68,0.4,0.77
-0.7,0.4,0.79
-0.7,0.4,0.79
-0.67,0.39,0.78
-0.65,0.38,0.75
-0.63,0.37,0.73
-0.61,0.36,0.71
-0.6,0.35,0.68
-0.6,0.35,0.66
-0.61,0.35,0.66
-0.64,0.34,0.67
-0.65,0.34,0.68
-0.66,0.35,0.69
-0.66,0.35,0.71
-0.66,0.35,0.73
-0.66,0.34,0.74
-0.65,0.34,0.74
-0.65,0.34,0.74
-0.64,0.34,0.74
-0.63,0.35,0.73
-0.63,0.35,0.72
-0.62,0.35,0.71
-0.61,0.36,0.7
-0.61,0.37,0.69
-0.62,0.38,0.68
-0.62,0.39,0.68
-0.63,0.41,0.67
-0.64,0.42,0.67
-0.65,0.43,0.67
-0.65,0.45,0.66
-0.65,0.46,0.66
-0.64,0.47,0.65
-0.63,0.47,0.63
-0.62,0.48,0.63
-0.62,0.49,0.62
-0.62,0.5,0.61
-0.61,0.5,0.61
-0.61,0.51,0.61
-0.6,0.51,0.62
-0.6,0.51,0.62
-0.6,0.5,0.62
-0.59,0.5,0.62
-0.59,0.5,0.62
-0.6,0.49,0.62
-0.61,0.48,0.62
-0.61,0.48,0.62
-0.6,0.48,0.62
-0.6,0.48,0.62
-0.6,0.47,0.63
-0.61,0.47,0.63
-0.62,0.47,0.64
-0.63,0.47,0.65
-0.62,0.47,0.67
-0.61,0.47,0.66
-0.61,0.47,0.66
-0.61,0.47,0.66
-0.61,0.48,0.65
-0.61,0.48,0.65
-0.62,0.49,0.65
-0.63,0.5,0.65
-0.65,0.52,0.67
-0.68,0.54,0.7
-0.7,0.57,0.74
-0.69,0.6,0.76
-0.64,0.59,0.72
-0.56,0.59,0.69
-0.51,0.68,0.7
-0.65,0.69,0.77
-0.68,0.71,0.8
-0.69,0.72,0.8
-0.69,0.73,0.77
-0.75,0.73,0.77
-0.83,0.72,0.76
-0.86,0.72,0.75
-0.9,0.71,0.79
-0.92,0.67,0.85
-0.93,0.63,0.92
-0.94,0.61,0.99
-0.93,0.58,1.03
-0.91,0.54,1.02
-0.91,0.48,0.99
-0.92,0.44,0.96
-0.89,0.41,0.93
-0.87,0.39,0.91
-0.88,0.36,0.92
-0.89,0.32,0.93
-0.9,0.29,0.94
-0.85,0.26,0.94
-0.79,0.24,0.92
-0.81,0.21,0.9
-0.81,0.16,0.97
-0.75,0.04,0.68
-0.41,0.12,0.3
-0.3,0.3,0.34
-0.49,0.27,0.84
-0.86,-0.04,1.01
-0.73,-0.1,0.77
-0.45,-0.03,0.49
-0.28,-0.03,0.35
-0.26,-0.07,0.33
-0.32,-0.07,0.37
-0.36,-0.07,0.41
-0.34,-0.04,0.42
-0.32,-0.05,0.44
-0.33,-0.09,0.46
-0.35,-0.15,0.46
-0.36,-0.17,0.47
-0.38,-0.2,0.47
-0.38,-0.24,0.45
-0.35,-0.28,0.43
-0.37,-0.31,0.42
-0.41,-0.31,0.45
-0.39,-0.33,0.48
-0.34,-0.37,0.48
-0.31,-0.37,0.46
-0.28,-0.36,0.42
-0.26,-0.38,0.37
-0.25,-0.38,0.32
-0.24,-0.36,0.29
-0.25,-0.34,0.3
-0.25,-0.31,0.35
-0.23,-0.27,0.41
-0.21,-0.26,0.43
-0.21,-0.24,0.4
-0.21,-0.22,0.34
-0.22,-0.21,0.26
-0.26,-0.19,0.19
-0.3,-0.16,0.12
-0.32,-0.13,0.09
-0.34,-0.09,0.09
-0.38,-0.05,0.12
-0.4,-0.02,0.16
-0.42,0.03,0.21
-0.46,0.08,0.28
-0.49,0.13,0.36
-0.51,0.19,0.43
-0.5,0.2,0.44
-0.48,0.18,0.4
-0.45,0.19,0.31
-0.42,0.24,0.22
-0.4,0.33,0.15
-0.42,0.48,0.12
-0.46,0.64,0.15
-0.48,0.78,0.22
-0.46,0.92,0.29
-2.15,1.96,1.38
-2.93,2.81,3.21
-1.39,2.51,3.99
-1.03,2.05,3.87
-1.26,1.66,3.04
-0.94,1.37,1.75
-0.52,0.98,0.77
-0.37,0.51,-0.11
-0.22,0.45,-0.18
-0.11,0.47,-0.17
-0.07,0.48,-0.12
-0.13,0.45,-0.05
-0.23,0.42,0.02
-0.28,0.41,0.12
-0.31,0.42,0.24
-0.39,0.42,0.37
-0.5,0.45,0.51
-0.62,0.5,0.67
-0.71,0.56,0.81
-0.78,0.64,0.91
-0.81,0.71,0.94
-0.81,0.75,0.9
-0.77,0.76,0.81
-0.7,0.74,0.71
-0.64,0.7,0.6
-0.58,0.67,0.5
-0.53,0.65,0.42
-0.5,0.64,0.37
-0.49,0.63,0.34
-0.49,0.64,0.35
-0.5,0.65,0.37
-0.52,0.67,0.42
-0.53,0.69,0.47
-0.54,0.7,0.53
-0.54,0.7,0.57
-0.54,0.7,0.62
-0.53,0.69,0.62
-0.53,0.68,0.61
-0.53,0.66,0.58
-0.53,0.64,0.56
-0.53,0.63,0.54
-0.53,0.62,0.52
-0.54,0.61,0.52
-0.54,0.6,0.52
-0.55,0.6,0.52
-0.56,0.6,0.53
-0.56,0.61,0.54
-0.56,0.61,0.55
-0.56,0.62,0.55
-0.56,0.63,0.56
-0.55,0.64,0.56
-0.55,0.64,0.56
-0.54,0.64,0.56
-0.54,0.64,0.55
-0.54,0.64,0.55
-0.54,0.64,0.55
-0.54,0.64,0.55
-0.54,0.64,0.55
-0.54,0.63,0.55
-0.54,0.63,0.54
-0.54,0.63,0.54
-0.55,0.63,0.54
-0.55,0.63,0.54
-0.55,0.63,0.54
-0.54,0.63,0.54
-0.55,0.63,0.53
-0.55,0.64,0.53
-0.55,0.64,0.53
-0.55,0.64,0.53
-0.55,0.64,0.53
-0.55,0.64,0.53
-0.55,0.64,0.52
-0.55,0.64,0.52
-0.55,0.65,0.52
-0.55,0.65,0.52
-0.55,0.64,0.52
-0.56,0.64,0.53
-0.56,0.64,0.53
-0.55,0.64,0.53
-0.56,0.63,0.53
-0.56,0.63,0.53
-0.56,0.63,0.53
-0.56,0.63,0.53
-0.56,0.63,0.53
-0.56,0.63,0.53
-0.56,0.63,0.53
-0.56,0.64,0.53
-0.56,0.64,0.53
-0.56,0.64,0.53
-0.56,0.64,0.53
-0.56,0.64,0.53
-0.56,0.64,0.53
-0.56,0.63,0.53
-0.56,0.63,0.53
-0.56,0.63,0.53
-0.56,0.63,0.53
-0.56,0.63,0.53
-0.56,0.63,0.53
-0.56,0.62,0.53
-0.56,0.63,0.53
-0.56,0.63,0.53
-0.56,0.63,0.53
-0.56,0.63,0.53
-0.56,0.63,0.53
-0.56,0.63,0.53
-0.56,0.63,0.53
-0.55,0.63,0.53
-0.55,0.62,0.53
-0.55,0.63,0.53
-0.55,0.63,0.53
-0.56,0.63,0.54
-0.56,0.63,0.54
-0.56,0.63,0.53
-0.56,0.63,0.53
-0.56,0.63,0.53
-0.56,0.63,0.53
-0.56,0.63,0.53
-0.56,0.63,0.53
-0.55,0.63,0.53
-0.56,0.63,0.53
-0.56,0.63,0.53
-0.56,0.63,0.53
-0.56,0.63,0.53
-0.56,0.63,0.53
-0.56,0.63,0.53
-0.56,0.63,0.53
-0.56,0.63,0.53
-0.56,0.63,0.53
-0.56,0.63,0.53
-0.56,0.63,0.52
-0.56,0.63,0.52
-0.56,0.63,0.52
-0.56,0.63,0.52
-0.56,0.63,0.52
-0.56,0.63,0.53
-0.56,0.63,0.53
-0.56,0.63,0.53
-0.56,0.63,0.53
-0.55,0.63,0.53
-0.56,0.63,0.53
-0.56,0.63,0.52
-0.56,0.63,0.52
-0.56,0.63,0.52
-0.56,0.63,0.53
-0.56,0.63,0.52
-0.56,0.63,0.53
-0.56,0.63,0.53
-0.56,0.63,0.53
-0.56,0.63,0.53
-0.56,0.63,0.53
-0.56,0.63,0.53
-0.56,0.63,0.53
-0.56,0.63,0.53
-0.56,0.63,0.53
-0.56,0.63,0.53
-0.56,0.63,0.53
-0.56,0.63,0.53
-0.56,0.63,0.53
-0.56,0.62,0.53
-0.56,0.63,0.53
-0.57,0.63,0.53
-0.56,0.63,0.53
-0.56,0.62,0.53
-0.56,0.62,0.53
-0.56,0.63,0.53
-0.57,0.62,0.53
-0.56,0.62,0.53
-0.56,0.62,0.53
-0.56,0.63,0.53
-0.57,0.63,0.53
-0.57,0.62,0.53
-0.57,0.62,0.53
-0.56,0.62,0.53
-0.56,0.62,0.53
-0.57,0.62,0.53
-0.57,0.62,0.53
-0.57,0.62,0.53
-0.57,0.62,0.53
-0.57,0.62,0.53
-0.57,0.62,0.53
-0.57,0.62,0.53
-0.57,0.62,0.53
-0.57,0.62,0.54
-0.57,0.62,0.54
-0.57,0.62,0.54
-0.57,0.62,0.54
-0.57,0.62,0.54
-0.57,0.62,0.53
-0.57,0.62,0.53
-0.57,0.62,0.53
-0.57,0.62,0.53
-0.57,0.62,0.53
-0.57,0.61,0.53
-0.57,0.61,0.53
-0.57,0.61,0.53
-0.57,0.61,0.53
-0.57,0.62,0.53
-0.57,0.61,0.53
-0.57,0.61,0.53
-0.57,0.62,0.53
-0.57,0.61,0.53
-0.58,0.61,0.53
-0.57,0.61,0.53
-0.57,0.61,0.53
-0.57,0.61,0.54
-0.57,0.61,0.54
-0.57,0.61,0.54
-0.57,0.61,0.54
-0.57,0.61,0.54
-0.57,0.61,0.54
-0.57,0.61,0.54
-0.57,0.61,0.53
-0.57,0.61,0.54
-0.57,0.61,0.54
-0.57,0.6,0.54
-0.57,0.6,0.54
-0.57,0.6,0.54
-0.57,0.61,0.54
-0.57,0.6,0.54
-0.58,0.6,0.54
-0.58,0.6,0.54
-0.58,0.6,0.54
-0.58,0.6,0.54
-0.58,0.6,0.54
-0.58,0.6,0.54
-0.58,0.6,0.54
-0.58,0.61,0.54
-0.58,0.61,0.54
-0.58,0.61,0.54
-0.58,0.61,0.54
-0.58,0.6,0.54
-0.58,0.6,0.54
-0.58,0.6,0.54
-0.58,0.6,0.54
-0.59,0.6,0.54
-0.59,0.6,0.54
-0.58,0.6,0.54
-0.58,0.59,0.54
-0.58,0.59,0.54
-0.59,0.6,0.54
-0.59,0.6,0.54
-0.59,0.6,0.54
-0.59,0.6,0.54
-0.59,0.59,0.54
-0.59,0.59,0.54
-0.59,0.59,0.54
-0.59,0.59,0.54
-0.59,0.59,0.54
-0.59,0.6,0.54
-0.59,0.59,0.54
-0.59,0.59,0.54
-0.59,0.59,0.54
-0.59,0.6,0.54
-0.59,0.6,0.55
-0.59,0.6,0.55
-0.59,0.61,0.55
-0.59,0.61,0.55
-0.58,0.6,0.55
-0.57,0.61,0.56
-0.57,0.63,0.58
-0.57,0.65,0.6
-0.57,0.66,0.62
-0.58,0.68,0.62
-0.58,0.69,0.61
-0.56,0.7,0.61
-0.6,0.71,0.63
-0.64,0.7,0.66
-0.64,0.69,0.7
-0.66,0.71,0.76
-0.72,0.72,0.81
-0.77,0.71,0.82
-0.82,0.72,0.81
-0.86,0.73,0.82
-0.87,0.74,0.84
-0.86,0.75,0.86
-0.85,0.73,0.87
-0.85,0.69,0.85
-0.85,0.66,0.84
-0.85,0.63,0.83
-0.84,0.59,0.82
-0.81,0.56,0.8
-0.79,0.53,0.77
-0.79,0.5,0.74
-0.79,0.47,0.7
-0.8,0.44,0.66
-0.79,0.41,0.63
-0.76,0.37,0.58
-0.73,0.32,0.55
-0.72,0.29,0.52
-0.68,0.28,0.5
-0.64,0.26,0.48
-0.62,0.24,0.47
-0.6,0.22,0.46
-0.54,0.17,0.38
-0.51,0.14,0.34
-0.46,0.12,0.3
-0.41,0.1,0.29
-0.38,0.08,0.32
-0.36,0.05,0.33
-0.41,0.03,0.33
-0.42,0.02,0.32
-0.41,0.02,0.3
-0.41,0.02,0.29
-0.39,0.02,0.27
-0.35,0,0.24
-0.31,-0.02,0.21
-0.32,-0.03,0.19
-0.35,-0.02,0.19
-0.36,-0.01,0.2
-0.36,-0.01,0.19
-0.33,-0.01,0.18
-0.3,-0.02,0.15
-0.28,-0.03,0.13
-0.26,-0.02,0.1
-0.27,0,0.08
-0.28,0.04,0.07
-0.32,0.12,0.08
-0.39,0.23,0.1
-0.45,0.32,0.14
-0.47,0.4,0.18
-0.46,0.46,0.18
-0.45,0.5,0.18
-0.43,0.7,0.17
-0.46,0.83,0.2
-1.96,1.34,1.61
-2.83,1.92,3.34
-1.69,1.97,3.77
-1.01,1.9,3.42
-1.01,1.63,2.43
-0.98,1.07,1.4
-0.64,0.75,0.66
-0.43,0.61,0.23
-0.4,0.47,0.03
-0.32,0.39,-0.03
-0.16,0.38,-0.06
-0.07,0.4,-0.03
-0.09,0.39,0.02
-0.15,0.38,0.09
-0.26,0.39,0.21
-0.38,0.41,0.35
-0.5,0.45,0.51
-0.6,0.52,0.67
-0.69,0.59,0.81
-0.76,0.65,0.91
-0.8,0.7,0.95
-0.81,0.72,0.92
-0.78,0.72,0.84
-0.7,0.69,0.71
-0.62,0.64,0.57
-0.57,0.6,0.45
-0.53,0.57,0.33
-0.5,0.58,0.33
-0.51,0.61,0.37
-0.53,0.63,0.42
-0.56,0.66,0.49
-0.58,0.68,0.55
-0.59,0.69,0.59
-0.58,0.69,0.62
-0.57,0.68,0.63
-0.56,0.67,0.61
-0.56,0.65,0.59
-0.56,0.63,0.57
-0.57,0.61,0.55
-0.57,0.59,0.54
-0.57,0.57,0.53
-0.58,0.56,0.53
-0.59,0.56,0.53
-0.6,0.55,0.55
-0.6,0.56,0.56
-0.6,0.57,0.57
-0.6,0.58,0.57
-0.59,0.59,0.57
-0.58,0.59,0.58
-0.58,0.59,0.57
-0.58,0.59,0.56
-0.57,0.6,0.56
-0.57,0.6,0.56
-0.57,0.6,0.55
-0.57,0.6,0.55
-0.58,0.6,0.55
-0.58,0.6,0.55
-0.58,0.59,0.55
-0.58,0.59,0.55
-0.58,0.59,0.56
-0.58,0.59,0.56
-0.58,0.59,0.56
-0.58,0.59,0.56
-0.58,0.58,0.56
-0.58,0.58,0.56
-0.58,0.58,0.56
-0.58,0.58,0.57
-0.58,0.58,0.57
-0.58,0.58,0.56
-0.58,0.58,0.56
-0.59,0.58,0.56
-0.59,0.58,0.55
-0.59,0.59,0.55
-0.58,0.59,0.56
-0.58,0.59,0.56
-0.58,0.59,0.56
-0.58,0.59,0.56
-0.58,0.59,0.56
-0.58,0.59,0.56
-0.58,0.59,0.55
-0.58,0.58,0.55
-0.59,0.58,0.55
-0.59,0.58,0.55
-0.58,0.58,0.55
-0.59,0.58,0.55
-0.59,0.58,0.55
-0.59,0.58,0.55
-0.59,0.58,0.55
-0.59,0.58,0.55
-0.59,0.59,0.55
-0.59,0.59,0.55
-0.59,0.59,0.55
-0.59,0.59,0.55
-0.59,0.59,0.55
-0.58,0.59,0.55
-0.58,0.59,0.55
-0.58,0.59,0.55
-0.58,0.59,0.55
-0.58,0.59,0.55
-0.58,0.59,0.55
-0.58,0.59,0.55
-0.58,0.59,0.55
-0.58,0.59,0.55
-0.58,0.59,0.56
-0.58,0.59,0.55
-0.58,0.59,0.56
-0.58,0.59,0.55
-0.58,0.59,0.55
-0.58,0.59,0.55
-0.58,0.59,0.55
-0.58,0.59,0.55
-0.58,0.59,0.55
-0.59,0.59,0.55
-0.58,0.59,0.55
-0.58,0.59,0.55
-0.58,0.59,0.55
-0.59,0.59,0.55
-0.58,0.59,0.54
-0.58,0.6,0.54
-0.58,0.59,0.54
-0.58,0.59,0.55
-0.59,0.59,0.54
-0.58,0.59,0.54
-0.58,0.59,0.55
-0.58,0.59,0.54
-0.58,0.59,0.55
-0.59,0.59,0.55
-0.59,0.59,0.55
-0.58,0.59,0.55
-0.58,0.59,0.55
-0.58,0.59,0.55
-0.58,0.59,0.55
-0.58,0.59,0.55
-0.58,0.59,0.55
-0.59,0.59,0.55
-0.58,0.59,0.55
-0.58,0.59,0.55
-0.58,0.59,0.55
-0.59,0.59,0.55
-0.59,0.59,0.55
-0.58,0.59,0.55
-0.59,0.59,0.55
-0.58,0.59,0.55
-0.58,0.59,0.55
-0.58,0.59,0.55
-0.58,0.59,0.54
-0.58,0.59,0.54
-0.58,0.59,0.54
-0.58,0.59,0.54
-0.59,0.59,0.54
-0.58,0.59,0.55
-0.58,0.59,0.55
-0.59,0.59,0.55
-0.59,0.6,0.55
-0.59,0.6,0.55
-0.59,0.6,0.55
-0.59,0.6,0.55
-0.59,0.59,0.55
-0.59,0.59,0.55
-0.59,0.58,0.55
-0.59,0.58,0.55
-0.59,0.58,0.55
-0.59,0.58,0.55
-0.59,0.58,0.55
-0.59,0.58,0.55
-0.59,0.58,0.55
-0.59,0.59,0.55
-0.59,0.59,0.55
-0.59,0.59,0.55
-0.59,0.59,0.55
-0.6,0.59,0.55
-0.6,0.58,0.55
-0.59,0.58,0.55
-0.59,0.58,0.55
-0.59,0.58,0.55
-0.59,0.58,0.55
-0.59,0.58,0.55
-0.59,0.58,0.55
-0.6,0.58,0.55
-0.6,0.58,0.54
-0.6,0.58,0.54
-0.6,0.58,0.55
-0.6,0.58,0.55
-0.6,0.58,0.55
-0.6,0.58,0.55
-0.6,0.58,0.55
-0.6,0.58,0.55
-0.59,0.58,0.55
-0.59,0.58,0.55
-0.59,0.58,0.55
-0.59,0.58,0.55
-0.59,0.58,0.55
-0.59,0.58,0.55
-0.59,0.58,0.55
-0.59,0.58,0.55
-0.59,0.58,0.55
-0.59,0.58,0.55
-0.59,0.58,0.55
-0.6,0.57,0.55
-0.6,0.58,0.55
-0.6,0.58,0.55
-0.6,0.57,0.55
-0.6,0.58,0.55
-0.6,0.58,0.55
-0.6,0.58,0.55
-0.6,0.58,0.55
-0.6,0.58,0.55
-0.59,0.58,0.55
-0.59,0.58,0.55
-0.6,0.58,0.55
-0.6,0.57,0.55
-0.6,0.57,0.55
-0.6,0.58,0.55
-0.6,0.58,0.55
-0.59,0.57,0.56
-0.59,0.58,0.56
-0.59,0.58,0.56
-0.59,0.58,0.56
-0.59,0.58,0.56
-0.59,0.58,0.56
-0.59,0.58,0.56
-0.59,0.58,0.56
-0.6,0.58,0.56
-0.6,0.58,0.55
-0.6,0.58,0.55
-0.59,0.58,0.55
-0.6,0.58,0.54
-0.6,0.57,0.54
-0.6,0.57,0.54
-0.6,0.57,0.54
-0.61,0.56,0.54
-0.61,0.56,0.54
-0.6,0.57,0.54
-0.6,0.57,0.54
-0.6,0.57,0.53
-0.6,0.57,0.53
-0.61,0.57,0.53
-0.61,0.57,0.54
-0.61,0.57,0.54
-0.61,0.57,0.55
-0.61,0.57,0.55
-0.61,0.57,0.56
-0.61,0.56,0.56
-0.61,0.56,0.56
-0.61,0.56,0.56
-0.61,0.56,0.56
-0.61,0.56,0.56
-0.61,0.56,0.56
-0.61,0.55,0.56
-0.61,0.55,0.56
-0.61,0.55,0.56
-0.61,0.54,0.56
-0.62,0.54,0.56
-0.62,0.54,0.56
-0.62,0.54,0.56
-0.62,0.53,0.55
-0.63,0.53,0.55
-0.64,0.52,0.55
-0.64,0.52,0.55
-0.64,0.52,0.55
-0.64,0.53,0.55
-0.64,0.52,0.55
-0.64,0.52,0.55
-0.64,0.52,0.56
-0.64,0.52,0.56
-0.64,0.52,0.56
-0.65,0.52,0.56
-0.65,0.52,0.57
-0.65,0.52,0.56
-0.65,0.52,0.56
-0.65,0.52,0.56
-0.66,0.51,0.55
-0.66,0.51,0.55
-0.65,0.51,0.55
-0.65,0.51,0.55
-0.65,0.51,0.55
-0.65,0.5,0.56
-0.66,0.5,0.56
-0.66,0.49,0.56
-0.66,0.49,0.56
-0.66,0.48,0.56
-0.66,0.48,0.56
-0.65,0.47,0.56
-0.66,0.47,0.56
-0.67,0.47,0.55
-0.68,0.47,0.55
