Acc_x,Acc_y,Acc_z
0.34,0.12,-0.95
0.34,0.1,-0.97
0.34,0.11,-0.96
0.33,0.12,-0.91
0.35,0.13,-0.86
0.37,0.15,-0.83
0.39,0.16,-0.82
0.4,0.15,-0.84
0.42,0.12,-0.87
0.42,0.11,-0.88
0.42,0.1,-0.87
0.41,0.09,-0.85
0.41,0.1,-0.82
0.42,0.1,-0.79
0.42,0.09,-0.77
0.42,0.07,-0.76
0.41,0.05,-0.78
0.38,0.02,-0.83
0.35,0.01,-0.89
0.32,0,-0.95
0.3,-0.01,-0.98
0.3,0,-0.99
0.3,0.02,-1
0.29,0.01,-1.03
0.26,0.02,-1.05
0.22,0.04,-1.05
0.18,0.05,-1.04
0.15,0.06,-1.02
0.14,0.06,-1.02
0.07,0.05,-0.99
0.07,0.05,-0.99
0.08,0.06,-0.97
0.08,0.05,-0.96
0.09,0.05,-0.95
0.11,0.04,-0.95
0.12,0.04,-0.94
0.15,0.04,-0.95
0.16,0.02,-0.95
0.18,0.02,-0.95
0.18,0.03,-0.95
0.18,0.04,-0.96
0.19,0.03,-1.02
0.2,0.01,-1.02
0.2,0.02,-0.98
0.21,0.04,-0.95
0.22,0.06,-0.93
0.22,0.06,-0.92
0.22,0.04,-0.93
0.22,0.01,-0.94
0.2,-0.01,-0.93
0.19,0,-0.93
0.18,0.02,-0.92
0.18,0.04,-0.93
0.18,0.06,-0.94
0.18,0.1,-0.95
0.19,0.13,-0.97
0.2,0.13,-0.99
0.21,0.1,-0.99
0.21,0.09,-1
0.22,0.07,-1
0.24,0.07,-1.01
0.24,0.07,-1
0.24,0.08,-0.99
0.24,0.06,-0.99
0.25,0.05,-0.98
0.25,0.05,-0.98
0.24,0.03,-0.97
0.24,0.03,-0.96
0.23,0.05,-0.95
0.23,0.06,-0.96
0.23,0.06,-0.95
0.23,0.04,-0.95
0.23,0.02,-0.94
0.22,0.02,-0.94
0.22,0.04,-0.94
0.22,0.05,-0.95
0.23,0.05,-0.96
0.23,0.07,-0.97
0.23,0.09,-0.98
0.22,0.1,-0.97
0.23,0.11,-0.96
0.23,0.13,-0.97
0.25,0.11,-0.98
0.27,0.06,-1
0.28,0.04,-1
0.27,0.04,-0.99
0.27,0.06,-0.96
0.27,0.07,-0.94
0.27,0.07,-0.93
0.26,0.11,-0.92
0.27,0.13,-0.91
0.28,0.1,-0.93
0.3,0.07,-0.94
0.3,0.05,-0.92
0.29,0.04,-0.9
0.29,0.06,-0.88
0.3,0.07,-0.87
0.3,0.09,-0.89
0.32,0.08,-0.91
0.33,0.06,-0.91
0.33,0.06,-0.9
0.33,0.06,-0.89
0.33,0.07,-0.88
0.33,0.07,-0.89
0.33,0.07,-0.9
0.32,0.07,-0.91
0.33,0.08,-0.92
0.32,0.08,-0.94
0.31,0.08,-0.96
0.31,0.08,-0.98
0.3,0.07,-1
0.28,0.06,-1
0.27,0.05,-1
0.27,0.04,-0.99
0.27,0.04,-0.97
0.26,0.05,-0.97
0.25,0.04,-0.99
0.23,0.04,-1.01
0.2,0.07,-1.01
0.19,0.09,-1.02
0.18,0.09,-1.01
0.18,0.08,-1
0.17,0.08,-0.97
0.15,0.06,-0.94
0.15,0.04,-0.94
0.17,0.02,-0.95
0.19,0,-0.97
0.2,0.06,-1.01
0.23,0.1,-1.02
0.23,0.11,-1.02
0.23,0.1,-1.01
0.23,0.1,-0.99
0.24,0.08,-0.97
0.25,0.06,-0.94
0.28,0.04,-0.91
0.3,0.03,-0.89
0.32,0.03,-0.87
0.34,0.03,-0.86
0.36,0.04,-0.87
0.36,0.05,-0.88
0.36,0.07,-0.91
0.35,0.09,-0.93
0.35,0.09,-0.95
0.34,0.08,-0.97
0.32,0.08,-0.96
0.31,0.09,-0.95
0.32,0.1,-0.95
0.32,0.08,-0.94
0.33,0.07,-0.93
0.32,0.06,-0.92
0.32,0.06,-0.91
0.31,0.07,-0.91
0.31,0.08,-0.93
0.31,0.08,-0.94
0.3,0.07,-0.94
0.3,0.07,-0.91
0.31,0.07,-0.9
0.32,0.07,-0.89
0.33,0.07,-0.9
0.34,0.06,-0.91
0.34,0.05,-0.93
0.34,0.07,-0.93
0.34,0.09,-0.93
0.35,0.1,-0.93
0.35,0.1,-0.94
0.35,0.1,-0.95
0.35,0.08,-0.96
0.35,0.05,-0.96
0.35,0.04,-0.96
0.34,0.03,-0.95
0.33,0.04,-0.94
0.33,0.05,-0.93
0.33,0.06,-0.93
0.31,0.07,-0.93
0.3,0.08,-0.93
0.3,0.08,-0.93
0.3,0.07,-0.94
0.3,0.07,-0.94
0.3,0.07,-0.94
0.31,0.06,-0.94
0.32,0.06,-0.94
0.33,0.06,-0.95
0.33,0.07,-0.95
0.33,0.08,-0.95
0.33,0.08,-0.94
0.32,0.09,-0.93
0.32,0.08,-0.92
0.33,0.06,-0.92
0.34,0.05,-0.92
0.35,0.05,-0.92
0.36,0.06,-0.93
0.37,0.07,-0.93
0.36,0.09,-0.92
0.36,0.09,-0.91
0.36,0.08,-0.9
0.37,0.07,-0.9
0.37,0.07,-0.89
0.37,0.07,-0.89
0.38,0.07,-0.9
0.4,0.07,-0.91
0.4,0.07,-0.91
0.4,0.07,-0.91
0.41,0.06,-0.9
0.41,0.06,-0.89
0.4,0.06,-0.88
0.4,0.07,-0.88
0.4,0.07,-0.89
0.4,0.07,-0.9
0.4,0.08,-0.92
0.4,0.07,-0.93
0.4,0.06,-0.93
0.4,0.07,-0.93
0.39,0.07,-0.92
0.39,0.07,-0.9
0.39,0.07,-0.9
0.39,0.07,-0.9
0.4,0.07,-0.91
0.39,0.08,-0.92
0.38,0.09,-0.92
0.38,0.09,-0.91
0.39,0.07,-0.91
0.39,0.07,-0.9
0.4,0.07,-0.9
0.4,0.07,-0.89
0.41,0.09,-0.88
0.41,0.09,-0.88
0.42,0.09,-0.88
0.43,0.07,-0.89
0.44,0.04,-0.89
0.45,0.04,-0.9
0.45,0.05,-0.89
0.44,0.07,-0.9
0.44,0.08,-0.9
0.42,0.09,-0.91
0.41,0.1,-0.91
0.41,0.09,-0.91
0.41,0.07,-0.9
0.41,0.07,-0.89
0.42,0.06,-0.89
0.42,0.07,-0.88
0.42,0.08,-0.87
0.43,0.09,-0.88
0.44,0.07,-0.89
0.44,0.08,-0.89
0.44,0.08,-0.89
0.44,0.09,-0.89
0.44,0.1,-0.88
0.44,0.09,-0.88
0.44,0.08,-0.88
0.44,0.09,-0.88
0.44,0.11,-0.88
0.44,0.12,-0.89
0.44,0.12,-0.88
0.45,0.12,-0.87
0.45,0.1,-0.86
0.46,0.08,-0.86
0.46,0.08,-0.86
0.46,0.08,-0.88
0.46,0.08,-0.9
0.46,0.1,-0.92
0.45,0.1,-0.92
0.45,0.09,-0.91
0.45,0.09,-0.88
0.44,0.08,-0.86
0.45,0.07,-0.86
0.45,0.06,-0.86
0.46,0.05,-0.87
0.46,0.06,-0.86
0.45,0.08,-0.85
0.44,0.09,-0.85
0.45,0.11,-0.87
0.45,0.11,-0.87
0.44,0.1,-0.87
0.45,0.11,-0.87
0.45,0.12,-0.87
0.45,0.13,-0.86
0.47,0.15,-0.85
0.47,0.15,-0.85
0.49,0.14,-0.85
0.5,0.13,-0.86
0.51,0.12,-0.86
0.5,0.13,-0.87
0.49,0.14,-0.87
0.49,0.13,-0.88
0.48,0.14,-0.87
0.46,0.14,-0.85
0.46,0.14,-0.83
0.48,0.12,-0.83
0.48,0.11,-0.83
0.49,0.12,-0.82
0.48,0.13,-0.81
0.48,0.13,-0.81
0.49,0.12,-0.81
0.49,0.13,-0.81
0.5,0.13,-0.81
0.52,0.13,-0.83
0.53,0.13,-0.85
0.54,0.13,-0.86
0.54,0.13,-0.86
0.53,0.13,-0.86
0.53,0.12,-0.85
0.53,0.11,-0.83
0.54,0.1,-0.82
0.54,0.11,-0.81
0.55,0.11,-0.81
0.55,0.12,-0.8
0.54,0.14,-0.79
0.55,0.15,-0.78
0.56,0.14,-0.77
0.56,0.13,-0.76
0.57,0.12,-0.75
0.58,0.11,-0.75
0.59,0.11,-0.76
0.59,0.1,-0.76
0.59,0.11,-0.76
0.59,0.11,-0.76
0.59,0.1,-0.76
0.59,0.11,-0.75
0.59,0.12,-0.74
0.6,0.13,-0.74
0.61,0.12,-0.75
0.62,0.11,-0.76
0.62,0.11,-0.76
0.62,0.11,-0.77
0.61,0.1,-0.77
0.6,0.1,-0.76
0.6,0.09,-0.75
0.62,0.08,-0.76
0.64,0.08,-0.77
0.64,0.09,-0.78
0.64,0.1,-0.77
0.63,0.11,-0.75
0.62,0.11,-0.74
0.63,0.11,-0.74
0.64,0.11,-0.76
0.64,0.11,-0.77
0.63,0.11,-0.77
0.61,0.1,-0.77
0.59,0.09,-0.77
0.59,0.09,-0.78
0.59,0.09,-0.78
0.59,0.09,-0.78
0.6,0.09,-0.78
0.62,0.08,-0.79
0.63,0.08,-0.79
0.62,0.08,-0.77
0.61,0.07,-0.77
0.61,0.07,-0.77
0.59,0.07,-0.78
0.58,0.06,-0.79
0.57,0.05,-0.81
0.58,0.03,-0.83
0.58,0.02,-0.85
0.58,0.02,-0.85
0.57,0.01,-0.85
0.56,0.01,-0.86
0.55,0.02,-0.86
0.52,0.03,-0.86
0.52,0.04,-0.86
0.52,0.05,-0.87
0.53,0.05,-0.87
0.53,0.06,-0.88
0.54,0.04,-0.89
0.55,0.01,-0.9
0.56,0,-0.92
0.56,0.02,-0.92
0.56,0.03,-0.91
0.56,0.04,-0.89
0.55,0.07,-0.86
0.53,0.09,-0.82
0.55,0.08,-0.77
0.58,0.07,-0.73
0.61,0.07,-0.7
0.63,0.07,-0.67
0.64,0.07,-0.65
0.66,0.07,-0.64
0.67,0.07,-0.61
0.69,0.08,-0.59
0.71,0.08,-0.58
0.75,0.1,-0.56
0.8,0.12,-0.55
0.82,0.12,-0.53
0.83,0.11,-0.5
0.83,0.11,-0.5
0.82,0.12,-0.5
0.83,0.09,-0.51
0.83,0.09,-0.52
0.82,0.09,-0.52
0.81,0.08,-0.53
0.82,0.09,-0.54
0.83,0.09,-0.55
0.84,0.1,-0.56
0.85,0.11,-0.56
0.86,0.1,-0.56
0.86,0.09,-0.54
0.86,0.09,-0.53
0.84,0.08,-0.52
0.83,0.08,-0.51
0.83,0.08,-0.51
0.83,0.09,-0.51
0.83,0.09,-0.51
0.84,0.09,-0.5
0.85,0.08,-0.5
0.86,0.08,-0.5
0.86,0.07,-0.5
0.85,0.07,-0.5
0.84,0.06,-0.51
0.83,0.06,-0.52
0.81,0.07,-0.52
0.8,0.08,-0.53
0.8,0.08,-0.54
0.81,0.08,-0.55
0.81,0.07,-0.56
0.82,0.07,-0.56
0.81,0.08,-0.55
0.81,0.08,-0.55
0.81,0.08,-0.55
0.8,0.08,-0.55
0.8,0.08,-0.54
0.81,0.08,-0.54
0.82,0.07,-0.54
0.83,0.06,-0.53
0.83,0.07,-0.53
0.83,0.07,-0.52
0.84,0.07,-0.52
0.85,0.07,-0.52
0.84,0.08,-0.51
0.84,0.08,-0.51
0.82,0.07,-0.51
0.82,0.07,-0.52
0.83,0.06,-0.53
0.83,0.06,-0.53
0.82,0.06,-0.53
0.82,0.07,-0.52
0.82,0.07,-0.52
0.83,0.07,-0.52
0.83,0.08,-0.52
0.84,0.08,-0.51
0.84,0.07,-0.51
0.84,0.06,-0.51
0.83,0.06,-0.51
0.83,0.06,-0.52
0.84,0.06,-0.52
0.84,0.06,-0.52
0.83,0.06,-0.53
0.83,0.06,-0.53
0.84,0.06,-0.53
0.83,0.06,-0.52
0.83,0.06,-0.52
0.83,0.06,-0.52
0.83,0.06,-0.51
0.83,0.06,-0.52
0.84,0.06,-0.52
0.84,0.06,-0.52
0.83,0.06,-0.53
0.82,0.06,-0.52
0.83,0.06,-0.52
0.83,0.06,-0.52
0.83,0.06,-0.51
0.83,0.06,-0.51
0.83,0.06,-0.52
0.83,0.06,-0.52
0.83,0.06,-0.53
0.82,0.05,-0.53
0.82,0.05,-0.53
0.82,0.05,-0.54
0.81,0.06,-0.54
0.81,0.06,-0.55
0.82,0.06,-0.55
0.82,0.06,-0.56
0.83,0.04,-0.55
0.85,0.03,-0.54
0.85,0.03,-0.53
0.86,0.03,-0.52
0.86,0.03,-0.51
0.86,0.03,-0.5
0.86,0.03,-0.5
0.86,0.04,-0.49
0.85,0.04,-0.49
0.86,0.03,-0.49
0.85,0.03,-0.5
0.85,0.04,-0.5
0.84,0.05,-0.5
0.84,0.05,-0.51
0.84,0.05,-0.5
0.84,0.05,-0.51
0.84,0.05,-0.51
0.84,0.05,-0.51
0.83,0.04,-0.52
0.83,0.04,-0.52
0.83,0.03,-0.52
0.83,0.03,-0.53
0.83,0.04,-0.53
0.83,0.04,-0.53
0.83,0.04,-0.53
0.83,0.05,-0.53
0.84,0.05,-0.52
0.84,0.05,-0.52
0.84,0.05,-0.51
0.83,0.05,-0.5
0.84,0.04,-0.5
0.84,0.04,-0.51
0.85,0.04,-0.5
0.85,0.04,-0.51
0.85,0.04,-0.51
0.84,0.04,-0.51
0.85,0.04,-0.51
0.85,0.04,-0.51
0.85,0.04,-0.5
0.84,0.04,-0.5
0.84,0.04,-0.51
0.84,0.03,-0.51
0.84,0.03,-0.51
0.85,0.03,-0.51
0.85,0.03,-0.51
0.85,0.04,-0.51
0.84,0.05,-0.5
0.84,0.05,-0.5
0.84,0.05,-0.5
0.85,0.04,-0.5
0.85,0.04,-0.5
0.85,0.04,-0.5
0.85,0.04,-0.5
0.85,0.03,-0.5
0.85,0.03,-0.5
0.85,0.03,-0.51
0.85,0.03,-0.51
0.85,0.04,-0.5
0.85,0.04,-0.5
0.84,0.04,-0.49
0.84,0.04,-0.49
0.85,0.04,-0.49
0.84,0.05,-0.49
0.84,0.05,-0.49
0.85,0.04,-0.49
0.85,0.03,-0.49
0.85,0.03,-0.5
0.85,0.02,-0.5
0.85,0.02,-0.49
0.85,0.01,-0.49
0.86,0.01,-0.49
0.86,0,-0.49
0.86,0.01,-0.49
0.86,0.01,-0.5
0.86,0.02,-0.49
0.86,0.03,-0.5
0.86,0.03,-0.49
0.86,0.03,-0.49
0.86,0.03,-0.49
0.86,0.03,-0.49
0.85,0.03,-0.49
0.86,0.03,-0.49
0.86,0.03,-0.48
0.86,0.04,-0.48
0.86,0.04,-0.48
0.85,0.04,-0.48
0.85,0.03,-0.49
0.85,0.03,-0.49
0.85,0.04,-0.48
0.85,0.04,-0.48
0.85,0.04,-0.48
0.85,0.04,-0.48
0.85,0.03,-0.48
0.85,0.03,-0.48
0.85,0.03,-0.48
0.85,0.03,-0.49
0.85,0.03,-0.49
0.86,0.03,-0.49
0.86,0.02,-0.5
0.86,0.02,-0.5
0.86,0.01,-0.5
0.86,0,-0.49
0.86,0.01,-0.49
0.86,0.01,-0.49
0.85,0.02,-0.48
0.85,0.02,-0.48
0.86,0.03,-0.48
0.86,0.03,-0.48
0.86,0.03,-0.48
0.86,0.04,-0.48
0.86,0.03,-0.48
0.86,0.02,-0.48
0.86,0.02,-0.48
0.86,0.02,-0.48
0.86,0.02,-0.48
0.85,0.02,-0.49
0.85,0.02,-0.49
0.85,0.02,-0.49
0.86,0.02,-0.49
0.86,0.02,-0.49
0.85,0.02,-0.48
0.86,0.02,-0.48
0.86,0.02,-0.48
0.86,0.02,-0.48
0.86,0.03,-0.48
0.86,0.03,-0.48
0.86,0.02,-0.49
0.86,0.02,-0.49
0.86,0.02,-0.49
0.86,0.02,-0.49
0.86,0.02,-0.49
0.86,0.03,-0.48
0.86,0.03,-0.47
0.86,0.03,-0.47
0.86,0.03,-0.47
0.86,0.03,-0.47
0.86,0.03,-0.47
0.86,0.02,-0.48
0.86,0.02,-0.48
0.86,0.02,-0.48
0.86,0.02,-0.48
0.86,0.03,-0.48
0.86,0.03,-0.48
0.86,0.03,-0.48
0.86,0.03,-0.48
0.86,0.02,-0.48
0.86,0.02,-0.48
0.87,0.02,-0.48
0.86,0.02,-0.48
0.86,0.02,-0.48
0.86,0.02,-0.48
0.86,0.03,-0.48
0.86,0.03,-0.48
0.86,0.03,-0.47
0.86,0.03,-0.47
0.86,0.03,-0.47
0.86,0.02,-0.48
0.86,0.02,-0.48
0.86,0.02,-0.48
0.86,0.03,-0.48
0.86,0.03,-0.48
0.86,0.03,-0.48
0.86,0.03,-0.47
0.86,0.03,-0.47
0.86,0.03,-0.47
0.86,0.03,-0.48
0.86,0.03,-0.48
0.86,0.03,-0.48
0.86,0.03,-0.48
0.86,0.03,-0.48
0.86,0.02,-0.48
0.87,0.02,-0.48
0.86,0.02,-0.47
0.86,0.02,-0.47
0.86,0.03,-0.47
0.86,0.03,-0.47
0.86,0.02,-0.47
0.86,0.02,-0.48
0.87,0.02,-0.48
0.87,0.02,-0.48
0.86,0.02,-0.48
0.86,0.02,-0.48
0.86,0.02,-0.48
0.86,0.03,-0.48
0.86,0.03,-0.47
0.86,0.02,-0.47
0.86,0.02,-0.47
0.86,0.02,-0.47
0.86,0.02,-0.47
0.86,0.03,-0.47
0.86,0.03,-0.47
0.86,0.03,-0.47
0.86,0.03,-0.47
0.86,0.02,-0.48
0.86,0.02,-0.48
0.86,0.03,-0.48
0.86,0.03,-0.47
0.86,0.03,-0.47
0.86,0.03,-0.48
0.86,0.03,-0.48
0.86,0.02,-0.49
0.86,0.02,-0.49
0.86,0.03,-0.48
0.86,0.03,-0.48
0.86,0.03,-0.47
0.86,0.03,-0.47
0.86,0.03,-0.47
0.86,0.02,-0.47
0.86,0.02,-0.48
0.86,0.02,-0.48
0.86,0.02,-0.48
0.86,0.02,-0.48
0.86,0.02,-0.48
0.86,0.02,-0.48
0.86,0.02,-0.48
0.86,0.02,-0.48
0.86,0.02,-0.47
0.86,0.02,-0.47
0.86,0.02,-0.47
0.86,0.02,-0.48
0.86,0.02,-0.48
0.86,0.02,-0.48
0.86,0.02,-0.48
0.86,0.02,-0.49
0.86,0.02,-0.48
0.86,0.02,-0.48
0.86,0.02,-0.48
0.86,0.02,-0.48
0.86,0.02,-0.48
0.86,0.02,-0.48
0.86,0.03,-0.48
0.86,0.03,-0.48
0.86,0.02,-0.48
0.86,0.03,-0.48
0.86,0.03,-0.48
0.86,0.02,-0.49
0.86,0.02,-0.49
0.86,0.02,-0.48
0.86,0.02,-0.48
0.86,0.03,-0.47
0.86,0.03,-0.46
0.86,0.04,-0.46
0.86,0.04,-0.46
0.86,0.03,-0.46
0.87,0.03,-0.46
0.87,0.02,-0.46
0.87,0.01,-0.47
0.87,0,-0.48
0.87,-0.01,-0.48
0.87,-0.01,-0.49
0.87,-0.01,-0.5
0.87,0,-0.51
0.86,0.01,-0.51
0.85,0.02,-0.5
0.86,0.02,-0.5
0.86,0.03,-0.48
0.86,0.03,-0.47
0.86,0.03,-0.45
0.87,0.02,-0.45
0.87,0.02,-0.44
0.87,0.02,-0.44
0.87,0.02,-0.43
0.88,0.01,-0.43
0.88,0.02,-0.44
0.88,0.02,-0.45
0.87,0.03,-0.44
0.88,0.03,-0.45
0.87,0.02,-0.47
0.86,0.02,-0.47
0.86,0.02,-0.47
0.86,0.02,-0.47
0.86,0.02,-0.47
0.86,0.02,-0.47
0.86,0.02,-0.47
0.86,0.02,-0.47
0.86,0.02,-0.46
0.86,0.02,-0.46
0.86,0.02,-0.46
0.87,0.02,-0.46
0.87,0.02,-0.46
0.87,0.01,-0.46
0.87,0.01,-0.46
0.87,0.01,-0.46
0.88,0.01,-0.46
0.88,0.01,-0.46
0.87,0.01,-0.47
0.87,0,-0.47
0.88,0.01,-0.47
0.87,0.01,-0.47
0.87,0.01,-0.47
0.87,0.02,-0.46
0.87,0.02,-0.45
0.87,0.02,-0.45
0.87,0.02,-0.45
0.87,0.02,-0.45
0.87,0.02,-0.45
0.87,0.02,-0.45
0.87,0.02,-0.46
0.87,0.02,-0.46
0.87,0.02,-0.46
0.87,0.01,-0.47
0.87,0.01,-0.47
0.87,0.01,-0.47
0.87,0.01,-0.47
0.87,0.01,-0.47
0.87,0.01,-0.46
0.87,0.02,-0.46
0.87,0.02,-0.45
0.87,0.02,-0.45
0.87,0.02,-0.45
0.87,0.02,-0.45
0.87,0.02,-0.45
0.87,0.01,-0.45
0.87,0.01,-0.46
0.88,0.01,-0.46
0.88,0,-0.47
0.88,0,-0.47
0.87,0.01,-0.47
0.87,0.01,-0.46
0.87,0.01,-0.45
0.87,0.02,-0.45
0.87,0.02,-0.44
0.87,0.02,-0.44
0.88,0.02,-0.44
0.87,0.02,-0.44
0.87,0.01,-0.45
0.87,0.01,-0.45
0.87,0.02,-0.45
0.87,0.02,-0.46
0.87,0.02,-0.46
0.87,0.02,-0.46
0.87,0.02,-0.46
0.87,0.02,-0.47
0.87,0.02,-0.46
0.87,0.01,-0.46
0.87,0.01,-0.45
0.87,0.02,-0.45
0.87,0.02,-0.45
0.87,0.02,-0.45
0.87,0.02,-0.45
0.87,0.02,-0.45
0.87,0.02,-0.45
0.87,0.01,-0.46
0.88,0.01,-0.46
0.88,0.01,-0.46
0.88,0.01,-0.46
0.88,0.01,-0.45
0.88,0.01,-0.46
0.88,0.01,-0.46
0.88,0,-0.46
0.88,0.01,-0.46
0.88,0.01,-0.46
0.87,0.01,-0.46
0.87,0.01,-0.46
0.87,0.02,-0.45
0.87,0.02,-0.45
0.87,0.02,-0.45
0.87,0.02,-0.44
0.88,0.02,-0.45
0.88,0.02,-0.45
0.88,0.01,-0.45
0.88,0.01,-0.45
0.88,0.01,-0.45
0.88,0.01,-0.45
0.88,0.01,-0.45
0.88,0.01,-0.45
0.88,0.02,-0.44
0.88,0.02,-0.45
0.87,0.03,-0.45
0.87,0.03,-0.45
0.88,0.02,-0.45
0.88,0.02,-0.46
0.88,0.01,-0.46
0.88,0.01,-0.46
0.88,0.01,-0.45
0.88,0.01,-0.45
0.88,0.01,-0.45
0.88,0.02,-0.45
0.87,0.02,-0.45
0.88,0.02,-0.45
0.88,0.02,-0.45
0.88,0.02,-0.45
0.87,0.02,-0.45
0.87,0.01,-0.44
0.88,0.01,-0.44
0.88,0.02,-0.44
0.88,0.02,-0.45
0.88,0.01,-0.46
0.88,0.01,-0.46
0.88,0.01,-0.46
0.88,0.01,-0.46
0.88,0.01,-0.46
0.88,0.01,-0.45
0.88,0.01,-0.45
0.88,0.01,-0.45
0.87,0.01,-0.44
0.88,0.02,-0.44
0.88,0.02,-0.45
0.87,0.02,-0.45
0.88,0.02,-0.45
0.88,0.02,-0.45
0.88,0.02,-0.45
0.87,0.02,-0.45
0.87,0.02,-0.45
0.87,0.02,-0.45
0.87,0.02,-0.45
0.87,0.02,-0.45
0.88,0.02,-0.45
0.88,0.02,-0.45
0.88,0.01,-0.44
0.87,0.01,-0.44
0.88,0.01,-0.45
0.88,0.01,-0.45
0.88,0.01,-0.45
0.88,0.01,-0.45
0.88,0.01,-0.45
0.88,0.01,-0.45
0.88,0.01,-0.45
0.88,0.01,-0.45
0.88,0.01,-0.45
0.87,0.02,-0.45
0.87,0.02,-0.45
0.88,0.02,-0.45
0.88,0.02,-0.45
0.87,0.02,-0.45
0.87,0.02,-0.45
0.87,0.02,-0.45
0.87,0.02,-0.45
0.88,0.02,-0.45
0.88,0.02,-0.45
0.88,0.01,-0.45
0.88,0.01,-0.45
0.88,0.01,-0.45
0.88,0.01,-0.44
0.88,0.02,-0.45
0.88,0.02,-0.45
0.88,0.02,-0.45
0.88,0.02,-0.45
0.88,0.02,-0.45
0.88,0.02,-0.45
0.88,0.02,-0.45
0.88,0.02,-0.45
0.88,0.01,-0.45
0.88,0.01,-0.45
0.88,0.01,-0.44
0.87,0.02,-0.45
0.88,0.02,-0.45
0.88,0.01,-0.45
0.88,0.01,-0.45
0.88,0.01,-0.45
0.88,0,-0.45
0.88,0,-0.46
0.88,0,-0.46
0.88,0,-0.46
0.88,0,-0.46
0.88,0.01,-0.45
0.88,0.01,-0.45
0.88,0.01,-0.45
0.88,0.01,-0.45
0.88,0.01,-0.44
0.87,0.01,-0.44
0.87,0.02,-0.45
0.87,0.02,-0.45
0.88,0.02,-0.45
0.88,0.02,-0.45
0.88,0.01,-0.45
0.88,0.01,-0.45
0.88,0.01,-0.45
0.88,0,-0.46
0.88,0.01,-0.46
0.88,0.01,-0.45
0.88,0.01,-0.45
0.88,0.02,-0.45
0.88,0.02,-0.45
0.88,0.02,-0.45
0.88,0.02,-0.45
0.88,0.02,-0.45
0.88,0.01,-0.44
0.88,0.01,-0.44
0.88,0.01,-0.44
0.88,0.01,-0.44
0.87,0.01,-0.44
0.87,0.02,-0.44
0.88,0.02,-0.44
0.88,0.01,-0.45
0.88,0.01,-0.45
0.88,0.01,-0.45
0.88,0.01,-0.45
0.88,0.01,-0.45
0.88,0.01,-0.45
0.88,0.01,-0.45
0.88,0.01,-0.44
0.88,0.01,-0.44
0.88,0.01,-0.44
0.88,0.02,-0.44
0.88,0.02,-0.44
0.88,0.02,-0.45
0.88,0.02,-0.45
0.88,0.02,-0.45
0.87,0.02,-0.45
0.87,0.02,-0.44
0.87,0.02,-0.45
0.88,0.02,-0.45
0.88,0.01,-0.45
0.88,0.01,-0.45
0.88,0,-0.45
0.89,0,-0.45
0.88,0.01,-0.45
0.88,0.01,-0.45
0.88,0.02,-0.44
0.88,0.02,-0.44
0.88,0.01,-0.44
0.88,0.01,-0.44
0.88,0.01,-0.45
0.88,0.01,-0.45
0.88,0.01,-0.45
0.88,0.01,-0.45
0.88,0.01,-0.45
0.88,0.01,-0.45
0.88,0.01,-0.44
0.88,0.01,-0.44
0.88,0.01,-0.44
0.88,0.01,-0.44
0.88,0.01,-0.44
0.89,0.01,-0.45
0.88,0.01,-0.45
0.88,0.01,-0.45
0.88,0.01,-0.45
0.88,0.02,-0.45
0.88,0.01,-0.45
0.87,0.02,-0.45
0.88,0.02,-0.45
0.88,0.01,-0.45
0.88,0.01,-0.45
0.88,0.01,-0.45
0.88,0.01,-0.45
0.88,0.01,-0.46
0.88,0.01,-0.46
0.88,0.01,-0.46
0.88,0.01,-0.45
0.88,0.01,-0.45
0.88,0.01,-0.45
0.88,0.02,-0.45
0.88,0.02,-0.45
0.88,0.01,-0.45
0.88,0.01,-0.45
0.88,0.01,-0.45
0.88,0.01,-0.46
0.87,0.01,-0.45
0.88,0.02,-0.45
0.88,0.02,-0.44
0.88,0.02,-0.44
0.88,0.02,-0.44
0.88,0.01,-0.44
0.88,0.01,-0.44
0.88,0.01,-0.45
0.88,0.01,-0.45
0.88,0.01,-0.45
0.88,0.01,-0.45
0.88,0.01,-0.45
0.88,0.01,-0.45
0.88,0.02,-0.45
0.88,0.02,-0.45
0.88,0.01,-0.45
0.87,0.01,-0.45
0.87,0.01,-0.45
0.88,0.01,-0.45
0.88,0.01,-0.45
0.88,0.01,-0.45
0.88,0.01,-0.45
0.88,0.01,-0.45
0.88,0.01,-0.45
0.88,0.02,-0.45
0.87,0.02,-0.44
0.87,0.02,-0.44
0.88,0.02,-0.44
0.88,0.02,-0.45
0.88,0.02,-0.45
0.88,0.01,-0.45
0.88,0.01,-0.45
0.88,0.02,-0.45
0.88,0.02,-0.45
0.87,0.02,-0.44
0.88,0.02,-0.44
0.88,0.02,-0.44
0.88,0.02,-0.44
0.88,0.01,-0.44
0.88,0.01,-0.45
0.88,0,-0.45
0.88,0,-0.45
0.88,0,-0.45
0.88,0,-0.46
0.87,0,-0.46
0.87,0,-0.46
0.87,0,-0.47
0.87,0,-0.47
0.87,0,-0.47
0.87,0.01,-0.47
0.87,0.01,-0.46
0.87,0.01,-0.46
0.87,0.01,-0.45
0.87,0,-0.45
0.88,0,-0.45
0.88,0,-0.45
0.88,0,-0.45
0.88,0.01,-0.44
0.88,0.02,-0.44
0.89,0.02,-0.44
0.88,0.03,-0.44
0.88,0.03,-0.45
0.88,0.02,-0.45
0.88,0.03,-0.45
0.88,0.03,-0.45
0.88,0.02,-0.45
0.88,0.02,-0.44
0.88,0.02,-0.44
0.88,0.02,-0.44
0.87,0.02,-0.44
0.88,0.02,-0.44
0.87,0.01,-0.45
0.87,0.01,-0.45
0.88,0.01,-0.46
0.88,0,-0.46
0.88,0.01,-0.45
0.88,0.01,-0.45
0.88,0.01,-0.45
0.89,0.01,-0.45
0.88,0.01,-0.45
0.88,0.01,-0.44
0.88,0.02,-0.45
0.88,0.01,-0.45
0.88,0.01,-0.44
0.88,0.02,-0.44
0.88,0.01,-0.44
0.88,0.01,-0.44
0.88,0.02,-0.44
0.88,0.01,-0.44
0.88,0.01,-0.45
0.88,0.01,-0.45
0.88,0.01,-0.45
0.88,0.01,-0.45
0.88,0.01,-0.45
0.88,0.01,-0.44
0.88,0,-0.44
0.89,0,-0.45
0.88,0,-0.45
0.88,0,-0.45
0.88,0.01,-0.45
0.88,0.01,-0.45
0.87,0.01,-0.45
0.87,0.02,-0.44
0.88,0.02,-0.44
0.88,0.01,-0.44
0.88,0.02,-0.44
0.88,0.02,-0.43
0.88,0.01,-0.44
0.88,0.01,-0.44
0.88,0,-0.44
0.88,0,-0.44
0.88,0.01,-0.44
0.88,0.01,-0.44
0.88,0.01,-0.44
0.88,0.01,-0.44
0.88,0.01,-0.44
0.88,0.01,-0.44
0.88,0.01,-0.44
0.88,0.01,-0.44
0.88,0.01,-0.44
0.88,0.01,-0.44
0.88,0.01,-0.44
0.88,0,-0.44
0.88,0.01,-0.44
0.88,0.01,-0.44
0.88,0.01,-0.44
0.88,0.01,-0.44
0.88,0.01,-0.44
0.89,0.01,-0.44
0.89,0.01,-0.44
0.89,0.01,-0.44
0.88,0,-0.44
0.88,0,-0.44
0.88,0.01,-0.44
0.88,0.01,-0.43
0.88,0.01,-0.43
0.88,0.01,-0.43
0.89,0.02,-0.44
0.89,0.01,-0.45
0.88,0.01,-0.45
0.88,0,-0.45
0.88,0,-0.45
0.88,0.01,-0.45
0.88,0.01,-0.44
0.88,0.01,-0.44
0.88,0.01,-0.44
0.88,0.01,-0.44
0.88,0.01,-0.44
0.88,0.01,-0.44
0.88,0.01,-0.44
0.88,0,-0.44
0.88,0,-0.44
0.88,0,-0.44
0.89,0,-0.44
0.88,0,-0.44
0.88,0.01,-0.44
0.88,0.01,-0.44
0.88,0.01,-0.44
0.88,0.01,-0.44
0.88,0.01,-0.44
0.88,0.01,-0.44
0.88,0.01,-0.44
0.88,0.01,-0.44
0.88,0.01,-0.44
0.88,0.01,-0.44
0.88,0.01,-0.44
0.88,0.01,-0.44
0.88,0.01,-0.44
0.88,0.01,-0.44
0.88,0.01,-0.44
0.88,0.01,-0.44
0.88,0.01,-0.44
0.89,0.01,-0.43
0.89,0,-0.43
0.89,0,-0.43
0.89,0,-0.44
0.89,0,-0.44
0.89,0,-0.44
0.89,0,-0.44
0.89,0,-0.44
0.89,0.01,-0.43
0.89,0.01,-0.43
0.88,0.01,-0.43
0.88,0.01,-0.42
0.88,0.01,-0.42
0.89,0.01,-0.42
0.89,0,-0.43
0.89,0,-0.43
0.89,0,-0.44
0.89,0,-0.44
0.89,0.01,-0.44
0.89,0.01,-0.44
0.88,0.01,-0.44
0.88,0.01,-0.44
0.88,0.01,-0.44
0.88,0.01,-0.43
0.88,0.01,-0.43
0.89,0.01,-0.43
0.89,0.01,-0.43
0.88,0.01,-0.43
0.89,0.01,-0.43
0.89,0.01,-0.43
0.89,0.01,-0.43
0.89,0.01,-0.43
0.89,0.01,-0.43
0.89,0.01,-0.43
0.89,0.01,-0.43
0.89,0.01,-0.43
0.88,0.01,-0.43
0.88,0.01,-0.43
0.88,0.01,-0.43
0.89,0.01,-0.44
0.88,0.01,-0.44
0.88,0.01,-0.44
0.88,0.01,-0.44
0.88,0.01,-0.44
0.89,0.01,-0.44
0.88,0.01,-0.43
0.89,0.01,-0.43
0.89,0.01,-0.43
0.89,0.02,-0.43
0.89,0.02,-0.43
0.89,0.02,-0.43
0.9,0.02,-0.42
0.9,0.01,-0.43
0.9,-0.03,-0.43
0.9,-0.05,-0.44
0.91,-0.06,-0.44
0.92,-0.05,-0.44
0.92,-0.03,-0.43
0.91,-0.02,-0.43
0.91,0,-0.43
0.9,0.01,-0.43
0.9,0.02,-0.43
0.9,0.02,-0.44
0.9,0.02,-0.44
0.89,0.02,-0.44
0.89,0.02,-0.43
0.89,0.02,-0.43
0.89,0.02,-0.42
0.89,0.03,-0.42
0.89,0.05,-0.41
0.89,0.05,-0.41
0.89,0.06,-0.42
0.88,0.07,-0.42
0.88,0.06,-0.43
0.87,0.05,-0.45
0.86,0.04,-0.47
0.86,0.05,-0.47
0.86,0.06,-0.46
0.86,0.08,-0.46
0.85,0.1,-0.47
0.84,0.11,-0.47
0.83,0.1,-0.48
0.82,0.07,-0.48
0.82,0.07,-0.49
0.82,0.08,-0.49
0.82,0.08,-0.48
0.83,0.07,-0.47
0.84,0.05,-0.47
0.86,0.04,-0.48
0.88,0.04,-0.48
0.88,0.05,-0.47
0.89,0.06,-0.46
0.89,0.07,-0.45
0.88,0.07,-0.44
0.88,0.06,-0.43
0.89,0.06,-0.43
0.9,0.06,-0.42
0.9,0.06,-0.42
0.89,0.06,-0.42
0.89,0.06,-0.42
0.89,0.06,-0.42
0.89,0.06,-0.42
0.89,0.06,-0.42
0.87,0.06,-0.42
0.87,0.06,-0.42
0.87,0.06,-0.42
0.87,0.06,-0.42
0.87,0.06,-0.42
0.87,0.06,-0.42
0.87,0.06,-0.42
0.87,0.07,-0.44
0.87,0.07,-0.44
0.87,0.07,-0.44
0.87,0.07,-0.44
0.87,0.07,-0.44
0.87,0.07,-0.44
0.87,0.07,-0.44
0.87,0.07,-0.44
0.86,0.07,-0.47
0.86,0.07,-0.47
0.86,0.07,-0.47
0.86,0.07,-0.47
0.86,0.07,-0.47
0.86,0.07,-0.47
0.86,0.07,-0.47
0.86,0.07,-0.47
0.86,0.06,-0.48
0.86,0.06,-0.48
0.86,0.06,-0.48
0.86,0.06,-0.48
0.86,0.06,-0.48
0.86,0.06,-0.48
0.86,0.06,-0.48
0.86,0.05,-0.47
0.86,0.05,-0.47
0.86,0.05,-0.47
0.86,0.05,-0.47
0.86,0.05,-0.47
0.86,0.05,-0.47
0.86,0.05,-0.47
0.86,0.05,-0.47
0.88,0.05,-0.48
0.88,0.05,-0.48
0.88,0.05,-0.48
0.88,0.05,-0.48
0.88,0.05,-0.48
0.88,0.05,-0.48
0.88,0.05,-0.48
0.88,0.05,-0.48
0.88,0.07,-0.47
0.88,0.07,-0.47
0.88,0.07,-0.47
0.88,0.07,-0.47
0.88,0.07,-0.47
0.88,0.07,-0.47
0.88,0.07,-0.47
0.88,0.08,-0.45
0.88,0.08,-0.45
0.88,0.08,-0.45
0.88,0.08,-0.45
0.88,0.08,-0.45
0.88,0.08,-0.45
0.88,0.08,-0.45
0.88,0.08,-0.45
0.89,0.08,-0.42
0.89,0.08,-0.42
0.89,0.08,-0.42
0.89,0.08,-0.42
0.89,0.08,-0.42
0.89,0.08,-0.42
0.89,0.08,-0.42
0.89,0.08,-0.42
0.88,0.07,-0.43
0.88,0.07,-0.43
0.88,0.07,-0.43
0.88,0.07,-0.43
0.88,0.07,-0.43
0.88,0.07,-0.43
0.88,0.07,-0.43
0.88,0.07,-0.43
0.88,0.06,-0.44
0.88,0.06,-0.44
0.88,0.06,-0.44
0.88,0.06,-0.44
0.88,0.06,-0.44
0.88,0.06,-0.44
0.88,0.06,-0.44
0.88,0.07,-0.45
0.88,0.07,-0.45
0.88,0.07,-0.45
0.88,0.07,-0.45
0.88,0.07,-0.45
0.88,0.07,-0.45
0.88,0.07,-0.45
0.88,0.07,-0.45
0.87,0.07,-0.45
0.87,0.07,-0.45
0.87,0.07,-0.45
0.87,0.07,-0.45
0.87,0.07,-0.45
0.87,0.07,-0.45
0.87,0.07,-0.45
0.87,0.07,-0.45
0.87,0.06,-0.45
0.87,0.06,-0.45
0.87,0.06,-0.45
0.87,0.06,-0.45
0.87,0.06,-0.45
0.87,0.06,-0.45
0.87,0.06,-0.45
0.88,0.07,-0.45
0.88,0.07,-0.45
0.88,0.07,-0.45
0.88,0.07,-0.45
0.88,0.07,-0.45
0.88,0.07,-0.45
0.88,0.07,-0.45
0.88,0.07,-0.45
0.88,0.07,-0.44
0.88,0.07,-0.44
0.88,0.07,-0.44
0.88,0.07,-0.44
0.88,0.07,-0.44
0.88,0.07,-0.44
0.88,0.07,-0.44
0.88,0.07,-0.44
0.88,0.06,-0.44
0.88,0.06,-0.44
0.88,0.06,-0.44
0.88,0.06,-0.44
0.88,0.06,-0.44
0.88,0.06,-0.44
0.88,0.06,-0.44
0.88,0.07,-0.44
0.88,0.07,-0.44
0.88,0.07,-0.44
0.88,0.07,-0.44
0.88,0.07,-0.44
0.88,0.07,-0.44
0.88,0.07,-0.44
0.88,0.07,-0.44
0.88,0.07,-0.45
0.88,0.07,-0.45
0.88,0.07,-0.45
0.88,0.07,-0.45
0.88,0.07,-0.45
0.88,0.07,-0.45
0.88,0.07,-0.45
0.88,0.07,-0.45
0.89,0.06,-0.45
0.89,0.06,-0.45
0.89,0.06,-0.45
0.89,0.06,-0.45
0.89,0.06,-0.45
0.89,0.06,-0.45
0.89,0.06,-0.45
0.88,0.07,-0.45
0.88,0.07,-0.45
0.88,0.07,-0.45
0.88,0.07,-0.45
0.88,0.07,-0.45
0.88,0.07,-0.45
0.88,0.07,-0.45
0.88,0.07,-0.45
0.87,0.08,-0.45
0.87,0.08,-0.45
0.87,0.08,-0.45
0.87,0.08,-0.45
0.87,0.08,-0.45
0.87,0.08,-0.45
0.87,0.08,-0.45
0.87,0.08,-0.45
0.88,0.07,-0.44
0.88,0.07,-0.44
0.88,0.07,-0.44
0.88,0.07,-0.44
0.88,0.07,-0.44
0.88,0.07,-0.44
0.88,0.07,-0.44
0.88,0.07,-0.44
0.88,0.07,-0.44
0.88,0.07,-0.44
0.88,0.07,-0.44
0.88,0.07,-0.44
0.88,0.07,-0.44
0.88,0.07,-0.44
0.88,0.07,-0.44
0.88,0.07,-0.44
0.88,0.07,-0.44
0.88,0.07,-0.44
0.88,0.07,-0.44
0.88,0.07,-0.44
0.88,0.07,-0.44
0.88,0.07,-0.44
0.88,0.07,-0.44
0.88,0.06,-0.44
0.88,0.06,-0.44
0.88,0.06,-0.44
0.88,0.06,-0.44
0.88,0.06,-0.44
0.88,0.06,-0.44
0.88,0.06,-0.44
0.88,0.06,-0.44
0.88,0.07,-0.44
0.88,0.07,-0.44
0.88,0.07,-0.44
0.88,0.07,-0.44
0.88,0.07,-0.44
0.88,0.07,-0.44
0.88,0.07,-0.44
0.88,0.07,-0.45
0.88,0.07,-0.45
0.88,0.07,-0.45
0.88,0.07,-0.45
0.88,0.07,-0.45
0.88,0.07,-0.45
0.88,0.07,-0.45
0.88,0.07,-0.45
0.88,0.07,-0.45
0.88,0.07,-0.45
0.88,0.07,-0.45
0.88,0.07,-0.45
0.88,0.07,-0.45
0.88,0.07,-0.45
0.88,0.07,-0.45
0.88,0.07,-0.45
0.88,0.07,-0.44
0.88,0.07,-0.44
0.88,0.07,-0.44
0.88,0.07,-0.44
0.88,0.07,-0.44
0.88,0.07,-0.44
0.88,0.07,-0.44
0.87,0.13,-0.39
0.87,0.19,-0.36
0.87,0.15,-0.37
0.88,0.11,-0.42
0.89,0.07,-0.48
0.88,0.03,-0.53
0.88,0,-0.57
0.88,-0.02,-0.59
0.87,-0.01,-0.58
0.87,0.02,-0.54
0.87,0.05,-0.48
0.87,0.09,-0.44
0.87,0.1,-0.4
0.87,0.11,-0.38
0.87,0.11,-0.36
0.87,0.11,-0.35
0.87,0.1,-0.33
0.88,0.1,-0.34
0.9,0.09,-0.36
0.9,0.08,-0.39
0.91,0.07,-0.44
0.91,0.07,-0.47
0.9,0.08,-0.48
0.89,0.08,-0.47
0.88,0.09,-0.46
0.89,0.08,-0.45
0.88,0.08,-0.43
0.88,0.09,-0.42
0.88,0.09,-0.42
0.87,0.07,-0.43
0.88,0.06,-0.44
0.88,0.06,-0.44
0.88,0.06,-0.44
0.88,0.07,-0.44
0.88,0.08,-0.43
0.88,0.09,-0.43
0.88,0.09,-0.43
0.89,0.08,-0.42
0.89,0.08,-0.42
0.89,0.08,-0.42
0.89,0.07,-0.42
0.89,0.08,-0.41
0.89,0.08,-0.41
0.89,0.09,-0.42
0.88,0.09,-0.43
0.88,0.08,-0.43
0.88,0.08,-0.44
0.88,0.08,-0.45
0.88,0.08,-0.45
0.88,0.08,-0.44
0.88,0.08,-0.44
0.87,0.07,-0.44
0.88,0.07,-0.44
0.88,0.07,-0.44
0.88,0.07,-0.44
0.88,0.07,-0.44
0.88,0.07,-0.43
0.87,0.08,-0.43
0.87,0.09,-0.42
0.88,0.09,-0.42
0.88,0.08,-0.43
0.88,0.08,-0.43
0.88,0.08,-0.44
0.88,0.08,-0.44
0.88,0.08,-0.45
0.88,0.08,-0.45
0.89,0.07,-0.45
0.89,0.07,-0.45
0.89,0.06,-0.45
0.89,0.06,-0.45
0.89,0.07,-0.44
0.89,0.07,-0.44
0.89,0.08,-0.44
0.88,0.08,-0.44
0.87,0.08,-0.43
0.87,0.09,-0.43
0.87,0.09,-0.44
0.88,0.08,-0.44
0.88,0.07,-0.45
0.88,0.07,-0.44
0.88,0.07,-0.44
0.89,0.08,-0.43
0.88,0.09,-0.43
0.88,0.09,-0.43
0.88,0.09,-0.43
0.88,0.08,-0.43
0.88,0.08,-0.43
0.88,0.08,-0.43
0.88,0.08,-0.43
0.87,0.08,-0.43
0.88,0.09,-0.43
0.89,0.09,-0.43
0.89,0.09,-0.43
0.89,0.09,-0.43
0.89,0.08,-0.43
0.89,0.08,-0.43
0.89,0.08,-0.42
0.89,0.08,-0.42
0.89,0.08,-0.42
0.89,0.08,-0.42
0.89,0.09,-0.42
0.89,0.09,-0.43
0.89,0.09,-0.44
0.88,0.09,-0.43
0.88,0.09,-0.43
0.88,0.09,-0.42
0.88,0.09,-0.42
0.88,0.09,-0.42
0.89,0.09,-0.42
0.88,0.08,-0.42
0.88,0.08,-0.42
0.88,0.08,-0.42
0.88,0.09,-0.43
0.88,0.09,-0.43
0.88,0.09,-0.43
0.89,0.08,-0.43
0.89,0.08,-0.42
0.89,0.09,-0.42
0.89,0.09,-0.42
0.88,0.09,-0.42
0.89,0.09,-0.42
0.89,0.09,-0.43
0.89,0.09,-0.43
0.89,0.09,-0.43
0.89,0.09,-0.43
0.89,0.08,-0.42
0.88,0.08,-0.42
0.88,0.09,-0.42
0.88,0.09,-0.42
0.88,0.09,-0.42
0.89,0.09,-0.42
0.89,0.08,-0.43
0.89,0.08,-0.43
0.89,0.09,-0.43
0.88,0.1,-0.43
0.88,0.1,-0.43
0.89,0.1,-0.42
0.89,0.09,-0.42
0.89,0.08,-0.42
0.89,0.08,-0.42
0.89,0.08,-0.42
0.89,0.09,-0.42
0.89,0.09,-0.42
0.88,0.09,-0.42
0.88,0.08,-0.43
0.88,0.08,-0.43
0.88,0.08,-0.43
0.88,0.08,-0.44
0.88,0.09,-0.43
0.88,0.08,-0.43
0.88,0.08,-0.43
0.89,0.08,-0.43
0.89,0.08,-0.43
0.89,0.07,-0.43
0.89,0.07,-0.44
0.89,0.08,-0.43
0.89,0.09,-0.42
0.89,0.09,-0.42
0.89,0.1,-0.41
0.89,0.09,-0.41
0.89,0.09,-0.41
0.89,0.09,-0.41
0.89,0.09,-0.41
0.89,0.09,-0.42
0.89,0.09,-0.42
0.89,0.09,-0.42
0.88,0.09,-0.42
0.88,0.09,-0.43
0.89,0.09,-0.43
0.89,0.09,-0.43
0.88,0.09,-0.43
0.88,0.1,-0.43
0.88,0.1,-0.42
0.88,0.09,-0.42
0.89,0.07,-0.41
0.9,0.07,-0.41
0.89,0.07,-0.41
0.89,0.07,-0.41
0.89,0.08,-0.42
0.89,0.09,-0.42
0.89,0.09,-0.42
0.88,0.08,-0.42
0.89,0.08,-0.43
0.89,0.09,-0.43
0.88,0.09,-0.42
0.88,0.09,-0.42
0.88,0.1,-0.42
0.88,0.09,-0.42
0.88,0.08,-0.43
0.89,0.07,-0.43
0.89,0.06,-0.43
0.89,0.07,-0.44
0.88,0.08,-0.44
0.88,0.09,-0.43
0.88,0.09,-0.42
0.88,0.09,-0.41
0.89,0.09,-0.41
0.89,0.09,-0.41
0.89,0.09,-0.41
0.89,0.09,-0.41
0.89,0.09,-0.41
0.89,0.09,-0.42
0.89,0.08,-0.43
0.89,0.08,-0.43
0.88,0.08,-0.43
0.89,0.08,-0.43
0.89,0.08,-0.43
0.89,0.09,-0.43
0.88,0.09,-0.43
0.88,0.09,-0.43
0.88,0.1,-0.43
0.88,0.09,-0.43
0.89,0.08,-0.43
0.88,0.08,-0.44
0.88,0.08,-0.44
0.88,0.09,-0.43
0.87,0.08,-0.43
0.16,0.79,0.28
0.2,0.8,0.3
0.21,0.83,0.37
0.26,0.86,0.44
0.33,0.88,0.43
0.28,0.89,0.37
0.26,0.92,0.27
0.15,0.91,0.19
0.01,0.89,0.1
-0.02,0.9,0.05
-0.12,0.87,0.11
-0.33,0.85,0.11
-0.02,0.9,-0.09
0.1,0.87,0.02
0.23,0.95,0.15
0.69,1.16,0.14
0.73,1.21,0.25
0.75,1.25,0.19
0.75,1.26,0.13
0.59,1.21,-0.06
0.58,1.22,-0.19
0.47,1.21,-0.27
0.43,1.16,-0.31
0.36,1.14,-0.36
0.24,1.15,-0.38
-0.07,1.13,-0.31
-0.29,1.06,-0.33
-0.23,1.02,-0.45
-0.15,1,-0.51
-0.1,0.95,-0.52
-0.02,0.92,-0.48
0.05,0.93,-0.35
0.18,0.93,-0.16
0.36,0.9,0.05
0.5,0.89,0.29
0.62,0.9,0.52
0.75,0.88,0.71
0.85,0.89,0.89
0.91,0.92,1.03
0.94,0.94,1.07
0.7,0.95,0.82
0.33,1.01,0.4
-0.01,1.05,0.11
-0.33,1.07,0.03
-0.39,1.09,0.08
-0.25,1.08,0.19
-0.04,1.03,0.26
0.08,0.98,0.26
0.06,0.94,0.2
-0.06,0.94,0.18
-0.08,0.97,0.18
-0.08,0.99,0.18
-0.08,0.99,0.2
-0.07,0.99,0.2
-0.06,0.99,0.2
-0.06,0.98,0.21
-0.07,0.98,0.21
-0.06,0.97,0.21
-0.06,0.97,0.21
-0.06,0.96,0.22
-0.06,0.96,0.22
-0.05,0.96,0.22
-0.05,0.96,0.23
-0.05,0.96,0.23
-0.05,0.96,0.23
-0.05,0.96,0.23
-0.06,0.96,0.24
-0.06,0.96,0.24
-0.07,0.96,0.23
-0.07,0.96,0.23
-0.07,0.96,0.23
-0.07,0.96,0.23
-0.08,0.96,0.23
-0.07,0.96,0.23
-0.07,0.96,0.23
-0.07,0.96,0.23
-0.08,0.96,0.22
-0.09,0.96,0.22
-0.09,0.96,0.22
-0.09,0.96,0.22
-0.09,0.96,0.22
-0.09,0.96,0.21
-0.09,0.96,0.21
-0.1,0.97,0.21
-0.1,0.96,0.21
-0.1,0.95,0.21
-0.1,0.96,0.21
-0.1,0.97,0.21
-0.1,0.97,0.21
-0.11,0.96,0.21
-0.11,0.96,0.2
-0.11,0.96,0.21
-0.12,0.96,0.21
-0.12,0.95,0.2
-0.12,0.95,0.2
-0.13,0.95,0.21
-0.13,0.96,0.21
-0.13,0.96,0.2
-0.12,0.96,0.21
-0.12,0.96,0.22
-0.12,0.96,0.22
-0.13,0.95,0.22
-0.15,0.95,0.22
-0.16,0.95,0.23
-0.15,0.94,0.22
-0.14,0.95,0.22
-0.14,0.97,0.21
-0.13,0.97,0.19
-0.13,0.97,0.2
-0.13,0.97,0.19
-0.12,0.96,0.18
-0.13,0.96,0.19
-0.14,0.97,0.2
-0.15,0.96,0.21
-0.17,0.95,0.21
-0.17,0.94,0.22
-0.16,0.94,0.21
-0.16,0.94,0.21
-0.15,0.94,0.23
-0.15,0.94,0.25
-0.16,0.93,0.26
-0.17,0.92,0.26
-0.17,0.93,0.26
-0.18,0.94,0.27
-0.18,0.94,0.27
-0.2,0.92,0.27
-0.21,0.92,0.27
-0.21,0.92,0.25
-0.18,0.93,0.24
-0.18,0.94,0.25
-0.19,0.96,0.27
-0.19,0.96,0.27
-0.23,0.95,0.27
-0.25,0.95,0.26
-0.26,0.92,0.22
-0.22,0.93,0.21
-0.21,0.94,0.21
-0.23,0.96,0.22
-0.23,0.97,0.21
-0.24,0.97,0.21
-0.24,0.96,0.2
-0.25,0.94,0.21
-0.25,0.94,0.23
-0.23,0.93,0.23
-0.24,0.94,0.24
-0.24,0.96,0.24
-0.25,0.94,0.23
-0.24,0.92,0.23
-0.22,0.92,0.23
-0.24,0.92,0.25
-0.26,0.94,0.27
-0.24,0.93,0.26
-0.23,0.93,0.25
-0.23,0.94,0.25
-0.23,0.92,0.24
-0.24,0.9,0.25
-0.25,0.9,0.27
-0.23,0.91,0.27
-0.23,0.92,0.28
-0.25,0.92,0.3
-0.29,0.91,0.3
-0.3,0.91,0.28
-0.28,0.9,0.29
-0.25,0.91,0.29
-0.26,0.91,0.31
-0.26,0.91,0.32
-0.27,0.91,0.32
-0.28,0.92,0.3
-0.28,0.91,0.27
-0.27,0.91,0.27
-0.26,0.9,0.27
-0.24,0.9,0.28
-0.25,0.93,0.31
-0.28,0.93,0.33
-0.29,0.9,0.33
-0.28,0.9,0.3
-0.25,0.89,0.27
-0.27,0.9,0.25
-0.28,0.91,0.27
-0.25,0.9,0.31
-0.23,0.92,0.32
-0.24,0.93,0.32
-0.25,0.91,0.31
-0.27,0.92,0.29
-0.31,0.9,0.27
-0.33,0.9,0.28
-0.29,0.91,0.31
-0.25,0.91,0.33
-0.24,0.92,0.32
-0.22,0.91,0.29
-0.24,0.9,0.28
-0.28,0.91,0.3
-0.27,0.89,0.32
-0.24,0.91,0.32
-0.22,0.92,0.31
-0.23,0.92,0.31
-0.23,0.92,0.31
-0.23,0.93,0.31
-0.24,0.91,0.3
-0.24,0.92,0.29
-0.24,0.92,0.3
-0.25,0.92,0.3
-0.19,0.91,0.29
-0.19,0.91,0.3
-0.25,0.94,0.32
-0.22,0.92,0.31
-0.19,0.92,0.32
-0.16,0.95,0.31
-0.15,0.91,0.29
-0.18,0.92,0.29
-0.18,0.92,0.28
-0.2,0.92,0.28
-0.1,0.96,0.31
-0.12,0.96,0.31
-0.09,0.95,0.28
-0.06,0.94,0.24
-0.04,0.95,0.23
-0.02,0.96,0.24
-0.06,0.96,0.25
-0.05,0.96,0.22
-0.04,0.95,0.22
-0.11,0.97,0.27
-0.09,0.99,0.27
-0.05,0.96,0.25
-0.03,0.93,0.24
-0.01,0.93,0.22
-0.06,0.94,0.24
-0.1,0.97,0.27
-0.06,0.97,0.27
-0.02,0.98,0.24
0,0.97,0.22
0,0.94,0.23
-0.01,0.93,0.24
-0.05,0.95,0.25
-0.08,0.97,0.26
-0.04,0.98,0.25
0,0.97,0.24
-0.02,0.97,0.24
-0.04,0.97,0.24
-0.02,0.96,0.24
0.01,0.95,0.22
0.02,0.95,0.22
0,0.97,0.23
0,0.97,0.23
-0.03,0.95,0.23
-0.05,0.96,0.24
-0.01,0.97,0.25
0,0.96,0.24
-0.01,0.95,0.23
0.01,0.95,0.22
0.02,0.96,0.22
-0.02,0.96,0.24
-0.04,0.97,0.25
-0.02,0.97,0.24
0,0.96,0.24
0.01,0.96,0.25
0.02,0.96,0.26
0.01,0.94,0.24
-0.01,0.95,0.25
0,0.96,0.26
-0.03,0.97,0.27
-0.02,0.98,0.25
0,0.97,0.25
-0.03,0.96,0.26
-0.02,0.96,0.26
-0.01,0.96,0.27
-0.02,0.95,0.27
-0.03,0.94,0.28
-0.02,0.94,0.27
-0.01,0.94,0.26
-0.02,0.95,0.26
-0.03,0.95,0.27
-0.05,0.94,0.3
-0.06,0.95,0.31
-0.06,0.96,0.3
-0.04,0.96,0.29
-0.03,0.95,0.29
-0.04,0.95,0.31
-0.08,0.93,0.33
-0.11,0.91,0.34
-0.12,0.91,0.34
-0.08,0.93,0.34
-0.06,0.93,0.34
-0.05,0.92,0.34
-0.04,0.92,0.34
-0.07,0.92,0.38
-0.12,0.91,0.4
-0.11,0.9,0.39
-0.09,0.91,0.34
-0.11,0.93,0.32
-0.17,0.93,0.35
-0.18,0.9,0.4
-0.17,0.87,0.46
-0.16,0.88,0.48
-0.13,0.88,0.48
-0.13,0.87,0.48
-0.12,0.85,0.45
-0.13,0.85,0.42
-0.16,0.85,0.42
-0.15,0.86,0.45
-0.16,0.86,0.47
-0.14,0.87,0.46
-0.15,0.87,0.49
-0.19,0.86,0.52
-0.18,0.87,0.49
-0.2,0.86,0.41
-0.26,0.83,0.38
-0.3,0.82,0.44
-0.33,0.82,0.5
-0.29,0.82,0.55
-0.26,0.81,0.59
-0.23,0.8,0.59
-0.19,0.79,0.54
-0.18,0.78,0.52
-0.22,0.77,0.54
-0.26,0.76,0.57
-0.28,0.76,0.6
-0.3,0.78,0.63
-0.29,0.79,0.64
-0.26,0.78,0.62
-0.25,0.77,0.59
-0.27,0.77,0.58
-0.3,0.77,0.56
-0.31,0.77,0.57
-0.31,0.77,0.63
-0.33,0.75,0.68
-0.31,0.77,0.68
-0.24,0.8,0.66
-0.21,0.79,0.63
-0.25,0.77,0.62
-0.32,0.76,0.67
-0.34,0.78,0.72
-0.29,0.82,0.73
-0.22,0.85,0.7
-0.16,0.86,0.68
-0.12,0.85,0.59
-0.11,0.84,0.49
-0.11,0.85,0.41
-0.08,0.86,0.37
0.02,0.91,0.36
0.12,0.91,0.4
0.11,0.81,0.32
0.13,0.74,0.29
0.21,0.82,0.41
0.19,0.8,0.63
0.03,0.83,0.72
0.07,0.81,0.73
0.06,0.82,0.67
0.02,0.8,0.59
0.03,0.81,0.52
0.05,0.86,0.5
0.06,0.9,0.46
0.07,0.94,0.41
0.07,0.98,0.37
0.05,1.01,0.36
0.02,1.02,0.38
0,1.02,0.39
-0.04,1.02,0.42
-0.1,1.03,0.48
-0.09,1.05,0.5
-0.07,1.09,0.56
-0.09,1.13,0.65
-0.09,1.13,0.72
-0.09,1.09,0.77
-0.11,1.04,0.81
-0.13,0.99,0.81
-0.13,0.97,0.76
-0.13,0.97,0.67
-0.08,0.98,0.54
-0.01,1,0.42
-0.01,1.01,0.33
-0.05,1.04,0.15
-0.13,1,0.07
-0.14,0.98,0.03
-0.19,0.99,0.04
-0.28,1,0.14
-0.3,1,0.25
-0.31,0.98,0.31
-0.35,0.97,0.35
-0.4,0.96,0.36
-0.46,0.96,0.4
-0.51,0.96,0.46
-0.53,0.93,0.52
-0.55,0.87,0.53
-0.58,0.79,0.51
-0.55,0.69,0.48
-0.46,0.58,0.47
-0.34,0.47,0.46
-0.24,0.34,0.57
-0.16,0.22,0.7
-0.22,0.18,0.83
-0.42,0.26,1.15
-0.49,0.37,1.54
-0.48,0.48,1.79
-0.55,0.51,1.94
-0.57,0.45,2.11
-0.48,0.32,1.72
-0.21,0.52,0.42
-0.06,0.89,-0.38
0.05,1.08,-0.02
0.2,1.36,0.66
-0.1,1.3,0.44
-0.09,1.17,0.21
-0.04,1.08,0.17
-0.04,1.03,0.22
-0.14,1.02,0.31
-0.31,1.06,0.38
-0.37,1.1,0.34
-0.41,1.09,0.26
-0.41,1.04,0.23
-0.36,1.01,0.25
-0.33,1,0.3
-0.27,1.04,0.32
-0.18,1.12,0.33
-0.13,1.2,0.4
-0.16,1.23,0.43
-0.04,1.27,0.37
0.11,1.27,0.35
0.08,1.22,0.31
0.06,1.21,0.21
-0.01,1.22,-0.16
0.09,1.26,-0.39
0.28,1.29,-0.4
0.38,1.32,-0.59
0.47,1.36,-0.76
0.44,1.33,-0.91
0.42,1.34,-1.04
0.38,1.37,-1.21
0.28,1.42,-1.3
-0.09,1.62,-1.26
-0.14,1.67,-1.14
-0.13,1.7,-0.87
-0.12,1.69,-0.66
-0.08,1.68,-0.55
-0.04,1.69,-0.53
-0.02,1.7,-0.52
-0.02,1.69,-0.47
-0.04,1.66,-0.37
-0.09,1.59,-0.23
-0.15,1.49,-0.11
-0.23,1.36,-0.04
-0.29,1.24,-0.02
-0.33,1.14,0.01
-0.37,1.09,0.07
-0.33,1.05,0.12
-0.24,1,0.14
-0.19,0.99,0.16
-0.15,1.01,0.18
-0.11,1.04,0.2
-0.08,1.07,0.23
-0.08,1.12,0.24
-0.05,1.18,0.25
-0.01,1.23,0.28
-0.03,1.25,0.33
-0.08,1.24,0.34
-0.09,1.24,0.33
-0.02,1.24,0.31
0.07,1.24,0.25
0.27,1.23,0.18
0.4,1.19,0.09
0.47,1.14,0.04
0.45,1.1,0.02
0.37,1.07,-0.01
0.31,1.04,-0.04
0.25,1.01,-0.09
0.22,1,-0.14
0.23,0.97,-0.22
0.27,0.94,-0.31
0.32,0.91,-0.42
0.33,0.86,-0.48
0.26,0.83,-0.49
0.22,0.81,-0.5
0.18,0.77,-0.51
0.11,0.74,-0.49
0.06,0.73,-0.49
0.02,0.73,-0.5
0.02,0.74,-0.54
0.07,0.73,-0.62
0.12,0.7,-0.68
0.11,0.67,-0.69
0.08,0.64,-0.66
0.05,0.6,-0.62
0.01,0.6,-0.56
-0.02,0.61,-0.54
-0.03,0.62,-0.54
-0.02,0.63,-0.54
-0.02,0.67,-0.57
0,0.67,-0.58
-0.01,0.65,-0.56
-0.04,0.64,-0.5
-0.04,0.63,-0.44
-0.05,0.62,-0.4
-0.06,0.63,-0.37
-0.05,0.63,-0.36
-0.03,0.62,-0.35
-0.02,0.61,-0.34
-0.02,0.61,-0.32
-0.01,0.62,-0.3
0.01,0.63,-0.29
0.02,0.65,-0.27
0.02,0.66,-0.24
0.03,0.66,-0.22
0.05,0.65,-0.18
0.05,0.63,-0.14
0.05,0.63,-0.11
0.06,0.63,-0.1
0.08,0.65,-0.11
0.1,0.68,-0.12
0.12,0.71,-0.13
0.14,0.72,-0.14
0.17,0.71,-0.15
0.21,0.7,-0.15
0.21,0.69,-0.12
0.22,0.67,-0.1
0.23,0.66,-0.04
0.19,0.69,-0.01
0.18,0.72,0.02
0.17,0.76,0.06
0.16,0.8,0.09
0.18,0.85,0.1
0.2,0.89,0.1
0.21,0.93,0.1
0.21,0.95,0.11
0.21,0.97,0.1
0.22,0.99,0.09
0.21,1.01,0.09
0.19,1.04,0.1
0.18,1.06,0.1
0.16,1.06,0.09
0.15,1.06,0.08
0.11,1.05,0.08
0.08,1.04,0.07
0.09,1.04,0.06
0.09,1.06,0.08
0.06,1.08,0.09
0.03,1.12,0.09
-0.01,1.14,0.09
-0.04,1.17,0.08
-0.09,1.2,0.06
-0.13,1.22,0.04
-0.16,1.25,0.02
-0.19,1.26,0
-0.22,1.26,-0.01
-0.24,1.22,0.01
-0.29,1.2,0.03
-0.31,1.18,0.05
-0.32,1.17,0.06
-0.32,1.17,0.08
-0.33,1.16,0.09
-0.36,1.14,0.09
-0.36,1.12,0.08
-0.36,1.11,0.07
-0.37,1.1,0.06
-0.36,1.09,0.06
-0.34,1.08,0.05
-0.32,1.07,0.04
-0.31,1.07,0.03
-0.3,1.06,0.02
-0.29,1.05,0.02
-0.27,1.05,0.01
-0.26,1.04,0.01
-0.24,1.04,0
-0.23,1.02,0
-0.23,1.01,0
-0.22,0.99,0
-0.22,0.98,0
-0.22,0.96,0
-0.22,0.95,0.01
-0.22,0.92,0.02
-0.22,0.9,0.03
-0.21,0.88,0.04
-0.19,0.87,0.06
-0.18,0.87,0.08
-0.18,0.87,0.1
-0.16,0.88,0.12
-0.15,0.91,0.13
-0.12,0.93,0.13
-0.08,0.92,0.1
-0.04,0.9,0.08
-0.02,0.89,0.06
-0.03,0.89,0.06
-0.04,0.9,0.06
-0.06,0.91,0.08
-0.08,0.94,0.12
-0.09,1.01,0.14
-0.08,1.09,0.13
-0.06,1.16,0.09
-0.05,1.22,0.03
-0.04,1.26,-0.02
-0.05,1.27,-0.05
-0.06,1.22,-0.06
-0.09,1.16,-0.05
-0.14,1.13,-0.01
-0.16,1.12,0.03
-0.17,1.11,0.06
-0.18,1.09,0.07
-0.19,1.05,0.06
-0.18,1.03,0.03
-0.18,1.02,0
-0.2,1.04,-0.02
-0.21,1.11,-0.03
-0.24,1.26,-0.04
-0.25,1.3,-0.05
-0.26,1.31,-0.06
-0.27,1.29,-0.07
-0.29,1.25,-0.08
-0.31,1.18,-0.08
-0.34,1.1,-0.06
-0.35,1.03,-0.04
-0.35,0.97,-0.02
-0.36,0.92,0
-0.36,0.88,0.03
-0.37,0.86,0.04
-0.37,0.83,0.05
-0.37,0.82,0.05
-0.37,0.82,0.04
-0.37,0.84,0.03
-0.38,0.87,0.03
-0.38,0.92,0.03
-0.38,0.97,0.03
-0.38,0.99,0.04
-0.38,1,0.08
-0.39,0.99,0.13
-0.4,0.97,0.18
-0.42,0.95,0.22
-0.43,0.93,0.27
-0.43,0.91,0.28
-0.44,0.92,0.28
-0.45,0.94,0.29
-0.48,0.94,0.3
-0.51,0.94,0.32
-0.52,0.94,0.33
-0.52,0.95,0.33
-0.52,0.96,0.34
-0.51,0.99,0.34
-0.51,1,0.34
-0.51,1.01,0.33
-0.51,1.03,0.32
-0.52,1.08,0.31
-0.53,1.16,0.3
-0.52,1.22,0.27
-0.51,1.23,0.26
-0.51,1.22,0.26
-0.52,1.24,0.26
-0.51,1.25,0.26
-0.49,1.24,0.26
-0.48,1.2,0.25
-0.46,1.12,0.25
-0.44,1.02,0.25
-0.43,0.93,0.25
-0.42,0.85,0.26
-0.43,0.81,0.25
-0.43,0.82,0.24
-0.43,0.86,0.23
-0.42,0.92,0.21
-0.42,0.96,0.19
-0.42,1,0.16
-0.42,1.04,0.11
-0.39,1.13,0.09
-0.37,1.16,0.08
-0.35,1.18,0.08
-0.34,1.2,0.08
-0.33,1.2,0.08
-0.31,1.2,0.07
-0.29,1.19,0.07
-0.28,1.17,0.07
-0.28,1.15,0.08
-0.27,1.12,0.08
-0.27,1.1,0.09
-0.27,1.09,0.08
-0.27,1.09,0.08
-0.26,1.09,0.07
-0.26,1.09,0.07
-0.25,1.1,0.06
-0.24,1.1,0.06
-0.24,1.09,0.06
-0.24,1.09,0.06
-0.24,1.08,0.05
-0.23,1.07,0.05
-0.23,1.06,0.06
-0.22,1.04,0.06
-0.22,1.01,0.07
-0.21,0.98,0.08
-0.2,0.95,0.1
-0.2,0.92,0.12
-0.2,0.89,0.14
-0.19,0.85,0.14
-0.13,0.83,0.14
-0.1,0.82,0.14
-0.07,0.82,0.14
-0.06,0.82,0.14
-0.06,0.83,0.14
-0.06,0.86,0.15
-0.07,0.91,0.16
-0.06,0.98,0.16
-0.06,1.06,0.14
-0.06,1.14,0.11
-0.06,1.21,0.07
-0.05,1.24,0.04
-0.06,1.26,0.02
-0.07,1.26,0.01
-0.09,1.25,0.02
-0.11,1.21,0.03
-0.14,1.15,0.06
-0.18,1.09,0.1
-0.22,1.03,0.15
-0.25,0.97,0.18
-0.26,0.92,0.2
-0.29,0.88,0.21
-0.3,0.87,0.22
-0.31,0.9,0.23
-0.31,0.97,0.2
-0.31,1.05,0.17
-0.29,1.11,0.12
-0.26,1.16,0.02
-0.23,1.22,-0.01
-0.23,1.23,-0.04
-0.25,1.24,-0.06
-0.27,1.22,-0.05
-0.29,1.19,-0.04
-0.31,1.16,-0.02
-0.34,1.13,0.01
-0.36,1.09,0.03
-0.37,1.05,0.04
-0.39,1.01,0.04
-0.4,0.97,0.04
-0.41,0.93,0.04
-0.41,0.9,0.03
-0.41,0.88,0.04
-0.41,0.87,0.05
-0.42,0.87,0.07
-0.43,0.87,0.1
-0.42,0.88,0.12
-0.42,0.9,0.15
-0.42,0.91,0.18
-0.43,0.93,0.19
-0.43,0.95,0.18
-0.43,0.97,0.16
-0.45,1,0.16
-0.47,1.02,0.16
-0.49,1.02,0.16
-0.5,1.02,0.17
-0.53,1.02,0.19
-0.55,1.02,0.2
-0.57,0.99,0.2
-0.58,0.94,0.21
-0.6,0.91,0.21
-0.61,0.92,0.2
-0.62,0.98,0.18
-0.63,1.08,0.15
-0.64,1.19,0.12
-0.64,1.32,0.09
-0.64,1.47,0.06
-0.61,1.55,0.02
-0.56,1.54,0
-0.52,1.45,0.01
-0.48,1.32,0.03
-0.46,1.17,0.07
-0.44,1.05,0.1
-0.43,0.93,0.13
-0.42,0.84,0.15
-0.41,0.77,0.18
-0.42,0.73,0.2
-0.43,0.71,0.21
-0.45,0.74,0.19
-0.46,0.8,0.15
-0.47,0.89,0.1
-0.47,0.99,0.05
-0.46,1.07,0.02
-0.43,1.13,0
-0.4,1.18,-0.02
-0.36,1.21,-0.05
-0.32,1.19,-0.15
-0.3,1.15,-0.2
-0.32,1.14,-0.2
-0.34,1.12,-0.19
-0.37,1.06,-0.23
-0.39,1.05,-0.3
-0.37,1.08,-0.35
-0.36,1.09,-0.39
-0.39,1.1,-0.41
-0.41,1.13,-0.4
-0.41,1.15,-0.41
-0.4,1.13,-0.47
-0.38,1.1,-0.54
-0.34,1.05,-0.59
-0.3,0.99,-0.6
-0.28,0.95,-0.59
-0.3,0.91,-0.57
-0.32,0.88,-0.55
-0.35,0.86,-0.48
-0.37,0.85,-0.37
-0.37,0.85,-0.28
-0.38,0.85,-0.21
-0.39,0.84,-0.16
-0.38,0.85,-0.13
-0.32,0.86,-0.13
-0.25,0.88,-0.13
-0.19,0.92,-0.1
-0.14,0.94,-0.05
-0.12,0.97,0.03
-0.12,1.01,0.05
-0.11,1.06,0.08
-0.07,1.12,0.11
-0.04,1.22,0.14
-0.05,1.31,0.18
-0.12,1.35,0.28
-0.23,1.36,0.34
-0.37,1.35,0.34
-0.54,1.3,0.36
-0.77,1.22,0.41
-0.97,1.12,0.47
-1.01,1.03,0.49
-0.95,0.98,0.48
-0.88,0.92,0.48
-0.83,0.86,0.44
-0.78,0.81,0.35
-0.69,0.76,0.26
-0.58,0.71,0.18
-0.47,0.66,0.08
-0.38,0.64,0.02
-0.3,0.64,-0.01
-0.2,0.68,-0.06
-0.14,0.75,-0.07
-0.11,0.8,-0.05
-0.17,0.87,0.05
-0.31,0.9,0.19
-0.34,0.85,0.22
-0.34,0.8,0.16
-0.4,0.76,0.02
-0.43,0.75,-0.02
-0.38,0.77,0
-0.34,0.76,0.02
-0.21,0.76,0.05
-0.09,0.8,0.1
-0.07,0.8,0.1
-0.06,0.77,0.01
-0.16,0.74,-0.13
-0.39,0.71,-0.31
-0.54,0.7,-0.45
-0.57,0.68,-0.55
-0.62,0.66,-0.64
-0.67,0.63,-0.66
-0.69,0.59,-0.63
-0.79,0.56,-0.55
-0.93,0.56,-0.4
-1.02,0.55,-0.33
-1.1,0.47,-0.35
-1.17,0.44,-0.33
-1.16,0.43,-0.36
-1.18,0.43,-0.43
-1.26,0.44,-0.43
-1.32,0.44,-0.36
-1.34,0.47,-0.27
-1.31,0.53,-0.22
-1.16,0.63,-0.26
-0.98,0.75,-0.3
-0.88,0.89,-0.32
-0.87,1.03,-0.33
-0.93,1.02,-0.35
-0.91,0.97,-0.35
-0.8,0.89,-0.33
-0.72,0.82,-0.29
-0.68,0.77,-0.26
-0.63,0.71,-0.25
-0.54,0.69,-0.26
-0.5,0.67,-0.24
-0.5,0.68,-0.2
-0.55,0.72,-0.19
-0.64,0.77,-0.16
-0.72,0.8,-0.12
-0.76,0.8,-0.1
-0.69,0.74,-0.08
-0.67,0.66,-0.11
-0.71,0.6,-0.15
-0.73,0.56,-0.13
-0.71,0.52,-0.1
-0.73,0.48,-0.09
-0.76,0.45,-0.08
-0.77,0.43,-0.08
-0.84,0.41,-0.07
-0.91,0.41,0.01
-0.88,0.41,0.12
-0.82,0.41,0.17
-0.8,0.43,0.21
-0.75,0.48,0.23
-0.71,0.52,0.27
-0.68,0.56,0.29
-0.72,0.52,0.25
-0.7,0.52,0.2
-0.67,0.52,0.21
-0.73,0.5,0.22
-0.75,0.51,0.22
-0.82,0.5,0.19
-0.85,0.47,0.15
-0.81,0.46,0.12
-0.84,0.46,0.09
-0.83,0.43,0.03
-0.81,0.39,-0.01
-0.86,0.4,-0.03
-0.92,0.41,-0.05
-0.96,0.39,-0.04
-0.92,0.39,-0.03
-0.87,0.39,-0.03
-0.88,0.41,-0.02
-0.87,0.4,-0.01
-0.81,0.4,-0.02
-0.75,0.44,0.01
-0.71,0.43,0.02
-0.67,0.4,-0.01
-0.69,0.38,-0.04
-0.73,0.34,-0.03
-0.73,0.32,-0.02
-0.73,0.31,-0.05
-0.76,0.29,-0.08
-0.8,0.27,-0.04
-0.9,0.28,-0.04
-0.97,0.29,-0.08
-0.99,0.29,-0.14
-1,0.28,-0.2
-1,0.3,-0.27
-1.03,0.34,-0.33
-1.04,0.37,-0.37
-0.97,0.42,-0.39
-0.94,0.48,-0.39
-0.96,0.52,-0.36
-0.98,0.56,-0.35
-0.99,0.62,-0.33
-1.01,0.72,-0.25
-1.08,0.74,-0.2
-1.1,0.75,-0.18
-0.98,0.79,-0.17
-0.8,0.82,-0.15
-0.64,0.83,-0.07
-0.56,0.82,0.04
-0.45,0.82,0.16
-0.39,0.82,0.3
-0.44,0.8,0.39
-0.43,0.74,0.39
-0.37,0.69,0.36
-0.39,0.63,0.32
-0.44,0.55,0.26
-0.45,0.45,0.18
-0.47,0.4,0.12
-0.7,0.38,0.09
-0.71,0.37,0.09
-0.63,0.35,0.12
-0.56,0.31,0.12
-0.54,0.29,0.08
-0.48,0.28,0
-0.51,0.25,-0.06
-0.61,0.23,-0.04
-0.66,0.21,0
-0.7,0.2,-0.02
-0.76,0.19,-0.05
-0.78,0.2,-0.09
-0.75,0.2,-0.18
-0.65,0.21,-0.36
-0.54,0.23,-0.54
-0.5,0.27,-0.71
-0.52,0.34,-0.78
-0.55,0.4,-0.73
-0.59,0.46,-0.66
-0.65,0.5,-0.56
-0.71,0.54,-0.45
-0.76,0.58,-0.4
-0.84,0.63,-0.37
-0.89,0.68,-0.35
-0.9,0.73,-0.38
-0.9,0.79,-0.39
-0.93,0.82,-0.41
-0.95,0.83,-0.46
-0.96,0.73,-0.59
-1.02,0.67,-0.66
-1.04,0.61,-0.7
-1.06,0.57,-0.71
-1.12,0.53,-0.72
-1.21,0.5,-0.7
-1.31,0.48,-0.66
-1.39,0.47,-0.63
-1.43,0.48,-0.58
-1.45,0.49,-0.51
-1.46,0.51,-0.42
-1.46,0.54,-0.34
-1.43,0.56,-0.3
-1.43,0.57,-0.26
-1.4,0.6,-0.24
-1.3,0.6,-0.23
-1.2,0.59,-0.2
-1.17,0.6,-0.17
-1.17,0.62,-0.09
-1.09,0.67,0.01
-0.98,0.69,0.06
-0.94,0.65,0.13
-0.92,0.61,0.18
-0.8,0.59,0.19
-0.69,0.56,0.2
-0.65,0.52,0.23
-0.64,0.49,0.26
-0.63,0.47,0.3
-0.62,0.44,0.37
-0.68,0.39,0.42
-0.74,0.36,0.44
-0.81,0.32,0.46
-0.89,0.3,0.47
-0.97,0.29,0.48
-1.05,0.28,0.49
-1.13,0.27,0.51
-1.18,0.26,0.53
-1.22,0.26,0.54
-1.23,0.26,0.55
-1.2,0.25,0.56
-1.17,0.25,0.56
-1.14,0.25,0.57
-1.11,0.24,0.57
-1.09,0.23,0.57
-1.07,0.22,0.57
-1.07,0.21,0.58
-1.04,0.2,0.59
-0.96,0.2,0.59
-0.92,0.21,0.6
-0.87,0.21,0.61
-0.81,0.2,0.63
-0.8,0.18,0.65
-0.75,0.17,0.67
-0.71,0.17,0.68
-0.76,0.15,0.7
-0.83,0.12,0.73
-0.85,0.1,0.72
-0.86,0.1,0.68
-0.81,0.06,0.6
-0.76,0.03,0.54
-0.78,0,0.5
-0.81,-0.02,0.47
-0.75,-0.04,0.43
-0.71,-0.06,0.4
-0.69,-0.08,0.39
-0.65,-0.1,0.38
-0.62,-0.11,0.38
-0.61,-0.12,0.38
-0.6,-0.12,0.39
-0.64,-0.11,0.38
-0.64,-0.06,0.42
-0.59,-0.08,0.46
-0.6,-0.13,0.45
-0.61,-0.1,0.45
-0.56,-0.09,0.43
-0.48,-0.1,0.39
-0.42,-0.1,0.4
-0.43,-0.08,0.44
-0.48,-0.07,0.48
-0.54,-0.07,0.54
-0.66,-0.05,0.63
-0.73,-0.04,0.69
-0.74,-0.02,0.71
-0.7,-0.01,0.7
-0.67,0.01,0.67
-0.62,0.03,0.67
-0.57,0.05,0.74
-0.42,0.06,0.78
-0.35,0.07,0.85
-0.32,0.07,0.9
-0.27,0.07,0.92
-0.25,0.07,0.94
-0.26,0.07,0.95
-0.28,0.08,0.94
-0.3,0.08,0.93
-0.32,0.08,0.92
-0.33,0.07,0.91
-0.35,0.08,0.92
-0.39,0.09,0.95
-0.44,0.09,0.99
-0.46,0.09,1
-0.44,0.08,0.98
-0.47,0.06,0.98
-0.5,0.03,0.98
-0.45,0,0.96
-0.42,0,0.94
-0.44,0.02,0.93
-0.46,0.03,0.95
-0.42,0.02,1
-0.38,-0.02,1.02
-0.36,-0.07,0.99
-0.34,-0.09,0.93
-0.3,-0.1,0.88
-0.31,-0.12,0.84
-0.38,-0.13,0.91
-0.4,-0.12,0.92
-0.4,-0.1,0.9
-0.39,-0.09,0.93
-0.39,-0.08,0.99
-0.44,-0.28,1.1
-0.45,-0.2,1.14
-0.42,0.11,1.1
-0.39,0.09,1.07
-0.32,0,1.02
-0.28,-0.06,0.98
-0.27,-0.03,0.96
-0.26,0,0.96
-0.26,-0.06,0.98
-0.29,-0.04,0.97
-0.29,-0.04,0.97
-0.3,-0.06,0.95
-0.32,-0.04,0.92
-0.31,-0.06,0.93
-0.32,-0.02,0.95
-0.33,0.01,0.96
-0.32,0.02,0.96
-0.32,0.02,0.96
-0.32,0.03,0.96
-0.33,0.02,0.95
-0.34,0.02,0.95
-0.36,0.01,0.95
-0.35,0.01,0.96
-0.33,-0.01,0.96
-0.34,-0.01,0.97
-0.26,-0.04,0.96
-0.25,-0.04,0.96
-0.27,-0.01,0.98
-0.3,0,0.97
-0.3,-0.02,0.96
-0.3,-0.03,0.96
-0.32,-0.01,0.96
-0.33,0,0.96
-0.31,0,0.96
-0.3,0.01,0.96
-0.3,0.01,0.97
-0.29,0.01,0.97
-0.28,0.01,0.97
-0.27,0.01,0.98
-0.26,0.01,0.95
-0.26,0,0.97
-0.27,0,1
-0.28,-0.01,0.97
-0.29,-0.01,0.95
-0.28,-0.01,0.96
-0.29,-0.02,0.96
-0.31,0,0.96
-0.3,0,0.96
-0.3,0,0.96
-0.29,0.01,0.96
-0.3,0.01,0.96
-0.31,0.01,0.97
-0.32,0,0.96
-0.35,0,0.95
-0.33,0,0.96
-0.31,-0.01,0.96
-0.32,-0.01,0.96
-0.31,0,0.96
-0.3,0,0.96
-0.29,0,0.96
-0.3,-0.01,0.96
-0.3,0,0.96
-0.3,0.01,0.96
-0.3,0,0.96
-0.31,0,0.97
-0.3,0,0.97
-0.3,-0.01,0.97
-0.29,-0.01,0.97
-0.3,-0.01,0.96
-0.3,-0.01,0.96
-0.3,0,0.96
-0.3,-0.01,0.94
-0.32,0,0.97
-0.33,0.01,0.98
-0.3,0,0.92
-0.29,0,0.94
-0.31,0.01,0.98
-0.31,0,0.97
-0.3,0,0.96
-0.3,0,0.96
-0.3,-0.01,0.96
-0.31,-0.01,0.97
-0.31,-0.01,0.97
-0.31,-0.01,0.96
-0.32,0,0.96
-0.32,0,0.95
-0.32,0,0.95
-0.32,0,0.96
-0.32,0,0.96
-0.32,0,0.96
-0.31,0,0.96
-0.31,0,0.96
-0.31,0,0.96
-0.31,0,0.96
-0.31,0,0.95
-0.31,0,0.96
-0.32,0,0.96
-0.31,0.01,0.96
-0.31,0.01,0.96
-0.31,0,0.96
-0.31,0,0.96
-0.31,0,0.96
-0.3,-0.01,0.96
-0.3,-0.01,0.96
-0.31,-0.01,0.96
-0.31,0,0.96
-0.31,0,0.96
-0.31,0,0.96
-0.31,0,0.96
-0.3,0.01,0.96
-0.3,0.01,0.96
-0.3,0.01,0.96
-0.3,0.01,0.96
-0.3,0,0.96
-0.31,0,0.96
-0.31,0,0.96
-0.31,0,0.96
-0.31,0,0.96
-0.3,0,0.96
-0.3,0,0.96
-0.3,0,0.96
-0.3,0,0.96
-0.3,0,0.96
-0.3,0,0.96
-0.31,0,0.96
-0.31,0,0.96
-0.32,0,0.96
-0.32,0,0.96
-0.31,0,0.96
-0.31,0,0.96
-0.31,0,0.96
-0.31,0,0.96
-0.31,0,0.96
-0.31,0,0.96
-0.31,0,0.96
-0.31,0,0.96
-0.31,0,0.96
-0.31,0,0.96
-0.31,0,0.96
-0.31,0,0.96
-0.3,0,0.96
-0.3,0,0.96
-0.3,0,0.96
-0.3,0.01,0.96
-0.3,0.01,0.96
-0.3,0.01,0.96
-0.3,0,0.96
-0.3,0,0.96
-0.3,0,0.96
-0.3,0.01,0.96
-0.3,0,0.96
-0.3,0,0.96
-0.3,0,0.96
-0.3,0,0.96
-0.3,0,0.96
-0.3,0,0.96
-0.3,0,0.96
-0.3,0.01,0.96
-0.3,0.01,0.96
-0.3,0.01,0.97
-0.29,0.01,0.97
-0.29,0.01,0.97
-0.29,0.01,0.96
-0.29,0.01,0.96
-0.29,0.01,0.96
-0.29,0,0.96
-0.29,0,0.97
-0.29,0.01,0.97
-0.29,0.01,0.96
