Acc_x,Acc_y,Acc_z
0,0,0
0,0,0
0,0,0
0,0,0
0,0,0
0,0,0
0,0,0
0,0,0
0,0,0
0,0,0
0,0,0
0,0,0
0,0,0
0,0,0
0,0,0
0,0,0
0,0,0
0,0,0
0,0,0
0,0,0
0,0,0
0,0,0
0,0,0
0,0,0
0,0,0
0,0,0
0,0,0
0,0,0
0,0,0
0,0,0
0,0,0
0,0,0
0,0,0
0,0,0
0,0,0
0,0,0
0,0,0
0,0,0
0,0,0
0,0,0
0,0,0
0,0,0
0,0,0
0,0,0
0,0,0
0,0,0
0,0,0
0,0,0
0,0,0
0,0,0
0,0,0
0,0,0
0,0,0
0,0,0
0,0,0
0,0,0
0,0,0
0,0,0
0,0,0
0,0,0
0,0,0
0,0,0
0,0,0
0,0,0
0,0,0
0,0,0
0,0,0
0,0,0
0,0,0
0,0,0
0,0,0
0,0,0
0,0,0
0,0,0
0,0,0
0,0,0
0,0,0
0,0,0
0,0,0
0,0,0
0,0,0
0,0,0
0,0,0
0,0,0
0,0,0
0,0,0
0,0,0
0,0,0
0,0,0
0,0,0
0,0,0
0,0,0
0,0,0
0,0,0
0,0,0
0,0,0
0,0,0
0,0,0
0,0,0
0,0,0
0,0,0
0,0,0
0,0,0
0,0,0
0,0,0
0,0,0
0,0,0
0,0,0
0,0,0
0,0,0
0,0,0
0,0,0
0,0,0
0,0,0
0,0,0
0,0,0
0,0,0
0,0,0
0,0,0
0,0,0
0,0,0
0,0,0
0,0,0
0,0,0
0,0,0
0,0,0
0,0,0
0,0,0
0,0,0
0,0,0
0,0,0
0,0,0
0,0,0
0,0,0
0,0,0
0,0,0
0,0,0
0,0,0
0,0,0
0,0,0
0,0,0
0,0,0
0,0,0
0,0,0
0,0,0
0,0,0
0,0,0
0,0,0
0,0,0
0,0,0
0,0,0
0,0,0
0,0,0
0,0,0
0,0,0
0,0,0
0,0,0
0,0,0
0,0,0
0,0,0
0,0,0
0,0,0
0,0,0
0,0,0
0,0,0
0,0,0
0,0,0
0,0,0
0,0,0
0,0,0
0,0,0
0,0,0
0,0,0
0,0,0
0,0,0
0,0,0
0,0,0
0,0,0
0,0,0
0,0,0
0,0,0
0,0,0
0,0,0
0,0,0
0,0,0
0,0,0
0,0,0
0,0,0
0,0,0
0,0,0
0,0,0
0,0,0
0,0,0
0,0,0
0,0,0
0,0,0
0,0,0
0,0,0
0,0,0
0,0,0
0,0,0
0,0,0
0,0,0
0,0,0
0,0,0
0,0,0
0,0,0
0,0,0
0,0,0
0,0,0
0,0,0
0,0,0
0,0,0
0,0,0
0,0,0
0,0,0
0,0,0
0,0,0
0,0,0
0,0,0
0,0,0
0,0,0
0,0,0
0,0,0
0,0,0
0,0,0
0,0,0
0,0,0
0,0,0
0,0,0
0,0,0
0,0,0
0,0,0
0,0,0
0,0,0
0,0,0
0,0,0
0,0,0
0,0,0
0,0,0
0,0,0
0,0,0
0,0,0
0,0,0
0,0,0
0,0,0
0,0,0
0,0,0
0,0,0
0,0,0
0,0,0
0,0,0
0,0,0
0,0,0
0,0,0
0,0,0
0,0,0
0,0,0
0,0,0
0,0,0
0,0,0
0,0,0
-0.33,-0.14,0.94
-0.33,-0.14,0.94
-0.33,-0.14,0.94
-0.33,-0.14,0.94
-0.33,-0.14,0.94
-0.34,-0.14,0.94
-0.32,-0.15,0.95
-0.31,-0.16,0.94
-0.34,-0.15,0.94
-0.34,-0.14,0.94
-0.34,-0.15,0.94
-0.33,-0.15,0.94
-0.33,-0.15,0.94
-0.33,-0.15,0.94
-0.33,-0.15,0.94
-0.33,-0.15,0.94
-0.33,-0.16,0.94
-0.33,-0.16,0.94
-0.33,-0.16,0.94
-0.34,-0.16,0.94
-0.33,-0.16,0.94
-0.33,-0.16,0.94
-0.33,-0.16,0.94
-0.33,-0.16,0.94
-0.33,-0.16,0.94
-0.33,-0.16,0.94
-0.33,-0.16,0.94
-0.33,-0.16,0.94
-0.33,-0.16,0.94
-0.33,-0.16,0.94
-0.33,-0.16,0.94
-0.33,-0.16,0.94
-0.34,-0.16,0.94
-0.34,-0.16,0.94
-0.34,-0.16,0.94
-0.34,-0.16,0.94
-0.34,-0.16,0.94
-0.34,-0.16,0.94
-0.34,-0.16,0.94
-0.34,-0.16,0.94
-0.33,-0.16,0.94
-0.34,-0.16,0.94
-0.34,-0.16,0.94
-0.33,-0.16,0.94
-0.34,-0.16,0.94
-0.34,-0.16,0.94
-0.34,-0.16,0.94
-0.34,-0.16,0.94
-0.34,-0.16,0.94
-0.34,-0.16,0.94
-0.34,-0.16,0.93
-0.34,-0.16,0.93
-0.34,-0.16,0.94
-0.34,-0.16,0.94
-0.33,-0.16,0.94
-0.33,-0.16,0.94
-0.34,-0.16,0.94
-0.34,-0.16,0.94
-0.34,-0.16,0.94
-0.33,-0.16,0.94
-0.33,-0.15,0.94
-0.33,-0.16,0.94
-0.33,-0.16,0.94
-0.34,-0.16,0.94
-0.34,-0.16,0.94
-0.34,-0.16,0.94
-0.33,-0.16,0.94
-0.33,-0.16,0.94
-0.33,-0.16,0.94
-0.33,-0.16,0.94
-0.34,-0.16,0.94
-0.34,-0.16,0.94
-0.34,-0.16,0.94
-0.34,-0.16,0.94
-0.33,-0.16,0.94
-0.34,-0.16,0.94
-0.34,-0.16,0.94
-0.34,-0.16,0.94
-0.34,-0.16,0.94
-0.34,-0.15,0.94
-0.34,-0.15,0.94
-0.34,-0.15,0.94
-0.34,-0.15,0.94
-0.34,-0.15,0.94
-0.34,-0.16,0.94
-0.34,-0.15,0.94
-0.34,-0.15,0.94
-0.34,-0.15,0.94
-0.34,-0.15,0.94
-0.34,-0.15,0.94
-0.34,-0.15,0.94
-0.34,-0.16,0.94
-0.34,-0.16,0.94
-0.33,-0.15,0.94
-0.33,-0.15,0.94
-0.33,-0.15,0.94
-0.33,-0.15,0.94
-0.33,-0.15,0.94
-0.33,-0.15,0.94
-0.33,-0.15,0.94
-0.33,-0.15,0.94
-0.33,-0.15,0.94
-0.33,-0.14,0.94
-0.34,-0.14,0.94
-0.34,-0.14,0.94
-0.34,-0.14,0.94
-0.34,-0.14,0.94
-0.33,-0.14,0.94
-0.33,-0.14,0.94
-0.33,-0.13,0.94
-0.33,-0.13,0.94
-0.33,-0.13,0.94
-0.33,-0.13,0.94
-0.33,-0.13,0.94
-0.33,-0.13,0.95
-0.33,-0.13,0.94
-0.33,-0.13,0.94
-0.33,-0.13,0.94
-0.34,-0.13,0.94
-0.34,-0.13,0.94
-0.34,-0.13,0.94
-0.33,-0.13,0.94
-0.33,-0.13,0.94
-0.33,-0.13,0.94
-0.33,-0.13,0.94
-0.33,-0.13,0.95
-0.33,-0.13,0.95
-0.33,-0.13,0.95
-0.33,-0.13,0.95
-0.33,-0.13,0.95
-0.33,-0.13,0.95
-0.33,-0.13,0.94
-0.33,-0.13,0.94
-0.33,-0.13,0.94
-0.33,-0.13,0.94
-0.33,-0.13,0.94
-0.33,-0.13,0.94
-0.33,-0.13,0.94
-0.33,-0.12,0.94
-0.33,-0.12,0.94
-0.33,-0.12,0.94
-0.33,-0.12,0.94
-0.33,-0.13,0.94
-0.33,-0.12,0.94
-0.33,-0.13,0.95
-0.33,-0.13,0.95
-0.33,-0.13,0.94
-0.33,-0.13,0.94
-0.33,-0.13,0.94
-0.34,-0.13,0.94
-0.33,-0.13,0.94
-0.33,-0.13,0.94
-0.33,-0.13,0.94
-0.33,-0.13,0.94
-0.33,-0.13,0.94
-0.33,-0.13,0.95
-0.33,-0.13,0.94
-0.33,-0.13,0.94
-0.33,-0.13,0.94
-0.33,-0.13,0.94
-0.33,-0.13,0.94
-0.33,-0.13,0.95
-0.33,-0.13,0.94
-0.33,-0.13,0.94
-0.33,-0.13,0.94
-0.33,-0.13,0.94
-0.34,-0.13,0.94
-0.34,-0.13,0.94
-0.33,-0.13,0.94
-0.33,-0.13,0.94
-0.33,-0.13,0.94
-0.33,-0.13,0.94
-0.33,-0.13,0.94
-0.33,-0.13,0.94
-0.33,-0.14,0.94
-0.33,-0.14,0.94
-0.34,-0.14,0.94
-0.34,-0.14,0.94
-0.34,-0.14,0.94
-0.34,-0.14,0.94
-0.33,-0.14,0.94
-0.33,-0.13,0.94
-0.34,-0.13,0.94
-0.34,-0.14,0.94
-0.34,-0.13,0.94
-0.34,-0.13,0.94
-0.34,-0.14,0.94
-0.34,-0.14,0.94
-0.34,-0.14,0.94
-0.34,-0.14,0.94
-0.34,-0.14,0.94
-0.33,-0.15,0.94
-0.33,-0.15,0.95
-0.32,-0.15,0.95
-0.32,-0.15,0.95
-0.33,-0.15,0.95
-0.33,-0.15,0.95
-0.33,-0.15,0.95
-0.33,-0.15,0.95
-0.33,-0.15,0.95
-0.33,-0.14,0.95
-0.33,-0.14,0.94
-0.34,-0.14,0.94
-0.34,-0.14,0.94
-0.35,-0.13,0.95
-0.34,-0.13,0.95
-0.34,-0.13,0.94
-0.34,-0.13,0.94
-0.34,-0.12,0.94
-0.35,-0.13,0.94
-0.35,-0.13,0.94
-0.34,-0.13,0.94
-0.34,-0.12,0.94
-0.34,-0.11,0.94
-0.33,-0.11,0.94
-0.33,-0.11,0.94
-0.34,-0.11,0.94
-0.34,-0.11,0.94
-0.35,-0.12,0.94
-0.35,-0.12,0.94
-0.35,-0.12,0.94
-0.34,-0.12,0.94
-0.34,-0.12,0.93
-0.34,-0.13,0.93
-0.34,-0.13,0.93
-0.34,-0.13,0.94
-0.34,-0.14,0.94
-0.34,-0.14,0.94
-0.34,-0.13,0.94
-0.33,-0.12,0.94
-0.33,-0.13,0.93
-0.33,-0.13,0.94
-0.34,-0.12,0.94
-0.35,-0.12,0.93
-0.36,-0.12,0.93
-0.37,-0.12,0.92
-0.37,-0.12,0.92
-0.36,-0.13,0.92
-0.36,-0.13,0.92
-0.35,-0.14,0.93
-0.34,-0.15,0.93
-0.35,-0.15,0.93
-0.35,-0.16,0.93
-0.35,-0.16,0.93
-0.36,-0.16,0.93
-0.36,-0.16,0.91
-0.37,-0.17,0.91
-0.37,-0.18,0.92
-0.37,-0.19,0.92
-0.37,-0.19,0.92
-0.37,-0.2,0.92
-0.36,-0.2,0.91
-0.36,-0.2,0.91
-0.38,-0.2,0.92
-0.39,-0.21,0.92
-0.39,-0.21,0.91
-0.4,-0.22,0.91
-0.42,-0.24,0.91
-0.43,-0.25,0.9
-0.43,-0.26,0.9
-0.44,-0.25,0.92
-0.42,-0.25,0.94
-0.39,-0.24,0.95
-0.38,-0.24,0.95
-0.37,-0.24,0.95
-0.38,-0.25,0.94
-0.4,-0.25,0.93
-0.43,-0.24,0.92
-0.46,-0.24,0.92
-0.47,-0.24,0.91
-0.48,-0.23,0.91
-0.49,-0.23,0.91
-0.48,-0.23,0.91
-0.48,-0.23,0.9
-0.47,-0.22,0.89
-0.47,-0.21,0.89
-0.47,-0.2,0.89
-0.48,-0.18,0.9
-0.48,-0.15,0.91
-0.5,-0.13,0.92
-0.48,-0.11,0.92
-0.39,-0.1,0.73
-0.5,-0.03,0.77
-0.64,-0.02,0.94
-0.57,-0.06,0.88
-0.56,-0.02,0.87
-0.56,0.03,0.85
-0.49,0.08,0.84
-0.45,0.14,0.89
-0.42,0.21,0.9
-0.44,0.23,0.92
-0.46,0.25,0.92
-0.5,0.28,0.89
-0.53,0.31,0.87
-0.58,0.33,0.85
-0.61,0.35,0.83
-0.59,0.38,0.83
-0.57,0.4,0.84
-0.54,0.42,0.84
-0.51,0.43,0.84
-0.51,0.45,0.85
-0.51,0.46,0.86
-0.53,0.47,0.87
-0.56,0.5,0.89
-0.57,0.51,0.88
-0.56,0.53,0.86
-0.53,0.54,0.83
-0.49,0.56,0.8
-0.47,0.57,0.79
-0.44,0.59,0.78
-0.42,0.61,0.77
-0.41,0.63,0.76
-0.39,0.65,0.75
-0.35,0.67,0.73
-0.32,0.68,0.7
-0.29,0.69,0.67
-0.28,0.69,0.64
-0.26,0.7,0.61
-0.26,0.72,0.59
-0.27,0.73,0.58
-0.27,0.73,0.56
-0.26,0.71,0.52
-0.24,0.71,0.46
-0.22,0.73,0.41
-0.22,0.75,0.41
-0.21,0.74,0.39
-0.22,0.76,0.42
-0.26,0.79,0.48
-0.3,0.81,0.53
-0.32,0.82,0.54
-0.34,0.83,0.54
-0.35,0.83,0.54
-0.35,0.85,0.53
-0.36,0.86,0.53
-0.34,0.86,0.54
-0.32,0.86,0.54
-0.32,0.85,0.53
-0.33,0.86,0.51
-0.32,0.87,0.52
-0.26,0.83,0.52
-0.22,0.8,0.53
-0.26,0.8,0.56
-0.3,0.79,0.59
-0.3,0.79,0.62
-0.31,0.79,0.65
-0.35,0.79,0.66
-0.4,0.74,0.63
-0.43,0.72,0.61
-0.41,0.69,0.59
-0.39,0.67,0.56
-0.39,0.65,0.53
-0.42,0.65,0.5
-0.46,0.67,0.5
-0.51,0.67,0.51
-0.57,0.67,0.51
-0.61,0.67,0.51
-0.63,0.66,0.51
-0.65,0.66,0.51
-0.67,0.66,0.49
-0.68,0.64,0.48
-0.69,0.63,0.47
-0.71,0.61,0.46
-0.73,0.57,0.45
-0.75,0.52,0.44
-0.76,0.48,0.42
-0.76,0.45,0.4
-0.76,0.42,0.38
-0.76,0.4,0.36
-0.76,0.4,0.34
-0.78,0.4,0.34
-0.81,0.42,0.35
-0.88,0.43,0.38
-0.94,0.43,0.4
-0.95,0.42,0.41
-0.95,0.42,0.39
-0.88,0.43,0.37
-0.84,0.44,0.35
-0.8,0.44,0.33
-0.76,0.44,0.32
-0.76,0.44,0.31
-0.77,0.44,0.3
-0.8,0.45,0.3
-0.82,0.45,0.3
-0.83,0.44,0.3
-0.82,0.44,0.29
-0.8,0.44,0.27
-0.78,0.44,0.26
-0.76,0.45,0.26
-0.75,0.45,0.25
-0.74,0.46,0.24
-0.73,0.47,0.24
-0.74,0.47,0.23
-0.74,0.48,0.23
-0.75,0.5,0.22
-0.75,0.51,0.23
-0.76,0.5,0.22
-0.75,0.52,0.22
-0.75,0.53,0.21
-0.74,0.52,0.21
-0.74,0.52,0.2
-0.74,0.52,0.2
-0.73,0.52,0.2
-0.72,0.51,0.21
-0.71,0.5,0.21
-0.7,0.51,0.2
-0.69,0.52,0.2
-0.69,0.53,0.2
-0.69,0.56,0.21
-0.68,0.59,0.21
-0.67,0.62,0.21
-0.67,0.63,0.21
-0.67,0.64,0.21
-0.66,0.65,0.21
-0.65,0.66,0.21
-0.6,0.7,0.19
-0.6,0.7,0.19
-0.58,0.7,0.18
-0.57,0.71,0.18
-0.56,0.72,0.18
-0.53,0.78,0.16
-0.53,0.78,0.16
-0.51,0.8,0.16
-0.49,0.82,0.16
-0.47,0.85,0.15
-0.46,0.87,0.15
-0.44,0.9,0.15
-0.43,0.93,0.14
-0.41,0.96,0.13
-0.4,0.97,0.12
-0.4,0.98,0.12
-0.39,1.02,0.1
-0.39,1.06,0.08
-0.4,1.12,0.05
-0.41,1.17,0.02
-0.4,1.23,0
-0.38,1.26,-0.02
-0.38,1.26,-0.04
-0.37,1.22,-0.07
-0.34,1.16,-0.09
-0.32,1.08,-0.1
-0.3,0.99,-0.09
-0.29,0.93,-0.07
-0.3,0.89,-0.03
-0.32,0.9,0.04
-0.34,0.97,0.11
-0.33,1.07,0.15
-0.3,1.15,0.14
-0.26,1.22,0.09
-0.24,1.29,0.02
-0.21,1.35,-0.04
-0.18,1.38,-0.07
-0.14,1.35,-0.08
-0.12,1.28,-0.06
-0.12,1.19,-0.03
-0.14,1.12,0.02
-0.17,1.06,0.08
-0.19,0.99,0.12
-0.22,0.94,0.15
-0.25,0.9,0.17
-0.28,0.89,0.16
-0.28,0.91,0.14
-0.28,0.93,0.13
-0.27,0.95,0.14
-0.27,0.98,0.17
-0.28,0.99,0.19
-0.3,0.99,0.21
-0.31,1,0.23
-0.32,1,0.23
-0.32,0.99,0.23
-0.32,0.97,0.22
-0.33,0.94,0.21
-0.35,0.92,0.21
-0.38,0.89,0.22
-0.4,0.86,0.23
-0.42,0.84,0.24
-0.43,0.82,0.25
-0.44,0.8,0.26
-0.44,0.79,0.26
-0.43,0.78,0.27
-0.44,0.78,0.28
-0.45,0.78,0.29
-0.46,0.78,0.29
-0.47,0.79,0.3
-0.47,0.79,0.31
-0.48,0.78,0.31
-0.48,0.78,0.3
-0.48,0.78,0.29
-0.46,0.78,0.26
-0.48,0.79,0.25
-0.48,0.8,0.25
-0.48,0.84,0.24
-0.5,0.92,0.24
-0.51,0.99,0.24
-0.49,1.01,0.24
-0.48,1.02,0.22
-0.47,1.03,0.18
-0.48,1.06,0.14
-0.49,1.11,0.1
-0.51,1.15,0.08
-0.53,1.21,0.06
-0.54,1.26,0.05
-0.55,1.32,0.04
-0.56,1.37,0.04
-0.55,1.38,0.04
-0.55,1.35,0.03
-0.56,1.32,0.02
-0.57,1.29,0.02
-0.59,1.26,0.04
-0.61,1.23,0.06
-0.64,1.22,0.07
-0.67,1.24,0.09
-0.7,1.29,0.13
-0.75,1.37,0.16
-0.78,1.45,0.17
-0.79,1.53,0.14
-0.76,1.58,0.07
-0.7,1.63,0.06
-0.67,1.62,0.06
-0.65,1.6,0.08
-0.63,1.58,0.11
-0.63,1.56,0.11
-0.62,1.56,0.07
-0.59,1.58,0.02
-0.57,1.62,-0.03
-0.55,1.65,-0.06
-0.54,1.69,-0.05
-0.55,1.72,0
-0.57,1.74,0.05
-0.58,1.71,0.06
-0.58,1.63,0.02
-0.57,1.53,-0.03
-0.57,1.43,-0.07
-0.56,1.35,-0.07
-0.55,1.27,-0.05
-0.53,1.18,-0.02
-0.52,1.1,-0.01
-0.49,1.02,-0.02
-0.46,0.95,-0.04
-0.4,0.89,-0.07
-0.33,0.83,-0.09
-0.28,0.77,-0.1
-0.26,0.71,-0.11
-0.23,0.67,-0.12
-0.19,0.64,-0.12
-0.15,0.61,-0.09
-0.13,0.57,-0.08
-0.12,0.56,-0.08
-0.1,0.55,-0.09
-0.08,0.53,-0.08
-0.07,0.52,-0.09
-0.07,0.51,-0.1
-0.07,0.53,-0.1
-0.06,0.56,-0.11
-0.05,0.57,-0.11
-0.03,0.57,-0.09
-0.01,0.56,-0.07
0,0.55,-0.05
0,0.53,-0.03
0,0.51,-0.02
-0.15,0.58,0.08
-0.15,0.58,0.08
-0.17,0.61,0.1
-0.19,0.65,0.13
-0.22,0.7,0.16
-0.24,0.75,0.16
-0.25,0.83,0.15
-0.26,0.94,0.13
-0.28,1.05,0.11
-0.3,1.14,0.11
-0.34,1.34,0.08
-0.46,1.47,0.05
-0.49,1.55,0.04
-0.53,1.53,0.06
-0.56,1.44,0.08
-0.57,1.34,0.09
-0.6,1.31,0.1
-0.64,1.37,0.12
-0.68,1.48,0.12
-0.68,1.6,0.09
-0.67,1.71,0.06
-0.65,1.84,0.05
-0.64,1.95,0.06
-0.65,2.01,0.07
-0.66,2.02,0.1
-0.68,1.98,0.13
-0.7,1.93,0.14
-0.72,1.9,0.14
-0.71,1.88,0.12
-0.7,1.85,0.09
-0.69,1.8,0.05
-0.69,1.76,0.04
-0.69,1.72,0.06
-0.7,1.67,0.09
-0.7,1.63,0.12
-0.68,1.59,0.15
-0.68,1.54,0.19
-0.71,1.47,0.19
-0.72,1.42,0.13
-0.7,1.33,0.11
-0.7,1.28,0.11
-0.72,1.23,0.12
-0.73,1.17,0.12
-0.73,1.11,0.12
-0.73,1.06,0.11
-0.72,1.01,0.11
-0.72,0.97,0.11
-0.72,0.9,0.11
-0.72,0.84,0.1
-0.72,0.79,0.11
-0.72,0.75,0.11
-0.72,0.71,0.11
-0.71,0.69,0.1
-0.69,0.67,0.09
-0.69,0.65,0.08
-0.69,0.65,0.08
-0.67,0.66,0.08
-0.66,0.68,0.07
-0.65,0.7,0.06
-0.64,0.72,0.04
-0.63,0.73,0.03
-0.63,0.75,0.02
-0.62,0.78,0
-0.6,0.82,-0.01
-0.59,0.86,0
-0.58,0.89,0.01
-0.58,0.92,0.02
-0.57,1,0.02
-0.56,1.04,0.01
-0.55,1.07,0
-0.54,1.09,-0.01
-0.53,1.12,-0.03
-0.54,1.16,-0.03
-0.54,1.21,-0.02
-0.54,1.23,0.01
-0.54,1.25,0.04
-0.54,1.28,0.08
-0.55,1.31,0.1
-0.55,1.35,0.09
-0.56,1.4,0.07
-0.58,1.47,0.06
-0.62,1.53,0.09
-0.65,1.58,0.13
-0.67,1.62,0.14
-0.68,1.66,0.13
-0.69,1.71,0.11
-0.71,1.79,0.08
-0.75,1.9,0.06
-0.8,2.05,0.05
-0.83,2.17,0.09
-0.83,2.17,0.2
-0.83,1.97,0.28
-0.83,1.71,0.28
-0.83,1.58,0.23
-0.82,1.59,0.18
-0.83,1.69,0.18
-0.75,1.82,0.17
-0.7,1.78,0.13
-0.64,1.71,0.1
-0.58,1.6,0.09
-0.54,1.47,0.08
-0.5,1.33,0.07
-0.48,1.22,0.06
-0.46,1.13,0.04
-0.45,1.05,0.02
-0.44,0.98,0.01
-0.42,0.9,0.01
-0.4,0.83,0.03
-0.37,0.77,0.05
-0.36,0.72,0.06
-0.34,0.69,0.04
-0.31,0.67,-0.01
-0.26,0.66,-0.05
-0.22,0.65,-0.09
-0.2,0.63,-0.1
-0.18,0.62,-0.1
-0.17,0.62,-0.08
-0.17,0.62,-0.05
-0.16,0.62,-0.02
-0.15,0.61,-0.02
-0.13,0.59,-0.05
-0.1,0.58,-0.07
-0.07,0.55,-0.08
-0.05,0.52,-0.09
-0.04,0.48,-0.07
-0.05,0.4,-0.06
-0.06,0.39,-0.05
-0.06,0.38,-0.04
-0.07,0.38,-0.02
-0.08,0.38,0
-0.1,0.4,0.02
-0.12,0.43,0.03
-0.13,0.48,0.03
-0.14,0.53,0.03
-0.16,0.58,0.03
-0.37,0.74,0
-0.43,0.78,0.05
-0.5,0.82,0.14
-0.54,0.87,0.23
-0.54,0.93,0.28
-0.48,0.98,0.29
-0.41,1,0.24
-0.41,1.04,0.15
-0.39,1.14,0.04
-0.33,1.27,-0.04
-0.25,1.36,-0.08
-0.22,1.44,-0.09
-0.26,1.62,-0.02
-0.44,1.71,0.01
-0.52,1.77,0.02
-0.57,1.84,0
-0.61,1.92,-0.03
-0.63,1.99,-0.06
-0.65,2.06,-0.07
-0.66,2.16,-0.07
-0.67,2.27,-0.05
-0.68,2.37,-0.01
-0.69,2.4,0.03
-0.7,2.38,0.05
-0.71,2.3,0.05
-0.69,2.2,0.03
-0.67,2.07,-0.01
-0.66,1.89,-0.06
-0.65,1.7,-0.07
-0.61,1.56,-0.03
-0.57,1.46,0.02
-0.55,1.44,0.06
-0.53,1.48,0.09
-0.5,1.53,0.09
-0.46,1.55,0.07
-0.43,1.53,0.05
-0.39,1.52,0.05
-0.34,1.5,0.07
-0.33,1.45,0.09
-0.33,1.39,0.11
-0.31,1.32,0.09
-0.29,1.2,0.09
-0.28,1.15,0.11
-0.3,1.1,0.13
-0.32,1.05,0.17
-0.33,1.01,0.19
-0.33,0.95,0.2
-0.35,0.91,0.21
-0.36,0.88,0.24
-0.35,0.84,0.24
-0.33,0.8,0.24
-0.31,0.78,0.23
-0.29,0.76,0.23
-0.28,0.75,0.24
-0.24,0.73,0.26
-0.21,0.73,0.29
-0.2,0.71,0.3
-0.18,0.69,0.29
-0.15,0.69,0.28
-0.13,0.68,0.28
-0.14,0.66,0.29
-0.14,0.65,0.31
-0.13,0.65,0.3
-0.12,0.66,0.29
-0.12,0.65,0.28
-0.12,0.64,0.26
-0.12,0.66,0.23
-0.13,0.68,0.21
-0.14,0.69,0.2
-0.16,0.73,0.17
-0.21,0.75,0.16
-0.23,0.77,0.14
-0.25,0.78,0.13
-0.28,0.8,0.11
-0.31,0.84,0.08
-0.33,0.88,0.06
-0.35,0.91,0.03
-0.37,0.95,0
-0.39,0.98,-0.01
-0.41,1.01,-0.02
-0.43,1.02,-0.02
-0.44,1.04,-0.02
-0.44,1.07,-0.01
-0.46,1.08,-0.01
-0.5,1.1,-0.03
-0.53,1.13,-0.05
-0.55,1.17,-0.07
-0.57,1.24,-0.07
-0.59,1.32,-0.07
-0.62,1.4,-0.07
-0.65,1.47,-0.06
-0.67,1.52,-0.03
-0.73,1.58,-0.02
-0.77,1.65,-0.01
-0.77,1.73,-0.01
-0.78,1.8,-0.01
-0.78,1.88,-0.01
-0.82,1.94,0.01
-0.91,2.07,-0.04
-0.91,2.12,-0.06
-0.92,2.13,-0.03
-0.95,2.12,0.04
-0.97,2.1,0.13
-0.97,2.09,0.2
-0.95,2.09,0.23
-0.92,2.07,0.19
-0.87,2.03,0.11
-0.77,1.99,0.02
-0.67,1.92,-0.05
-0.6,1.81,-0.07
-0.56,1.7,-0.05
-0.54,1.59,-0.02
-0.53,1.49,0.02
-0.52,1.4,0.04
-0.51,1.31,0.04
-0.48,1.23,0.04
-0.46,1.15,0.06
-0.43,1.04,0.07
-0.4,0.94,0.03
-0.34,0.87,-0.01
-0.15,0.54,0.03
-0.14,0.55,0.03
-0.13,0.55,0.02
-0.12,0.55,0
-0.11,0.55,-0.02
-0.1,0.55,-0.01
-0.1,0.54,-0.01
-0.12,0.52,0
-0.12,0.52,0
-0.13,0.51,0.01
-0.15,0.5,0.01
-0.16,0.5,0.02
-0.17,0.5,0.03
-0.18,0.5,0.04
-0.18,0.51,0.06
-0.19,0.52,0.08
-0.2,0.53,0.09
-0.21,0.56,0.1
-0.21,0.6,0.11
-0.21,0.63,0.09
-0.21,0.65,0.06
-0.22,0.68,0.02
-0.23,0.72,0
-0.24,0.78,0
-0.26,0.83,0.02
-0.27,0.87,0.06
-0.29,0.94,0.13
-0.32,0.97,0.1
-0.32,1.02,0.05
-0.32,1.08,0.01
-0.32,1.13,-0.02
-0.35,1.17,-0.03
-0.38,1.24,-0.03
-0.42,1.32,-0.02
-0.47,1.41,0
-0.52,1.5,0.04
-0.55,1.6,0.06
-0.57,1.7,0.05
-0.58,1.79,-0.02
-0.56,1.89,-0.13
-0.53,1.98,-0.25
-0.49,2.07,-0.33
-0.48,2.15,-0.35
-0.54,2.22,-0.31
-0.64,2.27,-0.27
-0.72,2.32,-0.24
-0.79,2.34,-0.23
-0.84,2.3,-0.22
-0.88,2.16,-0.2
-0.88,1.96,-0.18
-0.84,1.73,-0.15
-0.76,1.53,-0.1
-0.68,1.41,-0.04
-0.6,1.39,0.03
-0.54,1.46,0.12
-0.48,1.63,0.11
-0.45,1.67,0.06
-0.4,1.69,0
-0.34,1.68,-0.03
-0.32,1.63,-0.02
-0.31,1.54,0.03
-0.32,1.45,0.08
-0.34,1.37,0.13
-0.36,1.3,0.15
-0.37,1.24,0.15
-0.38,1.19,0.16
-0.38,1.16,0.17
-0.36,1.12,0.16
-0.32,1.09,0.15
-0.28,1.05,0.14
-0.26,1.02,0.13
-0.24,0.98,0.12
-0.23,0.93,0.13
-0.23,0.89,0.16
-0.26,0.84,0.18
-0.28,0.8,0.2
-0.31,0.76,0.23
-0.35,0.73,0.23
-0.38,0.7,0.23
-0.37,0.68,0.23
-0.35,0.66,0.22
-0.35,0.64,0.21
-0.36,0.63,0.21
-0.36,0.62,0.23
-0.38,0.58,0.22
-0.4,0.56,0.22
-0.41,0.55,0.21
-0.41,0.55,0.19
-0.41,0.56,0.17
-0.42,0.58,0.14
-0.43,0.61,0.11
-0.43,0.64,0.08
-0.43,0.67,0.05
-0.46,0.71,0.03
-0.48,0.75,0
-0.5,0.8,-0.02
-0.5,0.86,-0.04
-0.5,0.92,-0.04
-0.52,0.98,-0.01
-0.54,1.02,0.01
-0.57,1.06,0.02
-0.58,1.11,0.02
-0.59,1.16,0
-0.58,1.19,-0.04
-0.57,1.23,-0.08
-0.55,1.27,-0.12
-0.54,1.33,-0.13
-0.55,1.39,-0.12
-0.55,1.46,-0.09
-0.56,1.53,-0.08
-0.56,1.59,-0.1
-0.58,1.66,-0.13
-0.6,1.79,-0.15
-0.65,1.86,-0.15
-0.69,1.91,-0.14
-0.75,1.94,-0.11
-0.83,1.95,-0.05
-0.88,2,-0.02
-0.92,2.11,-0.02
-0.94,2.27,-0.05
-0.93,2.44,-0.1
-0.89,2.57,-0.15
-0.8,2.61,-0.16
-0.73,2.47,-0.13
-0.7,2.19,-0.06
-0.71,1.93,0
-0.74,1.81,0.06
-0.78,1.8,0.1
-0.8,1.84,0.12
-0.79,1.86,0.1
-0.73,1.81,0.06
-0.64,1.7,0.02
-0.57,1.55,0.01
-0.51,1.39,0.02
-0.46,1.25,0.02
-0.42,1.15,0.02
-0.39,1.07,0.01
-0.35,1.02,-0.01
-0.32,0.97,-0.02
-0.29,0.91,-0.04
-0.27,0.86,-0.07
-0.15,0.41,-0.01
-0.16,0.42,0
-0.16,0.42,0
-0.17,0.44,0.02
-0.17,0.46,0.02
-0.18,0.59,-0.02
-0.2,0.64,0
-0.2,0.67,0.02
-0.24,0.69,0.02
-0.26,0.73,0.01
-0.28,0.77,-0.01
-0.31,0.79,-0.02
-0.37,0.79,-0.01
-0.43,0.78,0.01
-0.49,0.79,0.05
-0.53,0.82,0.1
-0.55,0.85,0.14
-0.55,0.89,0.13
-0.53,0.94,0.06
-0.5,1,-0.02
-0.49,1.07,-0.05
-0.53,1.16,-0.03
-0.59,1.27,0
-0.64,1.37,0.03
-0.68,1.46,0.05
-0.71,1.56,0.04
-0.73,1.67,0.01
-0.74,1.78,-0.03
-0.75,1.88,-0.07
-0.74,1.94,-0.09
-0.74,1.97,-0.07
-0.74,2.21,0.02
-0.76,2.4,0.01
-0.76,2.4,0.01
-0.76,2.53,-0.03
-0.72,2.21,-0.03
-0.71,1.88,-0.04
-0.7,1.61,-0.05
-0.69,1.43,-0.01
-0.67,1.36,0.06
-0.64,1.37,0.12
-0.6,1.45,0.14
-0.55,1.54,0.12
-0.48,1.61,0.08
-0.4,1.64,0.03
-0.34,1.66,0
-0.28,1.67,0.01
-0.23,1.62,0.03
-0.19,1.53,0.05
-0.16,1.44,0.06
-0.14,1.36,0.06
-0.14,1.31,0.05
-0.16,1.26,0.05
-0.19,1.21,0.06
-0.22,1.14,0.09
-0.24,1.08,0.11
-0.27,1.02,0.12
-0.28,0.98,0.12
-0.29,0.94,0.11
-0.29,0.92,0.09
-0.29,0.89,0.08
-0.3,0.88,0.06
-0.31,0.86,0.05
-0.32,0.84,0.03
-0.34,0.78,0.05
-0.36,0.74,0.07
-0.38,0.7,0.08
-0.38,0.66,0.08
-0.38,0.64,0.08
-0.39,0.61,0.08
-0.4,0.58,0.08
-0.4,0.57,0.1
-0.39,0.56,0.13
-0.39,0.55,0.15
-0.37,0.55,0.16
-0.36,0.54,0.16
-0.34,0.54,0.14
-0.33,0.55,0.14
-0.34,0.57,0.14
-0.35,0.6,0.15
-0.35,0.62,0.16
-0.34,0.65,0.16
-0.33,0.69,0.16
-0.34,0.71,0.14
-0.35,0.74,0.12
-0.37,0.77,0.1
-0.39,0.81,0.08
-0.42,0.86,0.06
-0.45,0.9,0.05
-0.47,0.94,0.04
-0.49,1,0.02
-0.5,1.06,0.02
-0.52,1.16,0
-0.53,1.21,0
-0.54,1.27,0.01
-0.58,1.32,0.03
-0.62,1.36,0.04
-0.66,1.4,0.04
-0.71,1.46,0.05
-0.75,1.53,0.06
-0.77,1.59,0.08
-0.79,1.62,0.09
-0.8,1.64,0.1
-0.8,1.66,0.1
-0.8,1.68,0.1
-0.81,1.71,0.1
-0.82,1.77,0.1
-0.84,1.86,0.09
-0.84,1.99,0.06
-0.81,2.1,0.02
-0.76,2.17,-0.02
-0.73,2.19,-0.04
-0.72,2.16,-0.03
-0.69,2.09,-0.01
-0.66,1.97,0.03
-0.66,1.83,0.06
-0.68,1.77,0.1
-0.69,1.81,0.15
-0.69,1.89,0.18
-0.67,1.93,0.19
-0.65,1.93,0.05
-0.51,1.82,-0.01
-0.42,1.7,-0.02
-0.39,1.54,0.04
-0.4,1.39,0.08
-0.41,1.29,0.08
-0.39,1.21,0.06
-0.36,1.13,0.03
-0.33,1.04,0.01
-0.31,0.96,0.02
-0.29,0.87,0.02
-0.27,0.79,0
-0.24,0.71,-0.01
-0.22,0.64,-0.03
-0.2,0.59,-0.03
-0.19,0.56,-0.02
-0.19,0.54,0.02
-0.2,0.52,0.04
-0.21,0.52,0.03
-0.2,0.55,0
-0.18,0.57,-0.04
-0.17,0.59,-0.05
-0.16,0.59,-0.04
-0.15,0.6,-0.04
-0.14,0.6,-0.04
-0.14,0.59,-0.03
-0.16,0.45,0.01
-0.18,0.42,0.04
-0.21,0.39,0.08
-0.25,0.38,0.12
-0.28,0.38,0.16
-0.3,0.38,0.19
-0.32,0.39,0.22
-0.34,0.42,0.24
-0.35,0.46,0.25
-0.35,0.5,0.25
-0.71,0.75,0.3
-0.7,0.75,0.25
-0.7,0.75,0.25
-0.66,0.75,0.19
-0.63,0.77,0.15
-0.62,0.82,0.13
-0.6,0.85,0.12
-0.59,0.87,0.12
-0.58,0.91,0.17
-0.57,1.04,0.2
-0.58,1.08,0.19
-0.58,1.13,0.16
-0.57,1.18,0.14
-0.55,1.24,0.13
-0.55,1.3,0.12
-0.55,1.36,0.1
-0.54,1.43,0.08
-0.53,1.52,0.07
-0.53,1.6,0.07
-0.54,1.68,0.07
-0.56,1.77,0.07
-0.61,2,0.06
-0.61,2,0.06
-0.62,2.1,0.03
-0.64,2.19,0.01
-0.65,2.24,0
-0.66,2.21,0.01
-0.65,2.05,0.03
-0.63,1.8,0.04
-0.63,1.53,0.07
-0.65,1.27,0.11
-0.66,1.07,0.13
-0.66,0.98,0.15
-0.65,1,0.16
-0.64,1.11,0.17
-0.61,1.26,0.19
-0.55,1.39,0.22
-0.45,1.48,0.16
-0.22,1.49,0.11
-0.09,1.44,0.09
0.01,1.36,0.08
0.05,1.29,0.1
0.06,1.22,0.12
0.04,1.17,0.17
0.01,1.14,0.22
-0.04,1.1,0.26
-0.08,1.06,0.26
-0.09,1.04,0.22
-0.07,1.02,0.18
-0.05,1.01,0.17
-0.06,1,0.17
-0.09,1,0.18
-0.09,0.98,0.17
-0.09,0.96,0.15
-0.1,0.94,0.13
-0.13,0.92,0.11
-0.16,0.91,0.12
-0.19,0.87,0.14
-0.23,0.83,0.16
-0.25,0.79,0.16
-0.25,0.75,0.16
-0.27,0.71,0.16
-0.28,0.68,0.15
-0.29,0.65,0.16
-0.3,0.63,0.17
-0.32,0.6,0.17
-0.32,0.56,0.14
-0.29,0.55,0.12
-0.27,0.55,0.12
-0.27,0.56,0.13
-0.28,0.58,0.13
-0.27,0.61,0.13
-0.27,0.64,0.11
-0.26,0.67,0.09
-0.26,0.69,0.09
-0.27,0.71,0.07
-0.29,0.72,0.06
-0.32,0.76,0.05
-0.35,0.8,0.06
-0.38,0.84,0.06
-0.4,0.88,0.06
-0.42,0.91,0.06
-0.44,0.94,0.06
-0.44,0.96,0.05
-0.44,0.98,0.05
-0.44,0.99,0.05
-0.46,1,0.08
-0.48,1.01,0.14
-0.53,1.02,0.18
-0.59,1.04,0.14
-0.61,1.08,0.05
-0.62,1.15,-0.03
-0.65,1.23,-0.06
-0.71,1.3,-0.07
-0.79,1.36,0.01
-0.93,1.46,0.07
-0.94,1.47,0.12
-0.93,1.47,0.1
-0.92,1.52,0.04
-0.92,1.61,-0.03
-0.92,1.71,-0.08
-0.93,1.79,-0.1
-0.93,1.85,-0.1
-0.93,1.91,-0.08
-0.92,1.96,-0.04
-0.91,2.01,-0.02
-0.89,2.06,-0.02
-0.85,2.05,-0.02
-0.8,1.92,0.01
-0.77,1.7,0.09
-0.8,1.51,0.17
-0.85,1.47,0.19
-0.85,1.56,0.19
-0.81,1.65,0.19
-0.76,1.69,0.17
-0.71,1.69,0.12
-0.62,1.65,0.06
-0.55,1.57,0.02
-0.5,1.46,0.01
-0.5,1.33,0.04
-0.51,1.2,0.09
-0.54,1.09,0.15
-0.56,1.01,0.19
-0.57,0.93,0.18
-0.52,0.91,0.13
-0.44,0.89,0.06
-0.35,0.87,0.01
-0.29,0.84,-0.02
-0.25,0.81,-0.03
-0.25,0.77,-0.01
-0.26,0.75,0.01
-0.28,0.74,0.02
-0.29,0.76,0.02
-0.29,0.78,0.02
-0.28,0.78,0.02
-0.27,0.78,0.02
-0.24,0.76,0
-0.21,0.74,-0.02
-0.18,0.69,-0.03
-0.17,0.64,-0.01
-0.18,0.59,0
-0.18,0.55,0.03
-0.19,0.52,0.05
-0.2,0.48,0.05
-0.2,0.45,0.06
-0.19,0.42,0.07
-0.19,0.4,0.07
-0.18,0.39,0.07
-0.16,0.39,0.06
-0.15,0.41,0.05
-0.16,0.43,0.05
-0.17,0.44,0.06
-0.14,0.47,0.06
-0.14,0.49,0.05
-0.13,0.5,0.05
-0.14,0.49,0.06
-0.18,0.48,0.05
-0.24,0.49,0.04
-0.28,0.53,0.03
-0.33,0.59,0.04
-0.38,0.62,0.06
-0.41,0.64,0.08
-0.42,0.65,0.09
-0.42,0.66,0.11
-0.41,0.68,0.11
-0.4,0.71,0.08
-0.39,0.77,0.03
-0.38,0.85,0
-0.41,0.94,0
-0.44,1.01,0
-0.47,1.08,-0.02
-0.5,1.16,-0.03
-0.52,1.26,-0.02
-0.57,1.38,0.01
-0.62,1.5,0.03
-0.63,1.62,0
-0.61,1.74,-0.07
-0.58,1.89,-0.13
-0.59,2.3,-0.22
-0.6,2.21,-0.18
-0.62,2,-0.13
-0.66,1.74,-0.09
-0.7,1.53,-0.04
-0.75,1.4,0.01
-0.77,1.37,0.04
-0.78,1.44,0.06
-0.78,1.57,0.06
-0.77,1.7,0.06
-0.73,1.77,0.05
-0.66,1.76,-0.01
-0.57,1.75,-0.09
-0.47,1.79,-0.14
-0.41,1.82,-0.16
-0.38,1.83,-0.16
-0.35,1.82,-0.13
-0.34,1.78,-0.07
-0.35,1.7,0
-0.37,1.61,0.07
-0.37,1.52,0.12
-0.36,1.44,0.17
-0.34,1.37,0.18
-0.31,1.31,0.15
-0.27,1.26,0.11
-0.24,1.2,0.08
-0.21,1.16,0.05
-0.2,1.12,0.02
-0.22,1.07,0.02
-0.26,0.97,0.06
-0.34,0.92,0.09
-0.39,0.87,0.11
-0.43,0.83,0.12
-0.45,0.79,0.13
-0.46,0.73,0.13
-0.46,0.68,0.13
-0.45,0.65,0.13
-0.43,0.62,0.14
-0.41,0.59,0.15
-0.41,0.55,0.15
-0.38,0.54,0.15
-0.35,0.55,0.13
-0.33,0.57,0.11
-0.32,0.58,0.11
-0.33,0.59,0.12
-0.35,0.61,0.14
-0.37,0.62,0.14
-0.37,0.63,0.13
-0.36,0.65,0.1
-0.37,0.67,0.08
-0.38,0.68,0.06
-0.4,0.71,0.04
-0.42,0.74,0.03
-0.45,0.76,0.02
-0.47,0.78,0.01
-0.5,0.81,-0.01
-0.52,0.83,-0.02
-0.54,0.87,-0.05
-0.59,0.98,-0.06
-0.63,1.07,-0.05
-0.66,1.16,-0.04
-0.69,1.23,-0.05
-0.71,1.27,-0.07
-0.75,1.29,-0.09
-0.77,1.3,-0.09
-0.81,1.31,-0.07
-0.85,1.36,-0.05
-0.87,1.44,-0.03
-0.9,1.52,-0.03
-0.95,1.6,-0.04
-0.99,1.71,-0.04
-1,1.86,-0.05
-0.98,2,-0.06
-0.96,2.1,-0.09
-0.94,2.18,-0.13
-0.91,2.25,-0.16
-0.89,2.33,-0.17
-0.87,2.38,-0.16
-0.85,2.38,-0.15
-0.82,2.33,-0.14
-0.78,2.2,-0.12
-0.75,2.04,-0.1
-0.75,1.95,-0.07
-0.76,1.97,-0.01
-0.77,2.05,0.04
-0.76,2.14,0.04
-0.71,2.16,-0.07
-0.56,2.08,-0.12
-0.48,1.95,-0.15
-0.41,1.79,-0.13
-0.36,1.6,-0.1
-0.35,1.44,-0.06
-0.35,1.3,-0.02
-0.34,1.2,0.04
-0.34,1.12,0.06
-0.31,1.06,0.03
-0.24,1.01,-0.02
-0.16,0.93,-0.07
-0.11,0.85,-0.11
-0.08,0.79,-0.14
-0.07,0.76,-0.14
-0.06,0.73,-0.13
-0.06,0.71,-0.12
-0.07,0.71,-0.09
-0.09,0.7,-0.07
-0.27,0.77,0.06
-0.27,0.77,0.06
-0.3,0.83,0.07
-0.31,0.88,0.12
-0.33,0.93,0.19
-0.36,1.01,0.12
-0.36,1.01,0.12
-0.34,1.05,0.04
-0.33,1.1,0
-0.37,1.16,-0.01
-0.52,1.42,0.06
-0.52,1.42,0.06
-0.53,1.55,0.07
-0.52,1.83,0.06
-0.51,1.96,0.03
-0.52,2.07,0
-0.53,2.16,-0.03
-0.53,2.23,-0.06
-0.54,2.29,-0.07
-0.55,2.34,-0.07
-0.57,2.37,-0.04
-0.59,2.32,-0.03
-0.59,2.17,-0.03
-0.57,1.97,-0.03
-0.57,1.78,-0.03
-0.56,1.64,-0.02
-0.56,1.63,0.01
-0.58,1.72,0.04
-0.6,1.84,0.06
-0.6,1.91,0.06
-0.6,1.92,0.06
-0.58,1.9,0.05
-0.55,1.87,0.03
-0.52,1.8,0.02
-0.51,1.72,0.01
-0.51,1.63,0
-0.51,1.54,-0.01
-0.51,1.45,0
-0.52,1.35,0.02
-0.54,1.26,0.05
-0.55,1.17,0.07
-0.57,1.01,0.08
-0.58,0.96,0.11
-0.58,0.9,0.14
-0.56,0.83,0.15
-0.54,0.77,0.14
-0.52,0.73,0.11
-0.52,0.7,0.11
-0.53,0.69,0.13
-0.55,0.66,0.16
-0.57,0.63,0.17
-0.58,0.62,0.17
-0.56,0.62,0.16
-0.55,0.62,0.16
-0.54,0.63,0.17
-0.54,0.64,0.18
-0.54,0.66,0.2
-0.51,0.68,0.23
-0.48,0.7,0.26
-0.44,0.71,0.26
-0.39,0.72,0.25
-0.33,0.73,0.25
-0.28,0.73,0.25
-0.21,0.75,0.25
-0.13,0.78,0.25
-0.06,0.82,0.26
-0.01,0.87,0.28
0.04,0.91,0.29
0.08,0.94,0.28
0.1,0.96,0.26
0.08,0.95,0.26
0.05,0.92,0.24
0,0.9,0.19
-0.05,0.9,0.12
-0.1,0.93,0.06
-0.14,1.02,0.02
-0.18,1.14,0.03
-0.23,1.22,0.05
-0.3,1.24,0.02
-0.36,1.24,-0.03
-0.41,1.23,-0.07
-0.48,1.23,-0.09
-0.55,1.24,-0.1
-0.62,1.26,-0.09
-0.68,1.28,-0.07
-0.72,1.31,-0.06
-0.75,1.33,-0.06
-0.78,1.36,-0.09
-0.8,1.41,-0.16
-0.81,1.5,-0.23
-0.82,1.59,-0.26
-0.86,1.67,-0.24
-0.92,1.74,-0.17
-1,1.8,-0.08
-1.07,1.85,-0.02
-1.11,1.89,0.02
-1.13,1.91,0.05
-1.12,1.89,0.07
-1.09,1.59,0.18
-1.03,1.44,0.23
-1.04,1.43,0.24
-1.03,1.58,0.23
-0.99,1.81,0.21
-0.92,2,0.17
-0.84,2.12,0.09
-0.72,2.16,-0.01
-0.59,2.1,-0.1
-0.49,1.96,-0.14
-0.45,1.77,-0.12
-0.45,1.6,-0.05
-0.46,1.46,0.02
-0.44,1.35,0.06
-0.43,1.27,0.08
-0.41,1.21,0.1
-0.37,1.15,0.1
-0.1,0.97,-0.04
-0.1,0.97,-0.04
-0.08,0.94,0
-0.09,0.91,0.05
-0.1,0.91,0.07
-0.13,0.33,0.12
-0.13,0.36,0.13
-0.13,0.39,0.14
-0.13,0.41,0.16
-0.13,0.43,0.17
-0.13,0.49,0.1
-0.13,0.49,0.1
-0.13,0.49,0.08
-0.16,0.51,0.09
-0.2,0.53,0.12
-0.36,0.99,0.21
-0.39,1.06,0.32
-0.43,1.17,0.36
-0.43,1.3,0.29
-0.38,1.43,0.16
-0.31,1.56,0.02
-0.28,1.75,-0.12
-0.29,1.98,-0.2
-0.32,2.14,-0.21
-0.38,2.14,-0.14
-0.47,2.04,0
-0.56,1.92,0.18
-0.65,1.84,0.34
-0.7,1.81,0.41
-0.7,1.8,0.35
-0.68,1.83,0.23
-0.65,1.9,0.13
-0.61,2,0.13
-0.59,2.08,0.2
-0.58,2.12,0.24
-0.55,2.12,0.22
-0.5,1.63,0.21
-0.47,1.58,0.24
-0.45,1.51,0.29
-0.43,1.44,0.31
-0.39,1.37,0.3
-0.35,1.28,0.28
-0.33,1.19,0.26
-0.33,1.11,0.26
-0.34,1.06,0.25
-0.35,1.03,0.24
-0.39,1.01,0.27
-0.45,0.98,0.31
-0.5,0.96,0.33
-0.51,0.92,0.34
-0.52,0.88,0.33
-0.55,0.85,0.32
-0.55,0.82,0.31
-0.55,0.78,0.3
-0.55,0.74,0.27
-0.55,0.71,0.26
-0.54,0.68,0.24
-0.52,0.65,0.23
-0.49,0.62,0.23
-0.45,0.61,0.24
-0.4,0.61,0.24
-0.35,0.62,0.22
-0.27,0.63,0.21
-0.24,0.65,0.19
-0.23,0.66,0.16
-0.23,0.68,0.13
-0.26,0.7,0.11
-0.31,0.72,0.09
-0.36,0.75,0.09
-0.42,0.8,0.08
-0.47,0.87,0.07
-0.52,0.95,0.06
-0.55,1.04,0.06
-0.57,1.11,0.06
-0.59,1.16,0.06
-0.61,1.2,0.04
-0.62,1.22,0.03
-0.62,1.24,0.01
-0.6,1.27,-0.02
-0.6,1.33,-0.04
-0.6,1.41,-0.03
-0.61,1.51,-0.03
-0.6,1.6,-0.04
-0.6,1.67,-0.05
-0.6,1.7,-0.07
-0.6,1.71,-0.09
-0.6,1.71,-0.12
-0.63,1.73,-0.17
-0.68,1.76,-0.23
-0.73,1.8,-0.29
-0.77,1.86,-0.37
-0.94,2.03,-0.39
-1.1,2.1,-0.43
-1.26,2.13,-0.52
-1.35,2.15,-0.61
-1.35,2.13,-0.66
-1.31,2.1,-0.69
-1.27,2.07,-0.72
-1.21,2.05,-0.79
-1.14,1.99,-0.81
-1.08,1.89,-0.77
-1.09,1.8,-0.68
-1.13,1.81,-0.58
-1.12,1.9,-0.51
-1.06,1.99,-0.46
-0.96,2.04,-0.44
-0.33,1.34,-0.29
-0.29,1.18,-0.29
-0.24,1.05,-0.25
-0.19,0.93,-0.22
-0.17,0.82,-0.19
-0.17,0.73,-0.17
-0.17,0.67,-0.16
-0.16,0.64,-0.17
-0.13,0.6,-0.2
-0.12,0.57,-0.21
-0.22,0.35,-0.01
-0.23,0.33,0.02
-0.25,0.32,0.05
-0.27,0.31,0.1
-0.31,0.3,0.14
-0.5,0.64,0.37
-0.5,0.71,0.38
-0.49,0.78,0.37
-0.46,0.82,0.36
-0.43,0.85,0.33
-0.62,1.85,0.4
-0.58,1.74,0.35
-0.55,1.65,0.32
-0.55,1.55,0.31
-0.56,1.46,0.32
-0.58,1.4,0.31
-0.57,1.36,0.29
-0.54,1.33,0.27
-0.5,1.28,0.24
-0.46,1.25,0.24
-0.44,1.21,0.24
-0.42,1.16,0.24
-0.39,1.11,0.24
-0.37,1.05,0.23
-0.37,0.99,0.22
-0.45,0.81,0.22
-0.45,0.79,0.2
-0.46,0.77,0.19
-0.49,0.76,0.19
-0.51,0.76,0.18
-0.52,0.74,0.18
-0.54,0.71,0.16
-0.6,0.69,0.14
-0.62,0.69,0.13
-0.64,0.67,0.11
-0.65,0.66,0.1
-0.67,0.65,0.09
-0.67,0.66,0.09
-0.66,0.68,0.08
-0.65,0.71,0.08
-0.62,0.73,0.08
-0.6,0.75,0.07
-0.58,0.77,0.05
-0.56,0.78,0.03
-0.55,0.8,0.02
-0.54,0.82,0.01
-0.54,0.84,0
-0.53,0.87,0
-0.53,0.91,-0.01
-0.52,0.95,-0.02
-0.85,1.57,-0.28
-0.91,1.69,-0.29
-0.97,1.82,-0.27
-1.06,1.96,-0.24
-1.15,2.06,-0.24
-0.52,1.39,-0.16
-0.52,1.39,-0.16
-0.5,1.3,-0.09
-0.5,1.22,-0.03
-0.5,1.15,0
-0.23,0.78,-0.01
-0.2,0.76,-0.06
-0.15,0.74,-0.09
-0.11,0.69,-0.1
-0.06,0.65,-0.1
-0.19,0.51,0.2
-0.22,0.51,0.2
-0.21,0.51,0.2
-0.18,0.52,0.16
-0.18,0.54,0.12
-0.17,0.57,0.09
-0.17,0.61,0.05
-0.18,0.64,0.03
-0.2,0.68,0.06
-0.22,0.74,0.09
-0.22,0.8,0.13
-0.21,0.87,0.17
-0.19,0.94,0.18
-0.18,1.02,0.15
-0.15,1.13,0.08
-0.34,1.55,0.03
-0.41,1.67,0.09
-0.47,1.8,0.15
-0.49,1.93,0.18
-0.47,2.05,0.17
-0.58,0.6,0.21
-0.57,0.57,0.21
-0.55,0.56,0.2
-0.54,0.55,0.2
-0.51,0.57,0.21
-0.6,1.1,-0.08
-0.62,1.18,-0.08
-0.65,1.26,-0.08
-0.67,1.34,-0.08
-0.67,1.4,-0.11
-0.2,0.45,0.07
-0.22,0.45,0.08
-0.22,0.45,0.08
-0.24,0.45,0.1
-0.25,0.46,0.14
-0.65,2.22,-0.17
-0.65,2.22,-0.17
-0.59,2.19,-0.17
-0.53,2.12,-0.16
-0.48,2.02,-0.16
-0.19,1.37,-0.12
-0.15,1.3,-0.11
-0.13,1.19,-0.08
-0.11,1.15,-0.07
-0.1,1.12,-0.07
-0.16,0.54,0.06
-0.16,0.54,0.06
-0.18,0.56,0.08
-0.2,0.58,0.13
-0.21,0.6,0.15
-0.38,0.74,0.25
-0.38,0.74,0.25
-0.37,0.76,0.25
-0.37,0.78,0.24
-0.36,0.8,0.21
-0.58,2.04,0.17
-0.58,2.04,0.1
-0.5,2.19,0.01
-0.43,2.17,-0.06
-0.34,2.07,-0.11
-0.45,1.83,0.02
-0.44,1.68,0.03
-0.42,1.54,0.03
-0.41,1.43,0.03
-0.39,1.34,0.02
-0.42,1.4,-0.08
-0.44,1.45,-0.08
-0.46,1.49,-0.07
-0.46,1.51,-0.06
-0.46,1.54,-0.04
-0.38,0.98,0
-0.41,1.05,-0.01
-0.43,1.11,-0.02
-0.44,1.17,-0.04
-0.45,1.21,-0.06
-0.4,2.07,-0.14
-0.41,2.05,-0.17
-0.42,1.99,-0.18
-0.45,1.94,-0.19
-0.46,1.94,-0.19
-0.26,0.49,0.06
-0.26,0.49,0.06
-0.28,0.46,0.07
-0.28,0.44,0.05
-0.28,0.42,0.01
-0.33,0.67,-0.11
-0.33,0.67,-0.11
-0.33,0.7,-0.11
-0.31,0.72,-0.11
-0.31,0.74,-0.11
-0.52,0.83,0.01
-0.52,0.88,-0.01
-0.52,0.88,-0.01
-0.51,0.99,-0.03
-0.5,1.06,-0.04
-0.58,1.63,0
-0.58,1.63,0
-0.61,1.69,0.05
-0.64,1.77,0.09
-0.66,1.84,0.11
-0.8,2.02,0.09
-0.77,1.99,0.05
-0.75,1.95,0.04
-0.74,1.88,0.07
-0.73,1.75,0.11
-0.68,0.81,0.12
-0.68,0.81,0.12
-0.76,0.83,0.21
-0.78,0.85,0.25
-0.77,0.89,0.25
-0.21,0.21,0.13
-0.24,0.22,0.14
-0.26,0.23,0.13
-0.27,0.25,0.12
-0.3,0.27,0.15
-0.86,1.64,-0.03
-0.86,1.64,-0.03
-0.85,1.67,-0.01
-0.83,1.68,0.02
-0.81,1.66,0.03
-0.6,0.74,0.1
-0.6,0.74,0.1
-0.6,0.73,0.1
-0.59,0.73,0.11
-0.58,0.73,0.12
-0.56,0.73,0.13
-0.55,0.74,0.13
-0.53,0.75,0.12
-0.51,0.77,0.11
-0.5,0.88,0.11
-0.45,0.91,0.12
-0.42,0.9,0.12
-0.38,0.89,0.15
-0.37,0.9,0.19
-0.38,0.92,0.24
-0.38,0.91,0.28
-0.37,0.88,0.28
-0.33,0.87,0.26
-0.28,0.87,0.25
-0.26,0.86,0.24
-0.26,0.87,0.25
-0.27,0.92,0.26
-0.29,1,0.27
-0.31,1.11,0.29
-0.32,1.21,0.29
-0.33,1.28,0.27
-0.31,1.32,0.25
-0.28,1.31,0.21
-0.26,1.26,0.19
-0.24,1.18,0.18
-0.25,1.11,0.2
-0.26,1.06,0.22
-0.27,1.02,0.25
-0.28,1,0.29
-0.29,0.99,0.31
-0.27,1.01,0.31
-0.25,1.02,0.3
-0.23,1.04,0.26
-0.18,1.1,0.24
-0.15,1.13,0.23
-0.12,1.13,0.22
-0.09,1.12,0.22
-0.08,1.11,0.22
-0.07,1.1,0.22
-0.06,1.09,0.22
-0.05,1.08,0.22
-0.05,1.06,0.22
-0.07,1.05,0.22
-0.08,1.04,0.21
-0.1,1.02,0.2
-0.11,1,0.2
-0.12,0.98,0.19
-0.12,0.96,0.18
-0.12,0.95,0.18
-0.14,0.95,0.18
-0.17,0.96,0.19
-0.2,0.96,0.2
-0.24,0.96,0.2
-0.27,0.95,0.2
-0.31,0.94,0.2
-0.34,0.94,0.19
-0.36,0.94,0.19
-0.38,0.93,0.19
-0.39,0.93,0.19
-0.4,0.93,0.19
-0.41,0.93,0.19
-0.42,0.94,0.2
-0.44,0.95,0.21
-0.47,0.96,0.22
-0.48,0.96,0.22
-0.49,0.96,0.22
-0.5,0.96,0.22
-0.5,0.96,0.22
-0.5,0.96,0.22
-0.51,0.96,0.21
-0.51,0.96,0.2
-0.52,0.97,0.19
-0.55,1.04,0.19
-0.58,1.13,0.2
-0.58,1.19,0.19
-0.55,1.21,0.18
-0.53,1.2,0.15
-0.53,1.2,0.11
-0.52,1.2,0.09
-0.52,1.18,0.08
-0.51,1.17,0.06
-0.49,1.16,0.04
-0.48,1.16,0.01
-0.49,1.42,-0.02
-0.49,1.42,-0.02
-0.47,1.48,-0.02
-0.45,1.52,-0.03
-0.42,1.54,-0.06
-0.35,1.55,-0.09
-0.33,1.55,-0.11
-0.31,1.52,-0.12
-0.3,1.5,-0.11
-0.3,1.47,-0.1
-0.3,1.45,-0.09
-0.31,1.43,-0.07
-0.31,1.41,-0.05
-0.32,1.38,-0.03
-0.33,1.36,-0.02
-0.34,1.36,-0.02
-0.35,1.36,-0.02
-0.33,1.37,-0.02
-0.32,1.36,-0.03
-0.3,1.35,-0.04
-0.29,1.32,-0.04
-0.27,1.28,-0.04
-0.26,1.24,-0.04
-0.26,1.19,-0.03
-0.25,1.15,0
-0.24,1.12,0.03
-0.25,1.1,0.05
-0.25,1.06,0.07
-0.24,1.03,0.07
-0.22,0.98,0.06
-0.2,0.93,0.04
-0.17,0.88,0.03
-0.16,0.83,0.04
-0.14,0.79,0.08
-0.13,0.72,0.1
-0.12,0.7,0.11
-0.11,0.69,0.11
-0.09,0.68,0.09
-0.07,0.67,0.07
-0.06,0.66,0.06
-0.05,0.65,0.04
-0.04,0.64,0.04
-0.04,0.63,0.05
-0.04,0.61,0.05
-0.06,0.59,0.07
-0.15,0.77,0.1
-0.15,0.79,0.1
-0.15,0.82,0.09
-0.16,0.87,0.07
-0.19,0.93,0.05
-0.37,1.56,0.18
-0.37,1.56,0.18
-0.4,1.73,0.18
-0.41,1.76,0.16
-0.41,1.75,0.14
-0.42,1.72,0.11
-0.42,1.65,0.08
-0.43,1.55,0.06
-0.44,1.45,0.05
-0.45,1.34,0.05
-0.46,1.24,0.06
-0.47,1.16,0.07
-0.48,1.1,0.08
-0.49,1.08,0.07
-0.48,1.07,0.06
-0.47,1.08,0.04
-0.46,1.08,0.03
-0.44,1.09,0.02
-0.43,1.1,0.01
-0.41,1.11,0
-0.41,1.14,-0.04
-0.41,1.14,-0.04
-0.41,1.14,-0.05
-0.41,1.12,-0.05
-0.41,1.09,-0.04
-0.41,1.05,-0.03
-0.42,1.01,-0.02
-0.42,0.97,0
-0.42,0.94,0.02
-0.44,0.91,0.04
-0.45,0.87,0.07
-0.47,0.87,0.1
-0.51,0.88,0.12
-0.54,0.9,0.12
-0.57,0.92,0.12
-0.59,0.95,0.13
-0.61,0.99,0.14
-0.63,1.03,0.14
-0.64,1.07,0.13
-0.64,1.1,0.1
-0.68,1.4,0.07
-0.67,1.33,0.08
-0.66,1.23,0.09
-0.67,1.18,0.1
-0.69,1.18,0.12
-0.68,1.19,0.14
-0.66,1.15,0.14
-0.64,1.13,0.12
-0.63,1.18,0.1
-0.62,1.27,0.09
-0.61,1.34,0.08
-0.59,1.39,0.07
-0.56,1.39,0.06
-0.52,1.38,0.05
-0.49,1.3,0.05
-0.44,1.25,0.06
-0.42,1.21,0.06
-0.4,1.18,0.06
-0.39,1.18,0.05
-0.38,1.19,0.04
-0.36,1.21,0.04
-0.34,1.23,0.02
-0.32,1.25,0.02
-0.31,1.26,0.02
-0.3,1.28,0.01
-0.3,1.3,0.01
-0.29,1.32,0.01
-0.28,1.33,0
-0.26,1.35,-0.01
-0.26,1.35,-0.01
-0.26,1.34,-0.01
-0.25,1.32,-0.01
-0.24,1.29,-0.02
-0.23,1.25,-0.03
-0.21,1.22,-0.03
-0.2,1.18,-0.03
-0.2,1.14,-0.04
-0.19,1.1,-0.04
-0.19,1.05,-0.05
-0.18,1,-0.05
-0.17,0.94,-0.05
-0.17,0.9,-0.04
-0.17,0.87,-0.03
-0.19,0.88,-0.02
-0.19,0.89,-0.02
-0.19,0.92,-0.01
-0.18,0.95,0
-0.18,0.98,-0.01
-0.16,0.98,-0.01
-0.14,0.95,-0.02
-0.13,0.91,-0.03
-0.11,0.88,-0.03
-0.12,0.89,-0.03
-0.15,0.96,-0.03
-0.15,0.99,-0.02
-0.15,0.97,-0.03
-0.15,0.98,-0.03
-0.17,1.02,-0.03
-0.17,1,-0.04
-0.18,0.96,-0.04
-0.2,0.92,-0.03
-0.21,0.9,-0.02
-0.23,0.89,-0.01
-0.27,0.91,0.02
-0.3,0.95,0.08
-0.32,1.02,0.13
-0.33,1.1,0.17
-0.34,1.15,0.04
-0.34,1.1,0.02
-0.34,1.06,0.02
-0.37,1.04,0.02
-0.41,1.03,0.03
-0.4,1.03,0.01
-0.41,1.05,0.01
-0.42,1.07,-0.01
-0.41,1.09,-0.03
-0.41,1.12,-0.05
-0.42,1.16,-0.06
-0.44,1.2,-0.06
-0.45,1.23,-0.06
-0.44,1.24,-0.08
-0.44,1.23,-0.08
-0.44,1.21,-0.08
-0.46,1.18,-0.06
-0.47,1.14,-0.03
-0.49,1.1,0
-0.51,1.07,0.03
-0.53,1.04,0.06
-0.56,1.03,0.08
-0.58,1.04,0.1
-0.6,1.06,0.11
-0.62,1.13,0.12
-0.62,1.16,0.12
-0.63,1.18,0.12
-0.63,1.2,0.1
-0.62,1.19,0.07
-0.6,1.15,0.05
-0.6,1.11,0.06
-0.63,1.18,0.12
-0.68,1.33,0.17
-0.7,1.38,0.19
-0.7,1.3,0.18
-0.68,1.22,0.15
-0.68,1.22,0.16
-0.68,1.22,0.19
-0.65,1.15,0.2
-0.61,1.05,0.2
-0.56,0.99,0.2
-0.53,0.96,0.2
-0.53,0.99,0.21
-0.54,1.05,0.22
-0.55,1.12,0.23
-0.55,1.19,0.22
-0.54,1.23,0.21
-0.52,1.26,0.19
-0.48,1.26,0.16
-0.45,1.26,0.14
-0.41,1.25,0.12
-0.38,1.23,0.11
-0.36,1.22,0.1
-0.34,1.2,0.1
-0.34,1.19,0.09
-0.33,1.18,0.08
-0.33,1.17,0.08
-0.32,1.17,0.08
-0.32,1.17,0.08
-0.32,1.18,0.07
-0.31,1.2,0.06
-0.3,1.22,0.05
-0.29,1.25,0.04
-0.28,1.27,0.04
-0.27,1.28,0.03
-0.26,1.29,0.02
-0.25,1.28,0
-0.23,1.26,-0.01
-0.22,1.23,-0.02
-0.21,1.18,-0.03
-0.2,1.14,-0.03
-0.2,1.09,-0.03
-0.2,1.04,-0.02
-0.2,0.99,0
-0.2,0.95,0.01
-0.21,0.93,0.02
-0.21,0.92,0.03
-0.22,0.92,0.03
-0.22,0.92,0.03
-0.21,0.91,0.03
-0.2,0.91,0.02
-0.18,0.91,0.05
-0.18,0.9,0.07
-0.18,0.89,0.07
-0.17,0.88,0.06
-0.15,0.85,0.05
-0.13,0.82,0.05
-0.13,0.81,0.06
-0.13,0.83,0.07
-0.15,0.88,0.09
-0.15,0.91,0.1
-0.14,0.91,0.11
-0.15,0.92,0.12
-0.16,0.96,0.12
-0.16,0.99,0.13
-0.16,1,0.14
-0.18,1,0.14
-0.19,0.99,0.14
-0.2,0.97,0.14
-0.21,0.94,0.14
-0.22,0.94,0.15
-0.24,0.97,0.16
-0.26,1.03,0.18
-0.28,1.11,0.2
-0.3,1.21,0.2
-0.32,1.32,0.19
-0.32,1.41,0.15
-0.31,1.48,0.11
-0.3,1.52,0.05
-0.31,1.52,-0.05
-0.33,1.43,-0.08
-0.34,1.36,-0.1
-0.36,1.29,-0.08
-0.41,1.23,-0.08
-0.43,1.17,-0.1
-0.44,1.13,-0.1
-0.47,1.11,-0.09
-0.5,1.1,-0.08
-0.51,1.1,-0.08
-0.52,1.11,-0.08
-0.51,1.12,-0.1
-0.5,1.13,-0.13
-0.49,1.14,-0.15
-0.46,1.15,-0.17
-0.44,1.15,-0.19
-0.43,1.15,-0.2
-0.41,1.14,-0.2
-0.42,1.12,-0.19
-0.44,1.1,-0.16
-0.45,1.07,-0.13
-0.46,1.04,-0.1
-0.48,1,-0.07
-0.5,0.96,-0.03
-0.53,0.92,0.01
-0.54,0.9,0.05
-0.56,0.89,0.08
-0.58,0.91,0.09
-0.6,0.94,0.08
-0.62,1.04,0.04
-0.7,1.08,0.03
-0.74,1.11,0.02
-0.77,1.1,0
-0.77,1.07,-0.03
-0.77,1.02,-0.03
-0.79,0.99,0
-0.85,1.06,0.06
-0.89,1.23,0.09
-0.86,1.33,0.08
-0.82,1.3,0.06
-0.79,1.25,0.08
-0.76,1.25,0.11
-0.72,1.24,0.14
-0.67,1.19,0.16
-0.64,1.11,0.19
-0.62,1.03,0.22
-0.6,0.97,0.26
-0.58,0.96,0.29
-0.58,1,0.3
-0.58,1.11,0.29
-0.57,1.24,0.26
-0.55,1.37,0.22
-0.53,1.47,0.21
-0.49,1.53,0.21
-0.46,1.55,0.23
-0.44,1.57,0.29
-0.44,1.59,0.36
-0.44,1.61,0.35
-0.39,1.61,0.31
-0.35,1.59,0.28
-0.32,1.58,0.27
-0.3,1.56,0.26
-0.28,1.55,0.26
-0.25,1.54,0.24
-0.23,1.52,0.23
-0.21,1.5,0.22
-0.19,1.46,0.21
-0.15,1.41,0.21
-0.12,1.33,0.2
-0.1,1.26,0.18
-0.07,1.18,0.16
-0.04,1.09,0.15
-0.03,0.99,0.15
-0.03,0.9,0.15
-0.04,0.82,0.14
-0.04,0.75,0.13
-0.03,0.68,0.12
-0.02,0.61,0.11
-0.02,0.56,0.09
-0.01,0.51,0.08
-0.01,0.48,0.08
-0.01,0.45,0.07
-0.01,0.42,0.06
-0.01,0.42,0.05
-0.01,0.43,0.03
-0.03,0.44,0.01
-0.03,0.44,-0.02
-0.06,0.5,-0.04
-0.08,0.54,-0.06
-0.09,0.59,-0.08
-0.1,0.64,-0.11
-0.12,0.69,-0.12
-0.15,0.75,-0.12
-0.17,0.82,-0.11
-0.2,0.91,-0.1
-0.23,1.03,-0.1
-0.27,1.16,-0.11
-0.28,1.26,-0.11
-0.3,1.34,-0.12
-0.33,1.42,-0.13
-0.36,1.5,-0.12
-0.39,1.58,-0.1
-0.41,1.62,-0.07
-0.43,1.61,-0.04
-0.46,1.58,0
-0.5,1.55,0.06
-0.54,1.52,0.13
-0.57,1.5,0.2
-0.57,1.5,0.23
-0.54,1.52,0.23
-0.5,1.53,0.17
-0.46,1.52,0.09
-0.43,1.5,0.01
-0.39,1.46,-0.03
-0.34,1.41,-0.04
-0.26,1.26,0
-0.27,1.19,0.01
-0.29,1.14,0.02
-0.32,1.1,0.02
-0.36,1.07,0.03
-0.4,1.04,0.04
-0.42,1.01,0.04
-0.43,0.99,0.03
-0.43,0.97,0.02
-0.43,0.96,0
-0.41,0.94,-0.01
-0.39,0.92,-0.01
-0.38,0.9,-0.01
-0.38,0.89,0.01
-0.38,0.88,0.03
-0.38,0.85,0.03
-0.37,0.82,0.04
-0.36,0.8,0.05
-0.37,0.78,0.07
-0.39,0.77,0.11
-0.42,0.77,0.14
-0.43,0.78,0.16
-0.45,0.81,0.16
-0.46,0.84,0.15
-0.48,0.86,0.16
-0.5,0.87,0.17
-0.51,0.9,0.18
-0.53,0.93,0.19
-0.56,0.97,0.2
-0.61,1.08,0.21
-0.62,1.13,0.23
-0.63,1.16,0.24
-0.63,1.16,0.23
-0.63,1.19,0.23
-0.63,1.28,0.24
-0.63,1.36,0.24
-0.61,1.36,0.22
-0.58,1.31,0.2
-0.57,1.26,0.21
-0.56,1.26,0.22
-0.55,1.3,0.23
-0.53,1.32,0.25
-0.51,1.27,0.25
-0.48,1.17,0.25
-0.47,1.07,0.25
-0.45,0.98,0.24
-0.44,0.91,0.25
-0.45,0.9,0.26
-0.46,0.95,0.27
-0.47,1.03,0.25
-0.46,1.12,0.22
-0.44,1.17,0.18
-0.41,1.2,0.16
-0.39,1.2,0.15
-0.36,1.22,0.15
-0.34,1.25,0.16
-0.32,1.27,0.16
-0.3,1.28,0.12
-0.27,1.26,0.1
-0.25,1.23,0.08
-0.24,1.21,0.07
-0.23,1.18,0.06
-0.22,1.15,0.06
-0.23,1.15,0.06
-0.24,1.15,0.06
-0.25,1.16,0.06
-0.25,1.16,0.06
-0.24,1.15,0.06
-0.24,1.13,0.06
-0.23,1.1,0.05
-0.23,1.07,0.05
-0.23,1.04,0.05
-0.23,1,0.05
-0.22,0.96,0.04
-0.21,0.91,0.03
-0.2,0.87,0.03
-0.2,0.83,0.03
-0.19,0.79,0.03
-0.19,0.75,0.03
-0.18,0.73,0.04
-0.18,0.72,0.04
-0.18,0.71,0.04
-0.18,0.71,0.04
-0.17,0.71,0.04
-0.16,0.71,0.04
-0.15,0.73,0.01
-0.14,0.76,-0.01
-0.12,0.78,-0.02
-0.12,0.79,-0.02
-0.12,0.81,-0.02
-0.12,0.82,-0.02
-0.13,0.85,-0.02
-0.15,0.88,-0.02
-0.18,0.92,-0.02
-0.21,0.98,-0.03
-0.24,1.08,-0.02
-0.24,1.16,-0.02
-0.24,1.19,-0.02
-0.23,1.22,-0.03
-0.24,1.24,-0.03
-0.27,1.27,-0.02
-0.29,1.28,-0.01
-0.3,1.26,0.01
-0.32,1.23,0.03
-0.33,1.21,0.05
-0.35,1.21,0.08
-0.37,1.19,0.12
-0.39,1.17,0.16
-0.39,1.16,0.17
-0.39,1.18,0.16
-0.39,1.23,0.12
-0.38,1.29,0.09
-0.36,1.35,0.06
-0.33,1.38,0.03
-0.31,1.36,0
-0.29,1.29,-0.01
-0.3,1.24,-0.01
-0.32,1.18,-0.01
-0.33,1.12,0
-0.35,1.05,0.01
-0.37,0.99,0.03
-0.39,0.94,0.04
-0.4,0.89,0.03
-0.41,0.84,0.03
-0.4,0.81,0.03
-0.39,0.8,0.02
-0.38,0.8,0.02
-0.36,0.8,0.02
-0.34,0.82,0.02
-0.33,0.82,0.03
-0.33,0.83,0.03
-0.32,0.83,0.03
-0.32,0.84,0.03
-0.32,0.84,0.03
-0.32,0.85,0.03
-0.32,0.86,0.04
-0.33,0.88,0.04
-0.34,0.91,0.05
-0.35,0.94,0.05
-0.37,0.97,0.04
-0.38,0.99,0.03
-0.39,0.98,0.03
-0.4,0.98,0.03
-0.41,0.95,0.07
-0.44,0.93,0.1
-0.45,0.91,0.13
-0.47,0.88,0.17
-0.48,0.85,0.21
-0.48,0.82,0.23
-0.47,0.8,0.22
-0.44,0.8,0.21
-0.42,0.82,0.2
-0.4,0.85,0.18
-0.37,0.9,0.18
-0.34,0.97,0.17
-0.33,1.11,0.17
-0.34,1.33,0.19
-0.34,1.48,0.2
-0.31,1.51,0.2
-0.27,1.48,0.19
-0.23,1.44,0.16
-0.21,1.39,0.13
-0.2,1.32,0.1
-0.17,1.22,0.06
-0.14,1.1,0.03
-0.12,1.01,0.03
-0.1,0.94,0.07
-0.1,0.88,0.12
-0.11,0.84,0.16
-0.11,0.84,0.17
-0.07,0.89,0.15
0,0.93,0.12
0.14,0.93,0.08
0.17,0.94,0.05
0.2,0.96,0.02
0.23,0.98,-0.02
0.27,0.98,-0.04
0.27,0.95,-0.06
0.27,0.93,-0.08
0.26,0.93,-0.09
0.26,0.93,-0.1
0.25,0.92,-0.12
0.25,0.91,-0.15
0.25,0.91,-0.16
0.25,0.91,-0.18
0.24,0.91,-0.19
0.23,0.9,-0.2
0.21,0.9,-0.21
0.18,0.89,-0.21
0.14,0.89,-0.21
0.11,0.89,-0.19
0.09,0.9,-0.18
0.07,0.91,-0.18
0.04,0.93,-0.18
0,0.96,-0.19
-0.02,0.99,-0.21
-0.03,1.01,-0.22
-0.05,1.01,-0.23
-0.08,1.01,-0.23
-0.09,1.01,-0.24
-0.1,1.04,-0.23
-0.13,1.03,-0.24
-0.15,1.01,-0.24
-0.17,1.01,-0.23
-0.19,1,-0.21
-0.2,0.99,-0.2
-0.21,0.98,-0.2
-0.2,0.97,-0.2
-0.21,0.97,-0.21
-0.21,0.98,-0.21
-0.2,1,-0.22
-0.19,1.01,-0.24
-0.17,0.98,-0.26
-0.15,0.94,-0.27
-0.16,0.92,-0.27
-0.17,0.9,-0.25
-0.17,0.87,-0.23
-0.15,0.85,-0.22
-0.15,0.84,-0.2
-0.15,0.84,-0.19
-0.14,0.84,-0.19
-0.13,0.83,-0.2
-0.14,0.82,-0.2
-0.16,0.83,-0.2
-0.17,0.84,-0.21
-0.17,0.86,-0.22
-0.16,0.88,-0.22
-0.15,0.91,-0.2
-0.14,0.92,-0.16
-0.09,0.93,-0.17
-0.07,0.95,-0.18
-0.07,0.99,-0.17
-0.09,1.04,-0.16
-0.08,1.09,-0.15
-0.08,1.09,-0.11
-0.05,1.03,-0.05
0.03,0.93,0
0.09,0.81,0.05
0.1,0.75,0.12
0.09,0.85,0.13
0.13,1.03,0.07
0.23,1.12,0.02
0.34,1.04,-0.01
0.39,0.93,0
0.37,0.92,0.05
0.3,0.96,0.11
0.27,0.99,0.12
0.31,0.98,0.1
0.36,0.94,0.09
0.41,0.9,0.13
0.31,0.86,0.12
0.39,0.81,0.11
0.72,0.8,0.06
0.76,0.84,0.04
0.64,0.85,0.09
0.63,0.87,0.11
0.55,0.91,0.16
0.36,0.89,0.1
0.22,0.81,0.03
0.25,0.81,-0.11
0.32,0.79,-0.19
0.49,0.83,-0.13
0.48,0.87,-0.3
0.29,1,-0.21
0.07,1.14,0.2
-0.15,1.02,0.22
-0.14,1.01,0.22
-0.18,1.16,0.39
-0.26,1.28,0.31
-0.44,1.49,-0.08
-0.91,2.25,-0.35
-0.63,3.04,-0.14
0.31,2.46,0.31
0.69,1.16,0.2
0.32,0.54,-0.31
-0.31,0.56,-0.66
-0.65,0.78,-0.6
-0.7,0.93,-0.2
-0.54,1.01,0.12
-0.29,0.99,0.13
-0.17,1.03,0.02
-0.06,1.12,-0.07
-0.02,1.08,-0.11
-0.09,1,-0.09
-0.2,0.97,-0.06
-0.39,0.97,0
-0.5,0.86,-0.07
-0.38,0.9,-0.1
-0.27,0.95,-0.04
-0.21,1.01,0.07
-0.16,1.04,0.15
-0.2,1.05,0.16
-0.31,1.01,0.1
-0.41,0.96,0.01
-0.43,0.92,-0.08
-0.4,0.91,-0.12
-0.38,0.92,-0.07
-0.37,0.92,0.02
-0.36,0.89,0.08
-0.32,0.87,0.09
-0.29,0.88,0.06
-0.28,0.9,0.04
-0.27,0.92,0.03
-0.27,0.94,0.05
-0.27,0.94,0.07
-0.26,0.93,0.08
-0.27,0.91,0.08
-0.29,0.91,0.09
-0.32,0.92,0.1
-0.34,0.92,0.1
-0.36,0.91,0.09
-0.35,0.91,0.09
-0.35,0.92,0.1
-0.34,0.93,0.1
-0.35,0.93,0.12
-0.33,0.92,0.12
-0.33,0.9,0.1
-0.35,0.9,0.09
-0.34,0.9,0.09
-0.31,0.9,0.09
-0.31,0.89,0.1
-0.34,0.89,0.1
-0.35,0.93,0.08
-0.34,0.93,0.07
-0.34,0.91,0.06
-0.36,0.91,0.05
-0.37,0.92,0.05
-0.35,0.92,0.03
-0.36,0.93,0.02
-0.36,0.95,0.02
-0.35,0.95,0
-0.37,0.94,-0.02
-0.38,0.94,0
-0.38,0.93,0.02
-0.36,0.93,0.02
-0.34,0.93,0.01
-0.32,0.94,-0.01
-0.32,0.95,-0.02
-0.33,0.95,-0.02
-0.34,0.94,-0.04
-0.34,0.93,-0.05
-0.35,0.93,-0.06
-0.35,0.92,-0.09
-0.35,0.93,-0.08
-0.34,0.93,-0.05
-0.34,0.93,-0.02
-0.34,0.93,-0.02
-0.34,0.94,-0.05
-0.33,0.94,-0.05
-0.32,0.94,-0.05
-0.31,0.93,-0.04
-0.31,0.93,-0.05
-0.31,0.94,-0.06
-0.32,0.94,-0.08
-0.32,0.94,-0.09
-0.33,0.94,-0.09
-0.34,0.93,-0.08
-0.36,0.92,-0.07
-0.36,0.92,-0.08
-0.35,0.92,-0.11
-0.34,0.91,-0.14
-0.33,0.92,-0.15
-0.33,0.93,-0.15
-0.33,0.93,-0.14
-0.35,0.92,-0.13
-0.37,0.92,-0.12
-0.37,0.91,-0.11
-0.36,0.91,-0.12
-0.36,0.93,-0.12
-0.35,0.93,-0.11
-0.36,0.92,-0.1
-0.36,0.92,-0.09
-0.37,0.91,-0.09
-0.36,0.91,-0.08
-0.35,0.92,-0.07
-0.35,0.93,-0.06
-0.36,0.92,-0.07
-0.37,0.92,-0.08
-0.37,0.91,-0.09
-0.38,0.91,-0.1
-0.39,0.91,-0.09
-0.39,0.9,-0.08
-0.4,0.9,-0.06
-0.4,0.91,-0.05
-0.39,0.91,-0.04
-0.4,0.91,-0.04
-0.41,0.9,-0.06
-0.42,0.9,-0.09
-0.43,0.9,-0.1
-0.44,0.89,-0.1
-0.45,0.88,-0.1
-0.46,0.88,-0.09
-0.45,0.88,-0.07
-0.45,0.89,-0.06
-0.45,0.88,-0.05
-0.45,0.88,-0.06
-0.45,0.88,-0.05
-0.45,0.88,-0.06
-0.45,0.88,-0.05
-0.46,0.88,-0.05
-0.46,0.87,-0.03
-0.46,0.88,-0.02
-0.46,0.88,-0.02
-0.46,0.87,-0.02
-0.46,0.87,-0.03
-0.47,0.87,-0.04
-0.47,0.86,-0.04
-0.47,0.86,-0.03
-0.48,0.86,-0.02
-0.47,0.87,-0.02
-0.48,0.87,-0.02
-0.48,0.86,-0.02
-0.48,0.86,-0.03
-0.48,0.86,-0.04
-0.48,0.87,-0.05
-0.48,0.86,-0.05
-0.49,0.86,-0.05
-0.49,0.86,-0.05
-0.49,0.86,-0.06
-0.49,0.86,-0.06
-0.49,0.86,-0.06
-0.49,0.86,-0.05
-0.5,0.86,-0.05
-0.5,0.86,-0.06
-0.5,0.86,-0.06
-0.5,0.86,-0.06
-0.5,0.86,-0.06
-0.5,0.86,-0.06
-0.5,0.86,-0.06
-0.49,0.86,-0.06
-0.49,0.86,-0.05
-0.49,0.86,-0.06
-0.49,0.86,-0.06
-0.49,0.86,-0.06
-0.49,0.86,-0.06
-0.49,0.86,-0.06
-0.49,0.86,-0.06
-0.49,0.86,-0.06
-0.49,0.86,-0.05
-0.49,0.86,-0.05
-0.49,0.86,-0.06
-0.49,0.86,-0.06
-0.49,0.86,-0.06
-0.49,0.86,-0.07
-0.49,0.86,-0.07
-0.49,0.86,-0.07
-0.49,0.86,-0.07
-0.5,0.86,-0.07
-0.5,0.86,-0.07
-0.49,0.86,-0.06
-0.49,0.86,-0.06
-0.49,0.86,-0.07
-0.49,0.86,-0.07
-0.49,0.85,-0.07
-0.49,0.86,-0.07
-0.49,0.86,-0.07
-0.5,0.86,-0.07
-0.5,0.86,-0.07
-0.5,0.86,-0.07
