Acc_x,Acc_y,Acc_z
0.19,1,-0.06
0.18,0.98,-0.06
0.17,0.98,-0.05
0.17,0.97,-0.04
0.16,0.97,-0.02
0.16,0.96,0
0.18,0.96,0.02
0.2,0.96,0.03
0.21,0.97,0.04
0.2,0.97,0.03
0.2,0.96,0.01
0.22,0.95,0
0.22,0.95,0
0.24,0.95,-0.01
0.24,0.96,0
0.22,0.96,0.02
0.19,0.96,0.04
0.15,0.97,0.06
0.08,0.99,0.11
0.02,1,0.15
0.01,1,0.19
0.02,1.01,0.22
0.03,1.02,0.26
0.03,1.05,0.31
0.03,1.08,0.36
0.02,1.12,0.39
0.02,1.13,0.43
0.03,1.13,0.49
0.02,1.14,0.56
0.02,1.16,0.62
0.05,1.16,0.67
0.05,1.17,0.69
0,1.21,0.73
-0.02,1.24,0.78
-0.01,1.26,0.82
-0.02,1.25,0.84
-0.05,1.22,0.87
-0.07,1.23,0.86
-0.04,1.25,0.83
-0.02,1.29,0.81
-0.02,1.32,0.8
-0.02,1.37,0.8
-0.01,1.42,0.8
0,1.46,0.79
0.02,1.48,0.77
0.05,1.48,0.73
0.09,1.47,0.71
0.11,1.48,0.7
0.14,1.5,0.72
0.17,1.49,0.72
0.21,1.44,0.69
0.24,1.38,0.66
0.26,1.32,0.64
0.28,1.28,0.63
0.3,1.26,0.64
0.31,1.26,0.65
0.31,1.26,0.66
0.3,1.24,0.64
0.29,1.19,0.61
0.28,1.13,0.62
0.27,1.09,0.62
0.26,1.05,0.63
0.24,0.96,0.6
0.26,0.93,0.57
0.3,0.89,0.56
0.35,0.82,0.55
0.37,0.77,0.57
0.36,0.74,0.6
0.33,0.7,0.6
0.28,0.66,0.61
0.24,0.61,0.6
0.2,0.56,0.56
0.26,0.51,0.54
0.33,0.49,0.55
0.31,0.48,0.57
0.25,0.36,0.58
0.21,0.29,0.62
0.17,0.27,0.66
0.13,0.14,0.68
0.09,0.18,0.69
0.1,0.23,0.67
0.16,0.11,0.58
0.15,0.05,0.46
0.15,0.1,0.41
0.17,0.13,0.42
0.1,0.08,0.45
0.08,0.01,0.49
0.14,-0.02,0.49
0.18,-0.05,0.4
0.16,-0.16,0.35
0.15,-0.13,0.32
0.07,-0.11,0.34
0.04,-0.11,0.39
0.07,-0.15,0.45
0.09,-0.18,0.52
0.1,-0.21,0.56
0.1,-0.22,0.57
0.11,-0.2,0.56
0.1,-0.17,0.56
0.07,-0.17,0.57
0.07,-0.19,0.59
0.09,-0.23,0.62
0.11,-0.25,0.64
0.11,-0.24,0.68
0.09,-0.21,0.74
0.05,-0.17,0.77
0.02,-0.16,0.74
0.01,-0.19,0.7
0.01,-0.22,0.68
0.04,-0.22,0.69
0.09,-0.2,0.71
0.11,-0.18,0.72
0.1,-0.17,0.7
0.07,-0.16,0.68
0.03,-0.14,0.62
0.03,-0.13,0.57
0.04,-0.13,0.52
0.06,-0.12,0.46
0.09,-0.11,0.39
0.12,-0.09,0.35
0.14,-0.07,0.37
0.14,-0.04,0.4
0.13,0,0.4
0.12,0.04,0.36
0.11,0.07,0.29
0.08,0.13,0.23
0.04,0.18,0.22
0.02,0.22,0.24
0.01,0.25,0.34
0.06,0.25,0.45
0.12,0.3,0.47
0.14,0.35,0.43
0.12,0.39,0.35
0.12,0.42,0.25
0.09,0.49,0.2
0.01,0.55,0.22
-0.04,0.6,0.3
-0.02,0.66,0.35
0.11,0.75,0.38
0.22,0.85,0.41
0.25,0.92,0.4
0.11,1.01,0.38
0.03,1.03,0.37
-0.05,1.15,0.48
-0.1,1.3,0.64
-0.12,1.37,0.7
-0.1,1.33,0.69
-0.03,1.24,0.72
0.01,0.88,0.69
0.04,0.94,0.76
0.1,1.35,0.96
0.12,1.42,0.99
0.11,1.53,0.95
0.04,1.62,0.87
-0.02,1.69,0.79
-0.04,1.69,0.88
0.03,1.57,0.97
0.1,1.43,0.96
0.14,1.32,0.93
0.18,1.24,0.88
0.22,1.29,0.83
0.23,1.41,0.78
0.23,1.5,0.74
0.21,1.54,0.75
0.17,1.52,0.83
0.14,1.41,0.89
0.1,1.29,0.86
0.04,1.15,0.85
0.03,1.13,0.82
0.04,1.14,0.77
0.05,1.16,0.72
0.04,1.19,0.68
0.05,1.22,0.66
0.06,1.24,0.66
0.05,1.25,0.64
0.06,1.25,0.62
0.08,1.23,0.59
0.09,1.19,0.58
0.11,1.16,0.58
0.15,1.13,0.56
0.11,1.1,0.64
0.17,1.16,0.99
-0.02,1.17,1.42
-0.22,1.11,1.43
-0.17,1.08,0.9
-0.13,1.07,0.48
-0.06,1.11,0.36
0.08,1.12,0.21
0.22,1.04,0.05
0.12,0.95,-0.03
-0.03,0.96,-0.04
-0.05,0.98,-0.08
0.03,0.94,-0.21
0.14,0.91,-0.23
0.17,0.9,-0.23
0.16,0.9,-0.2
0.12,0.91,-0.17
0.09,0.91,-0.14
0.08,0.91,-0.13
0.1,0.91,-0.11
0.12,0.92,-0.08
0.15,0.94,-0.05
0.17,0.95,-0.02
0.16,0.95,0.01
0.13,0.97,0.06
0.08,1.01,0.15
0.03,1.05,0.26
0.04,1.05,0.31
0.08,1.02,0.29
0.14,0.99,0.23
0.17,0.97,0.18
0.14,0.97,0.19
0.1,1,0.21
0.08,1.01,0.23
0.06,1.02,0.25
0.02,1.03,0.26
-0.04,1.04,0.27
-0.05,1.05,0.31
-0.04,1.06,0.41
-0.06,1.08,0.49
-0.09,1.07,0.55
-0.11,1.06,0.59
-0.1,1.05,0.59
-0.12,1.07,0.61
-0.14,1.1,0.65
-0.13,1.12,0.69
-0.12,1.16,0.75
-0.11,1.21,0.82
-0.08,1.25,0.87
-0.08,1.23,0.9
-0.08,1.23,0.92
-0.05,1.24,0.91
-0.07,1.24,0.89
-0.12,1.25,0.88
-0.14,1.27,0.9
-0.13,1.31,0.93
-0.1,1.34,0.94
-0.08,1.37,0.93
-0.06,1.43,0.91
-0.06,1.46,0.91
-0.07,1.46,0.91
-0.04,1.5,0.92
0,1.51,0.94
0.04,1.49,0.96
0.1,1.48,0.97
0.13,1.49,0.95
0.12,1.49,0.92
0.12,1.49,0.9
0.15,1.5,0.91
0.19,1.5,0.92
0.19,1.45,0.93
0.17,1.38,0.93
0.15,1.33,0.89
0.15,1.29,0.84
0.15,1.29,0.82
0.15,1.3,0.82
0.19,1.27,0.84
0.19,1.19,0.8
0.16,1.1,0.75
0.14,1.03,0.69
0.15,0.95,0.58
0.17,0.94,0.51
0.15,0.97,0.47
0.14,0.9,0.4
0.16,0.78,0.36
0.17,0.64,0.31
0.2,0.57,0.25
0.25,0.58,0.17
0.16,0.47,0.05
0.08,0.38,-0.04
0.08,0.4,-0.06
0.08,0.29,-0.06
0.05,0.17,-0.05
0.07,0.07,-0.02
0.04,-0.03,-0.03
0.01,-0.09,-0.04
-0.01,-0.1,-0.02
0.01,-0.07,0.01
0.02,-0.04,0.05
0.01,-0.08,0.1
0.04,-0.14,0.18
0.05,-0.21,0.27
0.02,-0.22,0.38
0,-0.19,0.47
-0.05,-0.18,0.54
-0.05,-0.15,0.59
-0.03,-0.14,0.67
0.01,-0.18,0.78
0.08,-0.21,0.87
0.14,-0.21,0.92
0.13,-0.17,0.93
0.06,-0.14,0.97
0,-0.15,1.05
-0.02,-0.16,1.11
0.01,-0.16,1.13
0.06,-0.17,1.09
0.11,-0.15,1.01
0.13,-0.14,0.89
0.1,-0.17,0.9
0.09,-0.16,0.97
0.09,-0.16,1.05
0.11,-0.17,1.06
0.12,-0.18,1.02
0.1,-0.18,0.98
0.08,-0.17,0.93
0.07,-0.16,0.89
0.08,-0.16,0.89
0.1,-0.17,0.93
0.1,-0.16,0.95
0.09,-0.15,0.95
0.09,-0.15,0.94
0.08,-0.18,0.93
0.07,-0.21,0.91
0.08,-0.21,0.91
0.11,-0.2,0.92
0.12,-0.18,0.94
0.12,-0.17,0.95
0.11,-0.16,0.94
0.09,-0.17,0.94
0.08,-0.18,0.94
0.07,-0.18,0.95
0.09,-0.19,0.98
0.13,-0.19,1.02
0.15,-0.18,1.02
0.11,-0.18,1
0.08,-0.18,0.98
0.06,-0.18,0.97
0.04,-0.17,0.96
0.04,-0.17,0.98
0.06,-0.18,1.02
0.1,-0.18,1.06
0.12,-0.18,1.05
0.11,-0.18,1.04
0.09,-0.18,1.01
0.07,-0.17,0.99
0.05,-0.17,1
0.05,-0.17,1.01
0.07,-0.17,1.03
0.09,-0.17,1.06
0.09,-0.17,1.06
0.1,-0.16,1.04
0.08,-0.16,1.02
0.07,-0.17,1.01
0.06,-0.18,1
0.06,-0.18,0.99
0.08,-0.17,1.01
0.1,-0.16,1.02
0.09,-0.16,1.03
0.08,-0.15,1.01
0.07,-0.16,0.98
0.05,-0.17,0.98
0.05,-0.17,0.99
0.06,-0.17,1
0.07,-0.17,1.01
0.07,-0.17,1.01
0.07,-0.17,1
0.06,-0.16,0.98
0.05,-0.16,0.97
0.04,-0.17,0.98
0.04,-0.18,1
0.06,-0.19,1.02
0.08,-0.19,1.03
0.08,-0.18,1.02
0.07,-0.17,1
0.04,-0.17,0.98
0.02,-0.17,0.97
0.01,-0.17,0.97
0.01,-0.17,0.98
0.04,-0.18,0.99
0.07,-0.19,1.01
0.09,-0.18,1.02
0.08,-0.18,1.02
0.06,-0.18,0.99
0.04,-0.17,0.97
0.02,-0.17,0.97
0.01,-0.18,0.99
0.05,-0.18,1.01
0.05,-0.18,1.02
0.05,-0.17,1.01
0.04,-0.18,0.99
0.02,-0.18,0.98
0.01,-0.17,0.96
-0.01,-0.18,0.96
0,-0.19,0.98
0.02,-0.19,1
0.05,-0.19,1
0.07,-0.19,0.99
0.07,-0.18,0.97
0.06,-0.17,0.95
0.03,-0.17,0.94
0.01,-0.17,0.94
0,-0.19,0.97
0.02,-0.2,1
0.05,-0.2,1.03
0.04,-0.19,1.03
0.02,-0.18,1.02
0,-0.19,0.98
-0.01,-0.18,0.96
-0.02,-0.19,0.97
0,-0.2,1
0.04,-0.21,1.02
0.05,-0.2,1.01
0.04,-0.19,0.97
0.03,-0.19,0.95
0.03,-0.19,0.94
0.03,-0.19,0.95
0.03,-0.2,0.97
0.06,-0.21,0.99
0.07,-0.21,0.99
0.06,-0.2,0.97
0.04,-0.2,0.95
0.03,-0.2,0.92
0.02,-0.19,0.9
0.02,-0.19,0.91
0.03,-0.2,0.92
0.06,-0.21,0.94
0.08,-0.21,0.94
0.08,-0.21,0.92
0.07,-0.2,0.9
0.06,-0.19,0.89
0.05,-0.19,0.88
0.05,-0.19,0.87
0.05,-0.18,0.88
0.06,-0.18,0.88
0.07,-0.19,0.88
0.07,-0.19,0.87
0.06,-0.18,0.86
0.05,-0.17,0.82
0.04,-0.16,0.8
0.04,-0.15,0.78
0.05,-0.15,0.76
0.06,-0.16,0.74
0.07,-0.14,0.7
0.06,-0.13,0.65
0.04,-0.13,0.6
0.03,-0.11,0.54
0.02,-0.08,0.5
0,-0.06,0.48
-0.02,-0.06,0.46
-0.02,-0.05,0.43
-0.01,-0.05,0.42
0.02,-0.02,0.42
0.01,0.02,0.41
-0.02,0.04,0.42
-0.04,0.05,0.42
-0.04,0.07,0.39
-0.04,0.1,0.33
-0.04,0.15,0.26
-0.02,0.2,0.21
-0.04,0.28,0.24
-0.05,0.33,0.36
0.01,0.34,0.46
0.06,0.35,0.49
0.05,0.38,0.38
0.02,0.47,0.3
0.03,0.54,0.21
0,0.64,0.24
-0.02,0.77,0.41
0.04,0.84,0.55
0.13,0.86,0.58
0.16,0.88,0.57
0.13,0.88,0.51
0.12,0.89,0.44
0.13,0.96,0.39
0.1,1.11,0.46
0.07,1.26,0.63
0.12,1.3,0.71
0.17,1.32,0.73
0.22,1.28,0.81
0.33,1.18,0.85
0.34,1.22,0.87
0.28,1.33,0.87
0.29,1.38,0.83
0.26,1.44,0.86
0.19,1.52,0.91
0.15,1.56,0.95
0.15,1.54,0.96
0.16,1.47,0.93
0.19,1.38,0.92
0.22,1.32,1.08
0.21,1.42,1.17
0.17,1.43,1.18
0.16,1.4,1.12
0.13,1.37,1.05
0.09,1.33,0.99
0.1,1.28,0.91
0.15,1.24,0.85
0.2,1.25,0.85
0.24,1.3,0.88
0.24,1.32,0.86
0.17,1.29,0.83
0.1,1.23,0.8
0.07,1.17,0.77
0.09,1.13,0.71
0.08,1.08,0.67
0.1,1.03,0.64
0.18,1.02,0.58
0.21,1.02,0.54
0.22,1.03,0.54
0.22,1.05,0.52
0.24,1.05,0.48
0.25,1.06,0.43
0.22,1.08,0.42
0.19,1.1,0.42
0.19,1.1,0.51
0.22,1.11,0.72
-0.14,1.11,0.88
-0.23,1.08,0.65
-0.34,1.03,0.57
-0.33,1.02,0.48
0,0.97,0.23
0.24,0.94,0.07
0.2,0.96,0.04
0.13,0.99,0.01
0.11,1,-0.03
0.15,0.98,-0.08
0.17,0.96,-0.11
0.17,0.96,-0.12
0.18,0.96,-0.12
0.18,0.96,-0.11
0.15,0.96,-0.1
0.14,0.98,-0.09
0.14,0.98,-0.09
0.16,0.96,-0.09
0.15,0.94,-0.07
0.13,0.93,-0.05
0.12,0.93,-0.04
0.13,0.92,-0.03
0.17,0.93,-0.01
0.2,0.94,0
0.23,0.95,0
0.25,0.96,-0.01
0.26,0.99,-0.03
0.24,0.98,-0.03
0.22,0.97,-0.02
0.19,0.96,0
0.14,0.95,0.05
0.11,0.95,0.11
0.09,0.96,0.16
0.12,0.97,0.18
0.16,0.97,0.17
0.18,0.98,0.16
0.21,0.99,0.16
0.23,0.98,0.18
0.22,0.97,0.22
0.22,0.96,0.22
0.24,0.95,0.2
0.26,0.95,0.16
0.26,0.96,0.13
0.24,0.98,0.12
0.22,0.99,0.11
0.21,0.99,0.09
0.2,0.98,0.07
0.2,0.97,0.06
0.21,0.96,0.05
0.21,0.95,0.03
0.18,0.94,0.03
0.15,0.94,0.03
0.15,0.94,0.04
0.14,0.96,0.07
0.14,0.96,0.09
0.15,0.96,0.12
0.14,0.98,0.17
0.11,1,0.23
0.1,1,0.28
0.08,1.01,0.33
0.05,1.03,0.38
0.02,1.03,0.39
-0.01,1.05,0.39
-0.04,1.09,0.4
-0.09,1.11,0.43
-0.11,1.11,0.48
-0.1,1.09,0.52
-0.08,1.1,0.59
-0.08,1.13,0.66
-0.06,1.14,0.7
-0.05,1.13,0.72
-0.05,1.13,0.75
-0.06,1.14,0.76
-0.06,1.15,0.75
-0.06,1.15,0.78
-0.04,1.17,0.81
0.01,1.21,0.82
0.03,1.24,0.86
0.04,1.29,0.91
0.07,1.3,0.88
0.05,1.29,0.86
0.04,1.29,0.83
0.05,1.31,0.81
0.07,1.33,0.82
0.08,1.35,0.83
0.12,1.38,0.82
0.15,1.38,0.79
0.17,1.36,0.74
0.18,1.35,0.71
0.18,1.35,0.69
0.17,1.34,0.7
0.16,1.32,0.72
0.17,1.31,0.74
0.21,1.28,0.76
0.22,1.24,0.76
0.23,1.19,0.73
0.24,1.16,0.7
0.24,1.17,0.66
0.23,1.17,0.63
0.24,1.16,0.61
0.26,1.11,0.61
0.25,1.04,0.63
0.21,1,0.64
0.16,0.96,0.64
0.13,0.89,0.63
0.16,0.86,0.64
0.22,0.82,0.64
0.31,0.74,0.65
0.36,0.69,0.7
0.33,0.66,0.69
0.22,0.63,0.64
0.14,0.6,0.62
0.1,0.55,0.63
0.1,0.51,0.65
0.12,0.42,0.65
0.17,0.38,0.63
0.23,0.35,0.56
0.24,0.28,0.5
0.21,0.26,0.48
0.15,0.32,0.49
0.09,0.26,0.46
0.06,0.18,0.38
0.03,0.2,0.35
0.05,0.2,0.37
0.12,0.13,0.37
0.18,0.03,0.34
0.18,-0.01,0.33
0.12,0.02,0.36
0.05,0.02,0.36
0.01,-0.05,0.32
0.01,-0.06,0.39
0.06,-0.07,0.41
0.04,-0.07,0.46
0.01,-0.08,0.53
0.01,-0.09,0.56
-0.04,-0.1,0.59
-0.09,-0.1,0.65
-0.11,-0.14,0.69
-0.08,-0.12,0.73
-0.05,-0.09,0.77
-0.04,-0.09,0.77
-0.04,-0.07,0.8
-0.04,-0.07,0.83
-0.05,-0.11,0.86
-0.06,-0.14,0.92
-0.06,-0.12,0.97
-0.07,-0.09,0.99
-0.1,-0.09,0.98
-0.11,-0.1,0.97
-0.1,-0.1,0.99
-0.08,-0.11,1.01
-0.05,-0.12,1.04
-0.01,-0.12,1.06
0.01,-0.11,1.06
0.02,-0.11,1.05
0.01,-0.09,1.02
-0.04,-0.09,1.01
-0.07,-0.11,1.01
-0.06,-0.11,1.04
-0.05,-0.1,1.06
-0.04,-0.09,1.06
-0.03,-0.09,1.03
-0.01,-0.09,1
0,-0.1,1
0,-0.11,1.02
-0.02,-0.1,1.03
-0.04,-0.1,1.02
-0.05,-0.1,0.99
-0.04,-0.1,0.98
-0.04,-0.1,0.98
-0.03,-0.1,0.98
-0.03,-0.11,0.99
-0.03,-0.11,1
-0.04,-0.12,1
-0.04,-0.12,0.98
-0.05,-0.13,0.95
-0.04,-0.12,0.94
-0.02,-0.11,0.94
-0.01,-0.11,0.95
-0.01,-0.12,0.97
-0.01,-0.13,0.98
-0.01,-0.13,0.97
-0.03,-0.13,0.94
-0.05,-0.11,0.93
-0.03,-0.11,0.94
0,-0.11,0.96
0.01,-0.11,0.99
0.02,-0.13,0.99
0.02,-0.13,0.98
0.01,-0.12,0.95
-0.02,-0.1,0.93
-0.03,-0.1,0.94
-0.02,-0.11,0.97
0.02,-0.1,1.02
0.04,-0.1,1.04
0.03,-0.1,1.03
0.01,-0.1,1.02
-0.01,-0.09,1
-0.02,-0.09,1
-0.02,-0.09,1.01
-0.02,-0.08,1.03
-0.02,-0.09,1.05
-0.01,-0.1,1.06
-0.01,-0.11,1.06
-0.03,-0.1,1.05
-0.05,-0.09,1.03
-0.06,-0.09,1.02
-0.07,-0.09,1.02
-0.06,-0.1,1.03
-0.02,-0.1,1.04
-0.02,-0.09,1.03
-0.02,-0.09,1.02
-0.02,-0.09,1
-0.03,-0.09,0.99
-0.02,-0.1,0.99
0,-0.11,0.99
0.03,-0.11,1
0.05,-0.11,1
0.03,-0.1,1.01
0.01,-0.09,1.01
-0.01,-0.1,1
-0.01,-0.1,0.99
-0.02,-0.11,0.99
0,-0.11,0.99
0.02,-0.1,1
0.02,-0.1,1.02
0,-0.1,1.02
-0.01,-0.1,1.01
-0.03,-0.1,1
-0.04,-0.1,0.99
-0.03,-0.11,1
-0.01,-0.12,1.01
0.01,-0.12,1.02
0.01,-0.11,1.04
0,-0.11,1.02
-0.02,-0.1,1
-0.03,-0.1,0.99
-0.03,-0.11,0.98
0,-0.13,0.97
0.03,-0.13,0.98
0.04,-0.12,1
0.02,-0.1,1.01
0,-0.11,0.99
-0.01,-0.11,0.98
-0.02,-0.11,0.97
-0.02,-0.11,0.98
0,-0.12,0.99
0.02,-0.12,1.01
0.01,-0.11,1.01
-0.01,-0.11,1
-0.04,-0.11,0.98
-0.06,-0.11,0.98
-0.07,-0.11,0.98
-0.06,-0.13,0.98
-0.04,-0.14,0.99
-0.03,-0.14,1
-0.03,-0.12,1.01
-0.06,-0.11,1.01
-0.08,-0.11,0.99
-0.09,-0.11,0.98
-0.1,-0.11,0.98
-0.09,-0.14,0.99
-0.07,-0.14,0.99
-0.06,-0.13,1
-0.06,-0.11,1
-0.08,-0.1,0.99
-0.1,-0.1,1
-0.12,-0.1,1
-0.12,-0.11,1
-0.11,-0.11,1
-0.1,-0.11,1
-0.08,-0.11,0.99
-0.07,-0.11,0.99
-0.08,-0.1,1
-0.09,-0.1,1
-0.1,-0.11,1
-0.1,-0.11,1
-0.09,-0.12,0.99
-0.08,-0.12,1
-0.08,-0.11,1.01
-0.07,-0.11,1.02
-0.07,-0.11,1.02
-0.07,-0.1,1.01
-0.08,-0.1,1.01
-0.07,-0.11,1.01
-0.06,-0.12,1
-0.05,-0.12,1
-0.04,-0.11,1.01
-0.04,-0.11,1.01
-0.05,-0.11,1
-0.05,-0.12,1
-0.05,-0.12,0.99
-0.04,-0.12,1
-0.03,-0.12,1.01
-0.03,-0.12,1.02
-0.03,-0.12,1.02
-0.03,-0.12,1.02
-0.03,-0.12,1
-0.03,-0.12,0.99
-0.03,-0.12,0.99
-0.03,-0.12,0.99
-0.03,-0.13,0.99
-0.02,-0.14,1
-0.01,-0.13,1.01
-0.02,-0.12,1.01
-0.02,-0.12,1
-0.04,-0.12,0.98
-0.05,-0.12,0.98
-0.06,-0.12,0.98
-0.06,-0.12,0.99
-0.05,-0.13,0.99
-0.03,-0.13,1
-0.03,-0.12,1
-0.05,-0.11,0.98
-0.07,-0.11,0.97
-0.06,-0.11,0.97
-0.05,-0.11,0.97
-0.03,-0.12,0.99
-0.02,-0.12,1.01
-0.02,-0.11,1.01
-0.03,-0.1,1
-0.04,-0.11,0.99
-0.04,-0.1,0.98
-0.05,-0.1,0.99
-0.05,-0.1,1.01
-0.05,-0.1,1.02
-0.04,-0.11,1.03
-0.03,-0.11,1.02
-0.03,-0.11,1.01
-0.04,-0.11,1
-0.04,-0.12,1
-0.05,-0.12,1
-0.05,-0.12,1
-0.06,-0.12,1
-0.06,-0.12,1.01
-0.06,-0.11,1.01
-0.07,-0.11,1.01
-0.09,-0.11,1.01
-0.1,-0.12,1.01
-0.1,-0.11,1.02
-0.1,-0.11,1.02
-0.09,-0.11,1.03
-0.08,-0.11,1.02
-0.08,-0.11,1.02
-0.08,-0.11,1.02
-0.07,-0.11,1.02
-0.07,-0.11,1.02
-0.07,-0.12,1.01
-0.07,-0.12,1
-0.07,-0.12,0.99
-0.06,-0.11,0.98
-0.05,-0.11,0.98
-0.04,-0.11,0.97
-0.04,-0.12,0.98
-0.03,-0.13,0.98
-0.03,-0.13,0.98
-0.03,-0.13,0.97
-0.04,-0.13,0.97
-0.05,-0.13,0.96
-0.04,-0.13,0.96
-0.04,-0.13,0.96
-0.03,-0.13,0.97
-0.02,-0.13,0.98
-0.01,-0.13,0.99
-0.03,-0.13,0.99
-0.04,-0.13,0.97
-0.05,-0.13,0.97
-0.05,-0.13,0.96
-0.03,-0.13,0.97
-0.02,-0.13,0.98
-0.02,-0.13,1
-0.03,-0.13,1
-0.03,-0.14,0.99
-0.03,-0.14,0.98
-0.03,-0.13,0.98
-0.03,-0.13,0.99
-0.03,-0.13,1
-0.02,-0.13,1.01
-0.01,-0.13,1.01
-0.01,-0.13,1.02
-0.01,-0.13,1.02
-0.02,-0.13,1.02
-0.03,-0.13,1.01
-0.04,-0.13,1.01
-0.04,-0.12,1
-0.04,-0.13,1
-0.04,-0.13,1.01
-0.03,-0.13,1.01
-0.04,-0.13,1
-0.07,-0.13,1
-0.08,-0.13,0.99
-0.08,-0.13,0.99
-0.08,-0.14,0.99
-0.07,-0.14,0.98
-0.06,-0.14,0.97
-0.07,-0.14,0.97
-0.07,-0.13,0.96
-0.07,-0.13,0.96
-0.07,-0.13,0.95
-0.07,-0.14,0.95
-0.07,-0.13,0.96
-0.06,-0.14,0.96
-0.04,-0.14,0.96
-0.03,-0.13,0.96
-0.03,-0.13,0.95
-0.04,-0.13,0.95
-0.04,-0.12,0.96
-0.03,-0.12,0.97
-0.02,-0.12,0.97
-0.02,-0.13,0.97
-0.02,-0.12,0.98
-0.01,-0.12,0.98
-0.01,-0.11,0.99
-0.02,-0.11,1
-0.02,-0.1,1
-0.02,-0.11,1.01
-0.02,-0.11,1.01
-0.01,-0.11,1.02
-0.01,-0.1,1.02
-0.01,-0.1,1.02
-0.02,-0.1,1.03
-0.02,-0.1,1.03
-0.01,-0.09,1.04
-0.01,-0.1,1.04
-0.01,-0.1,1.04
-0.01,-0.09,1.05
-0.02,-0.08,1.06
-0.02,-0.08,1.07
-0.02,-0.08,1.07
-0.03,-0.08,1.07
-0.04,-0.09,1.06
-0.05,-0.09,1.05
-0.04,-0.09,1.05
-0.04,-0.09,1.05
-0.05,-0.09,1.04
-0.05,-0.09,1.04
-0.05,-0.08,1.02
-0.06,-0.08,1.02
-0.07,-0.08,1.03
-0.07,-0.09,1.03
-0.07,-0.1,1.02
-0.07,-0.1,1.02
-0.07,-0.09,1.01
-0.07,-0.09,0.99
-0.08,-0.09,0.98
-0.08,-0.1,0.97
-0.07,-0.1,0.96
-0.06,-0.1,0.96
-0.06,-0.1,0.96
-0.06,-0.1,0.97
-0.06,-0.1,0.97
-0.06,-0.1,0.97
-0.07,-0.1,0.97
-0.07,-0.1,0.97
-0.08,-0.1,0.97
-0.07,-0.1,0.97
-0.06,-0.11,0.98
-0.06,-0.11,0.98
-0.06,-0.11,0.99
-0.07,-0.11,0.98
-0.07,-0.11,0.98
-0.07,-0.11,0.99
-0.06,-0.11,0.99
-0.06,-0.1,0.99
-0.06,-0.11,0.99
-0.05,-0.11,1
-0.05,-0.11,1
-0.05,-0.1,0.99
-0.05,-0.1,1
-0.05,-0.11,1
-0.06,-0.1,1.01
-0.05,-0.1,1
-0.05,-0.1,1
-0.04,-0.09,0.99
-0.04,-0.1,0.99
-0.03,-0.1,1
-0.02,-0.1,1
-0.03,-0.1,1.01
-0.04,-0.09,1.01
-0.05,-0.09,1
-0.05,-0.1,0.99
-0.06,-0.1,1
-0.05,-0.1,1
-0.04,-0.1,1.01
-0.03,-0.1,1.01
-0.04,-0.1,1.01
-0.04,-0.11,1.01
-0.03,-0.1,1.01
-0.03,-0.1,1
-0.03,-0.1,1.02
-0.03,-0.11,1.03
-0.03,-0.11,1.04
-0.04,-0.1,1.04
-0.04,-0.1,1.03
-0.03,-0.1,1.03
-0.03,-0.1,1.06
-0.02,-0.1,1.07
-0.03,-0.09,1.06
-0.04,-0.09,1.05
-0.05,-0.09,1.04
-0.06,-0.08,1.03
-0.06,-0.08,1.03
-0.05,-0.09,1.02
-0.05,-0.09,1.03
-0.05,-0.09,1.04
-0.06,-0.09,1.03
-0.07,-0.1,1.02
-0.07,-0.1,1.02
-0.08,-0.09,1.01
-0.09,-0.09,1.01
-0.09,-0.09,1.01
-0.09,-0.1,1.01
-0.08,-0.1,1.01
-0.07,-0.11,1
-0.07,-0.11,1
-0.07,-0.11,0.99
-0.07,-0.1,0.98
-0.07,-0.1,0.98
-0.07,-0.1,0.98
-0.07,-0.11,0.98
-0.06,-0.12,0.99
-0.06,-0.13,1
-0.07,-0.12,0.99
-0.07,-0.11,0.99
-0.07,-0.1,0.98
-0.07,-0.1,0.99
-0.07,-0.1,1
-0.05,-0.11,1.01
-0.04,-0.12,1.01
-0.05,-0.12,1.01
-0.05,-0.12,1.01
-0.06,-0.12,1
-0.07,-0.12,1
-0.07,-0.12,1
-0.07,-0.12,1
-0.06,-0.13,0.99
-0.05,-0.14,0.99
-0.04,-0.14,0.99
-0.04,-0.14,0.99
-0.06,-0.14,0.98
-0.06,-0.14,0.97
-0.06,-0.15,0.97
-0.06,-0.15,0.97
-0.06,-0.16,0.97
-0.04,-0.17,0.97
-0.03,-0.17,0.97
-0.02,-0.16,0.97
-0.03,-0.16,0.96
-0.05,-0.16,0.93
-0.06,-0.17,0.92
-0.06,-0.17,0.92
-0.05,-0.17,0.93
-0.04,-0.16,0.94
-0.04,-0.16,0.94
-0.05,-0.15,0.94
-0.08,-0.15,0.94
-0.08,-0.15,0.93
-0.08,-0.15,0.93
-0.08,-0.15,0.92
-0.07,-0.14,0.92
-0.07,-0.15,0.91
-0.06,-0.15,0.89
-0.05,-0.15,0.87
-0.04,-0.14,0.86
-0.04,-0.13,0.83
-0.05,-0.12,0.8
-0.07,-0.11,0.76
-0.09,-0.1,0.7
-0.11,-0.1,0.62
-0.07,-0.13,0.56
0.01,-0.14,0.55
0.1,-0.12,0.54
0.13,-0.11,0.53
0.1,-0.11,0.44
0.07,-0.09,0.39
0.01,-0.06,0.35
-0.02,-0.01,0.33
-0.06,0.02,0.33
-0.07,0.04,0.35
-0.06,0.05,0.36
-0.02,0.07,0.36
0.02,0.1,0.34
0.04,0.14,0.33
0.07,0.19,0.31
0.09,0.28,0.33
0.08,0.35,0.37
0.09,0.37,0.41
0.08,0.37,0.46
0.08,0.39,0.5
0.08,0.43,0.52
0.07,0.47,0.53
0.07,0.51,0.5
0.05,0.59,0.51
0.02,0.68,0.59
0.07,0.74,0.61
0.14,0.76,0.57
0.18,0.79,0.55
0.21,0.83,0.53
0.23,0.88,0.52
0.22,0.93,0.49
0.11,1.12,0.56
0.04,1.21,0.72
0.08,1.21,0.75
0.13,1.22,0.73
0.09,1.28,0.76
0.07,1.28,0.8
0.13,1.27,0.76
0.19,1.3,0.7
0.17,1.34,0.8
0.15,1.38,0.96
0.18,1.39,1.01
0.22,1.38,0.98
0.22,1.39,0.94
0.19,1.4,0.91
0.16,1.39,0.87
0.15,1.37,0.85
0.1,1.36,0.93
0.1,1.36,1.04
0.15,1.37,1.07
0.18,1.39,1.07
0.17,1.38,1.07
0.16,1.37,1.07
0.14,1.35,1.06
0.13,1.32,1.04
0.18,1.31,1.01
0.21,1.24,0.93
0.26,1.1,0.78
0.36,1.08,0.7
0.45,1.05,0.64
0.52,1.04,0.64
0.53,1.05,0.61
0.52,1.04,0.59
0.47,1.04,0.59
0.41,1.03,0.59
0.36,1.03,0.6
0.29,0.99,0.63
0.25,1.01,0.83
0.22,1.07,1.14
0.21,1.11,1.24
0.13,1.08,0.98
-0.03,1.03,0.61
-0.1,1.08,0.53
0.01,1.13,0.5
0.19,1.08,0.32
0.31,0.99,0.15
0.28,0.95,0.08
0.18,0.97,0.04
0.17,0.96,-0.04
0.14,0.93,-0.1
0.08,0.93,-0.11
0.07,0.93,-0.11
0.09,0.92,-0.12
0.12,0.9,-0.12
0.13,0.89,-0.1
0.14,0.88,-0.08
0.15,0.88,-0.06
0.15,0.88,-0.05
0.14,0.89,-0.05
0.15,0.91,-0.05
0.18,0.92,-0.05
0.21,0.93,-0.05
0.21,0.94,-0.05
0.22,0.95,-0.05
0.23,0.96,-0.04
0.24,0.96,-0.02
0.24,0.96,0.01
0.23,0.96,0.03
0.2,0.96,0.06
0.13,0.98,0.14
0.04,1.01,0.29
0.01,1.01,0.38
0.07,0.99,0.36
0.16,0.98,0.31
0.24,0.98,0.26
0.29,0.98,0.22
0.27,0.98,0.21
0.22,0.99,0.2
0.21,1.01,0.2
0.22,1.02,0.19
0.21,1.03,0.22
0.18,1.02,0.26
0.15,1.01,0.29
0.13,1.02,0.31
0.13,1.02,0.34
0.12,1.01,0.38
0.14,0.98,0.42
0.15,0.98,0.45
0.12,1.01,0.48
0.09,1.03,0.49
0.06,1.04,0.51
0.05,1.05,0.56
0.05,1.07,0.61
0.05,1.08,0.64
0.05,1.08,0.68
0.05,1.09,0.71
0.05,1.09,0.73
0.07,1.09,0.75
0.09,1.1,0.77
0.07,1.11,0.79
0.01,1.11,0.8
0.01,1.14,0.8
0.05,1.18,0.78
0.08,1.22,0.8
0.12,1.27,0.83
0.15,1.3,0.88
0.23,1.31,0.85
0.24,1.28,0.82
0.21,1.25,0.81
0.19,1.24,0.79
0.2,1.24,0.79
0.22,1.25,0.8
0.23,1.27,0.8
0.23,1.27,0.81
0.22,1.25,0.82
0.21,1.24,0.82
0.2,1.25,0.81
0.17,1.24,0.8
0.15,1.21,0.77
0.16,1.16,0.74
0.17,1.1,0.73
0.18,1.07,0.76
0.21,1.07,0.77
0.22,1.05,0.76
0.2,1.02,0.72
0.16,0.97,0.65
0.16,0.94,0.62
0.14,0.94,0.64
0.14,0.93,0.67
0.17,0.91,0.7
0.18,0.87,0.71
0.19,0.81,0.68
0.22,0.72,0.63
0.19,0.68,0.61
0.2,0.62,0.55
0.24,0.57,0.53
0.28,0.54,0.58
0.28,0.55,0.61
0.22,0.53,0.62
0.16,0.49,0.62
0.12,0.45,0.6
0.11,0.41,0.57
0.13,0.38,0.55
0.18,0.29,0.5
0.26,0.19,0.46
0.27,0.19,0.42
0.23,0.2,0.38
0.19,0.19,0.37
0.12,0.15,0.37
0.06,0.07,0.37
0.07,0.06,0.35
0.1,0.05,0.33
0.12,0.02,0.32
0.15,0,0.31
0.15,0.02,0.31
0.1,0.04,0.35
0.06,0.02,0.4
0.05,-0.04,0.49
0.09,-0.07,0.55
0.11,-0.06,0.6
0.11,-0.04,0.64
0.1,-0.01,0.65
0.05,-0.04,0.67
0,-0.06,0.72
0,-0.09,0.78
0.02,-0.11,0.83
0.04,-0.09,0.88
0.03,-0.04,0.93
0.01,-0.01,0.95
-0.01,-0.03,0.95
-0.01,-0.05,0.94
-0.01,-0.07,0.93
-0.02,-0.06,0.96
-0.04,-0.04,1
-0.04,-0.05,1.04
-0.02,-0.05,1.06
-0.02,-0.05,1.06
-0.02,-0.05,1.05
-0.02,-0.04,1.02
-0.02,-0.03,1.01
-0.03,-0.04,1.04
-0.02,-0.04,1.08
-0.01,-0.05,1.11
0.01,-0.05,1.14
-0.01,-0.03,1.11
-0.02,-0.04,1.07
-0.02,-0.04,1.03
-0.01,-0.03,1.02
0.01,-0.01,1.02
0.04,0,1.03
0.07,0,1.04
0.08,0,1.04
0.07,0,1.03
0.06,-0.02,1
0.07,-0.02,0.97
0.08,-0.01,0.97
0.09,0,0.98
0.08,0.02,1
0.08,0.02,1.02
0.08,0.01,1.01
0.07,-0.01,1.01
0.05,-0.03,1.01
0.04,-0.04,1.02
0.03,-0.03,1.02
0.03,-0.01,1.02
0.02,0.02,1.03
0.01,0.02,1.04
0.02,0.02,1.04
0.02,0.02,1.04
0.02,0.02,1.05
0,-0.02,1.06
0,-0.02,1.06
-0.02,0,1.07
-0.04,0.01,1.09
-0.05,0.01,1.1
-0.05,-0.01,1.1
-0.04,-0.03,1.09
-0.03,-0.03,1.08
-0.01,-0.03,1.08
0,-0.01,1.07
0.01,-0.01,1.07
0.02,-0.02,1.08
0.02,-0.03,1.09
0.03,-0.05,1.1
0.03,-0.06,1.1
0.02,-0.05,1.07
0.02,-0.04,1.04
0.03,-0.03,1.03
0.04,-0.03,1.03
0.04,-0.03,1.04
0.04,-0.04,1.06
0.04,-0.04,1.05
0.03,-0.05,1.02
0.02,-0.05,0.99
0.01,-0.04,0.96
-0.01,-0.03,0.95
-0.03,-0.04,0.94
-0.04,-0.05,0.94
-0.04,-0.06,0.94
-0.04,-0.06,0.94
-0.03,-0.06,0.93
-0.04,-0.06,0.91
-0.04,-0.07,0.9
-0.06,-0.07,0.91
-0.08,-0.07,0.92
-0.09,-0.07,0.92
-0.09,-0.07,0.92
-0.1,-0.07,0.92
-0.11,-0.08,0.92
-0.1,-0.08,0.93
-0.09,-0.07,0.95
-0.09,-0.08,0.95
-0.09,-0.08,0.95
-0.09,-0.08,0.95
-0.09,-0.08,0.94
-0.08,-0.07,0.94
-0.08,-0.08,0.95
-0.08,-0.09,0.95
-0.07,-0.08,0.95
-0.06,-0.08,0.96
-0.06,-0.08,0.96
-0.05,-0.09,0.97
-0.05,-0.09,0.97
-0.04,-0.09,0.96
-0.03,-0.08,0.95
-0.03,-0.07,0.94
-0.03,-0.07,0.94
-0.03,-0.07,0.93
-0.03,-0.08,0.93
-0.04,-0.08,0.93
-0.04,-0.08,0.93
-0.03,-0.07,0.94
-0.03,-0.07,0.93
-0.03,-0.07,0.92
-0.04,-0.08,0.91
-0.05,-0.07,0.92
-0.05,-0.08,0.92
-0.04,-0.08,0.91
-0.04,-0.08,0.9
-0.05,-0.08,0.89
-0.05,-0.07,0.88
-0.04,-0.08,0.86
-0.02,-0.07,0.82
0,-0.07,0.78
0.01,-0.06,0.72
0.01,-0.04,0.67
0.03,-0.03,0.6
0.06,-0.01,0.55
0.1,0.04,0.46
0.15,0.06,0.43
0.13,0.1,0.41
0.08,0.11,0.42
0.05,0.11,0.42
0.07,0.12,0.38
0.11,0.14,0.33
0.14,0.18,0.31
0.14,0.23,0.32
0.14,0.27,0.32
0.15,0.3,0.32
0.13,0.33,0.31
0.11,0.36,0.31
0.09,0.38,0.32
0.09,0.43,0.35
0.1,0.55,0.41
0.07,0.6,0.48
0.08,0.56,0.51
0.13,0.56,0.49
0.15,0.61,0.47
0.14,0.67,0.44
0.14,0.73,0.43
0.13,0.79,0.46
0.13,0.84,0.5
0.19,0.85,0.56
0.26,0.93,0.62
0.32,1.09,0.66
0.39,1.15,0.63
0.4,1.22,0.6
0.35,1.25,0.65
0.32,1.2,0.74
0.37,1.18,0.8
0.43,1.21,0.88
0.49,1.26,0.97
0.53,1.31,1.03
0.54,1.37,1.04
0.51,1.42,1.01
0.44,1.43,1.01
0.34,1.42,1.07
0.28,1.38,1.13
0.28,1.31,1.08
0.3,1.25,0.97
0.29,1.23,0.91
0.3,1.26,0.91
0.33,1.3,0.93
0.37,1.31,0.93
0.4,1.3,0.88
0.41,1.29,0.83
0.38,1.26,0.81
0.37,1.22,0.8
0.38,1.17,0.79
0.44,1.12,0.78
0.49,1.07,0.69
0.48,1.03,0.68
0.47,1.02,0.68
0.48,1.02,0.65
0.48,1,0.61
0.43,1,0.79
0.14,1.1,1.65
-0.19,1.1,2.03
-0.13,0.92,1.5
0.23,0.98,1
0.58,1.17,0.68
0.58,1.11,0.61
0.47,0.99,0.56
0.52,0.99,0.45
0.6,1,0.31
0.6,1,0.21
0.48,1.01,0.15
0.39,1.01,0.1
0.35,1,0.03
0.33,0.98,0
0.29,0.96,0
0.29,0.92,0
0.31,0.88,0.01
0.35,0.84,0.02
0.37,0.81,0.02
0.4,0.81,0.04
0.44,0.82,0.07
0.44,0.81,0.09
0.46,0.81,0.09
0.48,0.81,0.09
0.47,0.81,0.11
0.45,0.83,0.12
0.43,0.84,0.14
0.41,0.86,0.16
0.4,0.88,0.17
0.39,0.9,0.2
0.4,0.9,0.23
0.41,0.9,0.23
0.41,0.9,0.23
0.41,0.91,0.23
0.41,0.93,0.23
0.41,0.94,0.23
0.4,0.95,0.25
0.39,0.96,0.29
0.37,0.96,0.33
0.35,0.95,0.37
0.33,0.94,0.4
0.3,0.94,0.43
0.28,0.94,0.45
0.27,0.94,0.46
0.25,0.94,0.46
0.24,0.93,0.46
0.25,0.92,0.54
0.3,0.94,0.59
0.31,0.94,0.64
0.3,0.92,0.64
0.26,0.91,0.64
0.2,0.9,0.65
0.15,0.91,0.64
0.12,0.95,0.69
0.1,1,0.76
0.1,1.02,0.78
0.1,1,0.8
0.1,0.98,0.81
0.11,0.95,0.86
0.15,0.96,0.89
0.21,1.01,0.88
0.25,1.01,0.89
0.26,1.01,0.91
0.27,1.01,0.93
0.29,0.98,0.93
0.32,0.96,0.91
0.34,0.96,0.91
0.36,0.97,0.92
0.37,0.98,0.94
0.38,1,0.96
0.41,0.99,0.97
0.4,0.97,0.98
0.4,0.96,0.91
0.45,0.93,0.88
0.46,0.92,0.88
0.46,0.91,0.88
0.49,0.9,0.85
0.51,0.91,0.85
0.5,0.91,0.86
0.51,0.9,0.84
0.52,0.86,0.81
0.54,0.79,0.78
0.58,0.74,0.74
0.62,0.73,0.73
0.62,0.75,0.77
0.56,0.77,0.79
0.49,0.77,0.77
0.48,0.73,0.75
0.46,0.67,0.75
0.44,0.6,0.74
0.44,0.54,0.73
0.46,0.51,0.72
0.45,0.5,0.72
0.4,0.53,0.74
0.38,0.5,0.72
0.35,0.43,0.69
0.31,0.38,0.69
0.29,0.34,0.68
0.29,0.31,0.57
0.33,0.3,0.54
0.32,0.26,0.53
0.29,0.26,0.54
0.25,0.25,0.57
0.26,0.21,0.57
0.28,0.17,0.54
0.26,0.16,0.53
0.23,0.15,0.51
0.2,0.13,0.51
0.16,0.14,0.53
0.11,0.14,0.55
0.07,0.07,0.54
0.05,0.03,0.56
0.05,0.03,0.58
0.01,0.03,0.59
-0.05,0.03,0.61
-0.1,0.02,0.66
-0.13,0.02,0.71
-0.15,-0.02,0.75
-0.16,-0.04,0.77
-0.15,-0.04,0.78
-0.16,-0.04,0.8
-0.17,-0.05,0.83
-0.17,-0.06,0.85
-0.17,-0.07,0.86
-0.18,-0.04,0.9
-0.17,-0.01,0.92
-0.16,-0.03,0.94
-0.14,-0.04,0.95
-0.11,-0.05,0.95
-0.09,-0.04,0.95
-0.09,-0.03,0.95
-0.08,-0.02,0.93
-0.09,-0.02,0.92
-0.1,-0.01,0.93
-0.1,-0.04,0.93
-0.08,-0.06,0.93
-0.08,-0.07,0.93
-0.09,-0.07,0.95
-0.12,-0.07,0.96
-0.13,-0.06,0.98
-0.15,-0.05,0.99
-0.17,-0.07,1
-0.17,-0.09,1
-0.17,-0.09,0.99
-0.16,-0.08,0.99
-0.16,-0.08,0.99
-0.16,-0.08,0.99
-0.15,-0.08,1
-0.14,-0.08,1
-0.13,-0.07,1.01
-0.12,-0.07,1
-0.09,-0.09,0.98
-0.08,-0.09,1.01
-0.07,-0.09,1.03
-0.06,-0.07,1.03
-0.05,-0.05,1.02
-0.05,-0.04,1.01
-0.04,-0.04,1
-0.03,-0.06,0.98
-0.04,-0.08,0.98
-0.03,-0.08,0.98
-0.02,-0.09,0.99
-0.02,-0.09,1
-0.03,-0.07,0.99
-0.04,-0.07,0.98
-0.05,-0.06,0.96
-0.06,-0.06,0.96
-0.06,-0.06,0.97
-0.05,-0.08,0.98
-0.04,-0.09,0.99
-0.04,-0.1,1
-0.05,-0.1,0.99
-0.05,-0.1,0.97
-0.04,-0.1,0.95
-0.04,-0.09,0.94
-0.04,-0.08,0.92
-0.02,-0.07,0.91
-0.01,-0.05,0.86
0.01,-0.05,0.84
0,-0.05,0.82
0,-0.05,0.8
0,-0.06,0.79
0,-0.07,0.77
0.01,-0.07,0.75
0.01,-0.07,0.72
0.01,-0.07,0.69
0,-0.06,0.66
-0.01,-0.05,0.63
-0.02,-0.04,0.6
-0.01,-0.03,0.59
-0.01,-0.01,0.58
-0.01,0.01,0.56
0,0.02,0.53
0.02,0.02,0.51
0.04,0.03,0.49
0.05,0.06,0.49
0.06,0.1,0.51
0.08,0.14,0.53
0.09,0.19,0.53
0.1,0.22,0.52
0.09,0.24,0.51
0.08,0.25,0.49
0.1,0.23,0.49
0.13,0.29,0.51
0.15,0.42,0.55
0.15,0.53,0.6
0.15,0.54,0.62
0.14,0.54,0.64
0.1,0.55,0.65
0.06,0.57,0.65
0.04,0.61,0.65
0.02,0.64,0.68
0.03,0.66,0.72
0.07,0.7,0.74
0.11,0.75,0.75
0.14,0.77,0.73
0.16,0.8,0.7
0.15,0.8,0.72
0.17,0.81,0.73
0.2,0.81,0.76
0.21,0.82,0.81
0.22,0.84,0.85
0.24,0.87,0.84
0.25,0.92,0.81
0.27,0.99,0.77
0.3,1.08,0.75
0.3,1.11,0.77
0.3,1.07,0.8
0.33,1.08,0.81
0.37,1.1,0.82
0.37,1.11,0.83
0.36,1.11,0.83
0.37,1.11,0.81
0.37,1.12,0.8
0.37,1.12,0.79
0.38,1.12,0.78
0.39,1.13,0.76
0.38,1.14,0.75
0.36,1.15,0.73
0.34,1.16,0.71
0.34,1.17,0.69
0.33,1.18,0.68
0.31,1.2,0.69
0.31,1.18,0.67
0.33,1.13,0.66
0.33,1.1,0.67
0.35,1.09,0.65
0.41,1.06,0.6
0.43,1.06,0.58
0.37,1.09,0.6
0.35,1.09,0.62
0.4,1.05,0.6
0.44,1.03,0.57
0.42,1.02,0.57
0.4,1.02,0.56
0.37,1.01,0.55
0.35,1.01,0.51
0.35,1.02,0.57
0.09,1.07,0.89
-0.34,1.06,1.29
-0.33,1.07,1.25
0.21,1.14,0.88
0.47,1.12,0.65
0.36,1.02,0.54
0.35,0.98,0.45
0.35,1,0.36
0.31,1.04,0.28
0.24,1.06,0.21
0.17,1.05,0.14
0.15,1.03,0.08
0.15,1.01,0.03
0.15,0.97,-0.01
0.18,0.93,-0.02
0.22,0.91,-0.03
0.25,0.9,-0.03
0.27,0.9,-0.04
0.26,0.9,-0.05
0.23,0.93,-0.06
0.21,0.95,-0.09
0.2,0.94,-0.11
0.18,0.94,-0.11
0.17,0.94,-0.09
0.19,0.93,-0.08
0.22,0.93,-0.07
0.23,0.93,-0.06
0.23,0.93,-0.06
0.22,0.93,-0.06
0.22,0.93,-0.05
0.22,0.93,-0.05
0.18,0.94,-0.04
0.16,0.97,-0.03
0.16,0.98,-0.02
0.16,0.97,0.01
0.16,0.96,0.03
0.17,0.95,0.05
0.19,0.93,0.06
0.2,0.93,0.07
0.2,0.93,0.08
0.21,0.93,0.09
0.2,0.94,0.11
0.18,0.95,0.12
0.17,0.97,0.14
0.17,0.98,0.15
0.17,0.98,0.17
0.16,0.99,0.2
0.18,0.99,0.23
0.2,0.99,0.27
0.2,0.99,0.33
0.16,0.98,0.35
0.12,0.99,0.37
0.11,1,0.4
0.14,0.99,0.45
0.16,0.98,0.51
0.2,1,0.54
0.24,1.01,0.56
0.27,1.04,0.56
0.3,1.06,0.56
0.33,1.07,0.57
0.34,1.04,0.6
0.35,1.04,0.65
0.38,1.06,0.69
0.4,1.05,0.71
0.4,1.06,0.72
0.38,1.08,0.73
0.34,1.09,0.71
0.3,1.1,0.7
0.29,1.12,0.7
0.29,1.12,0.72
0.31,1.12,0.74
0.36,1.12,0.76
0.39,1.13,0.79
0.4,1.2,0.8
0.4,1.26,0.8
0.37,1.25,0.75
0.3,1.16,0.74
0.3,1.16,0.78
0.32,1.17,0.82
0.37,1.18,0.82
0.35,1.21,0.84
0.32,1.23,0.85
0.29,1.22,0.83
0.28,1.2,0.82
0.27,1.2,0.84
0.28,1.2,0.83
0.32,1.21,0.8
0.34,1.21,0.8
0.35,1.18,0.81
0.38,1.13,0.84
0.39,1.09,0.84
0.36,1.08,0.82
0.35,1.08,0.79
0.33,1.07,0.77
0.3,1.03,0.79
0.29,0.99,0.82
0.29,0.94,0.83
0.28,0.9,0.82
0.26,0.86,0.78
0.24,0.85,0.74
0.22,0.85,0.7
0.21,0.82,0.74
0.22,0.71,0.72
0.22,0.67,0.68
0.22,0.63,0.62
0.18,0.59,0.55
0.14,0.56,0.48
0.12,0.54,0.46
0.13,0.49,0.43
0.19,0.39,0.38
0.23,0.32,0.35
0.25,0.28,0.29
0.25,0.28,0.24
0.19,0.25,0.17
0.09,0.2,0.14
0.02,0.14,0.17
0.01,0.08,0.22
0.01,0.05,0.28
0.01,0.05,0.31
0.01,0.05,0.3
0,0.06,0.28
-0.07,0.04,0.31
-0.11,0.02,0.38
-0.13,0,0.43
-0.14,-0.02,0.48
-0.13,-0.04,0.52
-0.1,-0.06,0.55
-0.06,-0.05,0.63
-0.1,0.03,0.68
-0.15,0.02,0.73
-0.17,-0.01,0.79
-0.19,-0.02,0.83
-0.18,-0.03,0.87
-0.19,-0.03,0.9
-0.2,-0.01,0.95
-0.21,0.01,1.01
-0.22,0.01,1.03
-0.24,0,1.03
-0.26,-0.01,1.01
-0.25,-0.02,0.99
-0.22,-0.03,0.99
-0.19,-0.02,1.01
-0.17,0,1.04
-0.17,0.01,1.06
-0.15,0.01,1.04
-0.15,0,1.03
-0.16,-0.01,1.01
-0.15,-0.01,1
-0.14,-0.02,0.99
-0.12,-0.02,1
-0.1,-0.02,1.01
-0.07,-0.02,1.03
-0.06,-0.02,1.02
-0.07,-0.01,1
-0.11,-0.01,0.95
-0.12,-0.02,0.95
-0.11,-0.03,0.95
-0.11,-0.03,0.94
-0.1,-0.03,0.92
-0.1,-0.03,0.89
-0.09,-0.04,0.86
-0.08,-0.04,0.82
-0.06,-0.04,0.79
-0.05,-0.04,0.75
-0.05,-0.04,0.72
-0.05,-0.04,0.68
-0.05,-0.04,0.62
-0.04,-0.05,0.56
-0.02,-0.05,0.51
0,-0.04,0.46
0.02,-0.01,0.42
0.03,0.01,0.38
0.05,0.03,0.35
0.07,0.03,0.33
0.08,0.06,0.32
0.1,0.09,0.32
0.13,0.12,0.32
0.15,0.15,0.32
0.15,0.19,0.32
0.12,0.23,0.34
0.09,0.29,0.42
0.09,0.34,0.45
0.09,0.4,0.45
0.09,0.42,0.43
0.1,0.42,0.4
0.14,0.44,0.36
0.16,0.53,0.34
0.15,0.63,0.41
0.17,0.69,0.48
0.23,0.75,0.51
0.25,0.79,0.5
0.22,0.82,0.47
0.2,0.79,0.41
0.21,0.85,0.36
0.2,1.01,0.4
0.19,1.08,0.52
0.19,1.1,0.64
0.21,1.14,0.72
0.23,1.2,0.75
0.22,1.24,0.73
0.18,1.27,0.69
0.16,1.29,0.65
0.16,1.33,0.67
0.19,1.37,0.73
0.25,1.36,0.72
0.32,1.34,0.7
0.37,1.41,0.78
0.41,1.43,0.81
0.4,1.47,0.78
0.33,1.51,0.81
0.27,1.52,0.87
0.28,1.49,0.87
0.3,1.46,0.86
0.32,1.44,0.86
0.33,1.42,0.85
0.33,1.42,0.86
0.3,1.43,0.88
0.25,1.41,0.88
0.21,1.4,0.92
0.22,1.36,0.95
0.25,1.29,0.93
0.26,1.23,0.92
0.31,1.18,0.89
0.35,1.15,0.85
0.35,1.11,0.84
0.37,1.06,0.81
0.2,1.11,1.3
-0.3,1.2,2.39
-0.63,1.11,2.42
-0.1,0.98,1.54
0.5,1.06,1.06
0.62,1.15,0.8
0.77,0.99,0.4
0.39,1.02,0.29
0.27,1.06,0.15
0.23,1.05,0
0.21,1.03,-0.08
0.18,1.01,-0.1
0.18,0.97,-0.11
0.18,0.91,-0.11
0.17,0.88,-0.13
0.2,0.85,-0.18
0.24,0.85,-0.21
0.26,0.87,-0.22
0.27,0.88,-0.2
0.28,0.91,-0.2
0.26,0.92,-0.2
0.21,0.93,-0.19
0.19,0.96,-0.18
0.2,0.96,-0.17
0.21,0.95,-0.14
0.21,0.94,-0.11
0.22,0.93,-0.09
0.21,0.93,-0.09
0.18,0.93,-0.07
0.17,0.93,-0.06
0.17,0.95,-0.04
0.16,0.96,-0.02
0.14,0.98,0.03
0.14,0.98,0.05
0.14,0.98,0.07
0.14,0.98,0.09
0.14,0.97,0.11
0.13,0.96,0.13
0.12,0.96,0.15
0.11,0.96,0.18
0.1,0.97,0.23
0.1,0.97,0.27
0.1,0.97,0.3
0.1,0.99,0.31
0.09,1.02,0.33
0.09,1.04,0.35
0.11,1.05,0.36
0.13,1.05,0.37
0.13,1.04,0.39
0.12,1.04,0.41
0.11,1.03,0.43
0.09,1.04,0.47
0.09,1.05,0.52
0.1,1.06,0.55
0.1,1.06,0.57
0.08,1.05,0.57
0.06,1.04,0.59
0.06,1.04,0.62
0.06,1.06,0.7
0.09,1.13,0.75
0.1,1.14,0.75
0.1,1.15,0.76
0.11,1.17,0.76
0.14,1.19,0.77
0.14,1.21,0.79
0.14,1.23,0.82
0.16,1.24,0.82
0.2,1.25,0.83
0.22,1.28,0.9
0.23,1.32,0.94
0.23,1.32,0.91
0.2,1.32,0.88
0.14,1.33,0.85
0.1,1.34,0.83
0.09,1.35,0.82
0.09,1.34,0.82
0.12,1.34,0.81
0.18,1.32,0.8
0.21,1.29,0.8
0.22,1.31,0.8
0.21,1.33,0.76
0.2,1.29,0.72
0.21,1.27,0.69
0.22,1.23,0.69
0.23,1.19,0.74
0.24,1.15,0.73
0.26,1.13,0.68
0.24,1.09,0.61
0.22,1.06,0.56
0.22,1.02,0.52
0.24,0.98,0.52
0.27,0.95,0.57
0.3,0.91,0.57
0.3,0.86,0.54
0.27,0.81,0.51
0.22,0.75,0.48
0.19,0.71,0.45
0.2,0.65,0.45
0.2,0.59,0.45
0.21,0.54,0.43
0.18,0.51,0.39
0.14,0.5,0.37
0.1,0.48,0.33
0.08,0.42,0.28
0.09,0.3,0.21
0.11,0.24,0.19
0.11,0.24,0.23
0.1,0.23,0.26
0.11,0.18,0.25
0.07,0.15,0.26
0.03,0.12,0.34
0.03,0.12,0.36
0.04,0.09,0.36
0.02,0.06,0.37
0,0.07,0.43
-0.01,0.08,0.5
-0.02,0.08,0.58
-0.02,0.07,0.63
-0.02,0.06,0.65
-0.05,0.06,0.69
-0.08,0.05,0.74
-0.1,0.06,0.79
-0.11,0.07,0.83
-0.12,0.08,0.86
-0.16,0.08,0.9
-0.18,0.08,0.94
-0.16,0.08,0.98
-0.14,0.07,1.02
-0.1,0.07,1.03
-0.09,0.07,1
-0.1,0.08,0.95
-0.12,0.09,0.94
-0.14,0.1,0.99
-0.15,0.09,1.06
-0.15,0.08,1.09
-0.17,0.08,1.08
-0.18,0.07,1.04
-0.16,0.08,1
-0.17,0.08,1
-0.17,0.09,1.03
-0.16,0.09,1.04
-0.16,0.08,1.03
-0.15,0.07,1
-0.15,0.08,0.98
-0.14,0.07,0.98
-0.12,0.05,1
-0.1,0.07,1.02
-0.12,0.09,1.02
-0.14,0.09,1
-0.14,0.07,0.98
-0.14,0.06,0.95
-0.15,0.05,0.95
-0.15,0.04,0.98
-0.13,0.05,0.99
-0.12,0.06,0.98
-0.13,0.05,0.97
-0.13,0.04,0.94
-0.12,0.05,0.92
-0.12,0.06,0.93
-0.11,0.05,0.93
-0.09,0.04,0.92
-0.07,0.05,0.92
-0.07,0.05,0.94
-0.08,0.04,0.94
-0.09,0.04,0.94
-0.1,0.04,0.94
-0.1,0.03,0.93
-0.11,0.03,0.93
-0.11,0.04,0.93
-0.1,0.04,0.94
-0.08,0.04,0.94
-0.07,0.04,0.92
-0.08,0.06,0.89
-0.1,0.07,0.87
-0.11,0.07,0.85
-0.11,0.08,0.83
-0.1,0.07,0.82
-0.08,0.05,0.8
-0.07,0.05,0.78
-0.06,0.05,0.73
-0.07,0.06,0.67
-0.08,0.07,0.62
-0.08,0.1,0.59
-0.09,0.12,0.58
-0.09,0.13,0.57
-0.07,0.13,0.55
-0.05,0.13,0.52
-0.05,0.13,0.49
-0.03,0.14,0.41
-0.02,0.22,0.41
-0.05,0.25,0.47
-0.02,0.27,0.52
0.03,0.3,0.52
0.03,0.34,0.51
0,0.36,0.49
0,0.37,0.46
-0.01,0.41,0.42
-0.03,0.46,0.43
-0.04,0.46,0.46
-0.01,0.42,0.49
0.01,0.43,0.54
0.03,0.51,0.54
0.04,0.61,0.51
0.04,0.66,0.47
0.08,0.71,0.42
0.1,0.78,0.4
0.11,0.87,0.45
0.08,0.76,0.54
0.07,0.74,0.62
0.13,0.87,0.68
0.14,0.88,0.67
0.14,0.91,0.65
0.13,0.94,0.62
0.11,0.97,0.6
0.09,1,0.6
0.1,1.16,0.66
0.11,1.24,0.73
0.15,1.26,0.73
0.21,1.25,0.68
0.24,1.25,0.64
0.26,1.27,0.61
0.27,1.29,0.61
0.27,1.31,0.63
0.25,1.34,0.73
0.23,1.36,0.85
0.26,1.34,0.88
0.29,1.3,0.85
0.3,1.27,0.82
0.29,1.27,0.8
0.28,1.29,0.75
0.28,1.29,0.71
0.27,1.3,0.71
0.26,1.3,0.79
0.26,1.28,0.86
0.27,1.23,0.87
0.27,1.18,0.85
0.25,1.15,0.82
0.24,1.12,0.8
0.25,1.09,0.79
0.28,1.07,0.78
0.31,1.07,0.75
0.35,1.06,0.7
0.33,1.06,0.68
0.35,1.05,0.68
0.28,1.11,0.98
0.1,1.25,1.59
-0.1,1.14,1.94
-0.13,0.9,1.38
0.01,0.99,0.59
0.22,1.21,0.43
0.46,1.17,0.47
0.46,1,0.44
0.4,0.95,0.38
0.37,0.99,0.26
0.31,1.02,0.13
0.28,0.99,0
0.27,0.95,-0.11
0.25,0.94,-0.19
0.26,0.91,-0.23
0.3,0.87,-0.21
0.32,0.87,-0.15
0.32,0.88,-0.1
0.3,0.88,-0.09
0.26,0.87,-0.11
0.22,0.86,-0.12
0.22,0.87,-0.1
0.25,0.9,-0.06
0.27,0.92,0.02
0.24,0.91,0.04
0.23,0.91,0.07
0.21,0.94,0.11
0.18,0.96,0.16
0.16,0.97,0.22
0.16,0.97,0.28
0.16,0.98,0.37
0.17,1.01,0.45
0.18,1.03,0.5
0.15,1.06,0.53
0.11,1.08,0.56
0.07,1.08,0.57
0.04,1.08,0.58
0.02,1.06,0.6
0.01,1.06,0.63
0.01,1.06,0.67
0.04,1.06,0.69
0.07,1.07,0.72
0.08,1.08,0.76
0.08,1.09,0.77
0.09,1.09,0.78
0.1,1.1,0.8
0.1,1.11,0.83
0.12,1.12,0.87
0.15,1.14,0.91
0.17,1.21,0.97
0.19,1.24,0.98
0.19,1.27,0.98
0.19,1.28,1
0.18,1.28,1.01
0.2,1.27,1
0.23,1.27,0.99
0.25,1.3,0.97
0.27,1.34,0.96
0.28,1.35,0.94
0.3,1.36,0.93
0.32,1.36,0.93
0.35,1.33,0.93
0.37,1.29,0.9
0.38,1.28,0.87
0.38,1.26,0.83
0.39,1.23,0.79
0.4,1.2,0.78
0.41,1.18,0.77
0.43,1.15,0.76
0.43,1.13,0.76
0.44,1.12,0.77
0.42,1.08,0.76
0.41,1.03,0.71
0.39,0.98,0.66
0.36,0.96,0.64
0.37,0.9,0.62
0.35,0.86,0.67
0.31,0.81,0.69
0.3,0.76,0.64
0.24,0.74,0.61
0.18,0.7,0.58
0.16,0.64,0.53
0.15,0.6,0.51
0.15,0.56,0.52
0.15,0.54,0.54
0.16,0.5,0.55
0.15,0.44,0.51
0.12,0.37,0.46
0.05,0.3,0.39
-0.02,0.26,0.29
-0.04,0.22,0.23
-0.01,0.17,0.18
0.02,0.14,0.18
0.05,0.1,0.19
0.06,0.06,0.17
0.02,0.01,0.17
-0.03,-0.03,0.17
-0.07,-0.06,0.16
-0.1,-0.07,0.19
-0.12,-0.06,0.22
-0.13,-0.09,0.23
-0.13,-0.12,0.36
-0.13,-0.11,0.46
-0.15,-0.12,0.55
-0.18,-0.11,0.61
-0.22,-0.08,0.67
-0.24,-0.08,0.7
-0.23,-0.1,0.71
-0.21,-0.12,0.74
-0.19,-0.12,0.78
-0.17,-0.11,0.83
-0.15,-0.09,0.88
-0.14,-0.08,0.92
-0.16,-0.1,0.96
-0.16,-0.12,1
-0.13,-0.11,1.03
-0.12,-0.09,1.04
-0.13,-0.09,1.04
-0.12,-0.09,1.02
-0.11,-0.09,1
-0.09,-0.09,0.98
-0.08,-0.09,0.99
-0.07,-0.1,1.03
-0.05,-0.1,1.06
-0.05,-0.1,1.06
-0.06,-0.09,1.02
-0.08,-0.09,0.99
-0.1,-0.08,0.97
-0.08,-0.08,0.97
-0.07,-0.08,0.99
-0.07,-0.09,0.99
-0.08,-0.09,0.97
-0.1,-0.09,0.96
-0.11,-0.1,0.96
-0.12,-0.09,0.97
-0.13,-0.07,0.98
-0.14,-0.08,0.99
-0.13,-0.09,0.99
-0.11,-0.09,1
-0.1,-0.09,1
-0.1,-0.08,1.01
-0.11,-0.08,1.02
-0.11,-0.08,1.03
-0.11,-0.08,1.04
-0.1,-0.08,1.06
-0.1,-0.08,1.06
-0.12,-0.08,1.06
-0.12,-0.08,1.04
-0.13,-0.07,1.01
-0.13,-0.07,1
-0.13,-0.08,1.01
-0.11,-0.08,1.02
-0.11,-0.09,1.02
-0.11,-0.08,0.99
-0.12,-0.07,0.98
-0.13,-0.07,0.97
-0.13,-0.07,0.97
-0.13,-0.07,0.98
-0.12,-0.07,0.99
-0.13,-0.06,0.99
-0.14,-0.07,0.97
-0.14,-0.07,0.95
-0.14,-0.07,0.95
-0.14,-0.06,0.97
-0.13,-0.04,0.98
-0.13,-0.03,1
-0.13,-0.03,1
-0.14,-0.03,1
-0.14,-0.02,0.99
-0.15,-0.03,0.97
-0.16,-0.04,0.95
-0.17,-0.04,0.94
-0.17,-0.03,0.93
-0.15,-0.02,0.93
-0.14,-0.02,0.94
-0.14,-0.01,0.93
-0.15,-0.01,0.91
-0.16,-0.01,0.89
-0.17,-0.01,0.84
-0.17,0,0.76
-0.15,0,0.72
-0.13,0,0.68
-0.11,0.01,0.64
-0.09,0.02,0.61
-0.07,0.03,0.56
-0.06,0.05,0.51
-0.05,0.06,0.45
-0.05,0.07,0.39
-0.06,0.08,0.33
-0.07,0.09,0.3
-0.05,0.11,0.32
0,0.14,0.34
0.03,0.18,0.35
0.05,0.21,0.35
0.06,0.24,0.35
0.09,0.27,0.33
0.1,0.3,0.33
0.1,0.32,0.34
0.09,0.35,0.36
0.1,0.38,0.38
0.13,0.42,0.39
0.14,0.51,0.42
0.14,0.59,0.45
0.14,0.67,0.48
0.14,0.73,0.5
0.13,0.76,0.5
0.04,0.83,0.55
0.03,0.84,0.61
0.02,0.8,0.65
0.02,0.88,0.66
0.02,0.93,0.64
0.02,1,0.62
0.03,1.1,0.62
0.03,1.19,0.67
0.03,1.23,0.77
0.04,1.2,0.8
0.05,1.14,0.78
0.07,1.11,0.76
0.09,1.11,0.75
0.12,1.14,0.74
0.14,1.23,0.74
0.14,1.34,0.82
0.14,1.43,0.92
0.18,1.46,0.95
0.22,1.42,0.92
0.25,1.38,0.86
0.28,1.36,0.83
0.28,1.34,0.82
0.28,1.31,0.82
0.28,1.31,0.82
0.3,1.32,0.84
0.3,1.34,0.94
0.28,1.32,0.95
0.28,1.28,0.94
0.27,1.24,0.93
0.26,1.2,0.91
0.25,1.16,0.88
0.24,1.14,0.85
0.24,1.13,0.83
0.25,1.11,0.82
0.28,1.09,0.8
0.3,1.06,0.77
0.31,1.02,0.75
0.32,1,0.73
0.34,1,0.7
0.3,1.01,0.76
-0.2,1.03,1.06
-1.03,1.02,1.53
-0.78,1.14,1.35
0.3,1.19,0.64
0.6,1.02,0.45
0.39,0.94,0.56
0.31,0.94,0.49
0.39,0.97,0.36
0.43,1.03,0.28
0.39,1.05,0.2
0.3,1.03,0.12
0.2,1.02,0.08
0.14,1,0.01
0.09,0.96,0
0.11,0.92,-0.02
0.15,0.91,-0.04
0.2,0.9,-0.06
0.22,0.9,-0.07
0.23,0.91,-0.08
0.24,0.91,-0.09
0.22,0.91,-0.1
0.19,0.92,-0.09
0.17,0.93,-0.07
0.16,0.94,-0.05
0.15,0.94,-0.01
0.15,0.95,0.04
0.12,0.97,0.07
0.08,0.98,0.11
0.07,0.99,0.15
0.05,1,0.2
0.01,1.01,0.26
-0.02,1.02,0.33
-0.03,1.02,0.4
-0.03,1.01,0.46
-0.02,1.01,0.51
-0.01,1.01,0.54
0.01,1.02,0.57
0.01,1.04,0.6
0.01,1.08,0.72
0.04,1.08,0.79
0.04,1.08,0.84
0.05,1.08,0.88
0.08,1.08,0.9
0.12,1.08,0.92
0.14,1.12,0.96
0.13,1.15,0.97
0.14,1.18,0.98
0.17,1.2,0.98
0.19,1.22,0.99
0.21,1.25,1.01
0.24,1.28,1.02
0.24,1.28,1.01
0.22,1.29,1.02
0.23,1.29,0.99
0.22,1.3,0.98
0.19,1.33,0.98
0.2,1.36,0.93
0.22,1.36,0.89
0.25,1.35,0.88
0.27,1.33,0.88
0.3,1.29,0.84
0.33,1.28,0.82
0.37,1.27,0.81
0.37,1.27,0.81
0.39,1.22,0.75
0.4,1.19,0.73
0.41,1.17,0.68
0.42,1.12,0.65
0.41,1.07,0.65
0.37,1.05,0.65
0.35,1.02,0.64
0.36,0.99,0.62
0.36,0.95,0.62
0.35,0.88,0.59
0.34,0.83,0.59
0.33,0.79,0.61
0.32,0.78,0.62
0.3,0.73,0.62
0.28,0.69,0.6
0.22,0.66,0.59
0.15,0.64,0.59
0.12,0.59,0.55
0.11,0.53,0.5
0.1,0.48,0.5
0.1,0.45,0.5
0.11,0.42,0.48
0.09,0.39,0.47
0.05,0.34,0.43
0.01,0.28,0.38
-0.02,0.23,0.3
-0.05,0.14,0.21
-0.06,0.11,0.19
-0.06,0.11,0.17
-0.04,0.08,0.16
-0.03,0.04,0.14
-0.06,0,0.15
-0.08,-0.05,0.2
-0.1,-0.07,0.26
-0.11,-0.08,0.32
-0.12,-0.07,0.37
-0.15,-0.05,0.42
-0.19,-0.04,0.49
-0.22,-0.03,0.56
-0.22,-0.03,0.61
-0.2,-0.03,0.66
-0.18,-0.03,0.73
-0.17,-0.04,0.82
-0.16,-0.03,0.91
-0.17,0,0.96
-0.2,0,1.01
-0.23,-0.02,1.04
-0.24,-0.04,1.08
-0.25,-0.04,1.1
-0.26,-0.04,1.11
-0.27,-0.04,1.11
-0.26,-0.03,1.11
-0.24,-0.02,1.09
-0.19,-0.02,1.08
-0.18,-0.02,1.07
-0.16,-0.02,1.07
-0.14,-0.03,1.05
-0.12,-0.03,1.04
-0.12,-0.03,1.05
-0.12,-0.03,1.05
-0.12,-0.01,1.02
-0.12,-0.01,1
-0.13,-0.01,0.99
-0.12,-0.03,0.98
-0.11,-0.04,0.96
-0.1,-0.03,0.95
-0.09,-0.03,0.94
-0.08,-0.02,0.94
-0.08,-0.01,0.94
-0.08,-0.01,0.92
-0.09,-0.01,0.9
-0.11,-0.02,0.9
-0.12,-0.03,0.91
-0.12,-0.03,0.91
-0.13,-0.03,0.9
-0.14,-0.03,0.88
-0.13,-0.03,0.86
-0.13,-0.01,0.85
-0.12,-0.01,0.85
-0.12,-0.02,0.84
-0.13,-0.03,0.83
-0.13,-0.02,0.81
-0.14,-0.03,0.78
-0.13,-0.03,0.76
-0.12,-0.03,0.74
-0.11,-0.03,0.71
-0.09,-0.02,0.68
-0.09,0.01,0.65
-0.08,0.02,0.62
-0.07,0.02,0.59
-0.06,0.03,0.55
-0.06,0.04,0.5
-0.05,0.05,0.46
-0.04,0.08,0.41
-0.03,0.12,0.37
-0.02,0.16,0.36
-0.01,0.19,0.41
0.01,0.19,0.45
0.05,0.21,0.44
0.08,0.23,0.41
0.08,0.25,0.39
0.07,0.28,0.37
0.08,0.33,0.34
0.08,0.4,0.33
0.06,0.49,0.38
0.11,0.57,0.41
0.15,0.54,0.43
0.19,0.57,0.41
0.2,0.68,0.38
0.2,0.74,0.35
0.19,0.82,0.33
0.2,0.81,0.33
0.2,0.86,0.39
0.18,0.99,0.49
0.24,1,0.54
0.3,1.01,0.55
0.32,1.05,0.56
0.32,1.1,0.54
0.3,1.15,0.51
0.26,1.24,0.56
0.21,1.35,0.68
0.21,1.41,0.77
0.24,1.42,0.82
0.26,1.41,0.84
0.27,1.4,0.83
0.3,1.4,0.82
0.31,1.42,0.8
0.33,1.45,0.82
0.34,1.49,0.92
0.36,1.51,1
0.35,1.48,1.07
0.29,1.4,1.06
0.27,1.36,1.06
0.25,1.32,1.07
0.23,1.29,1.07
0.23,1.28,1.05
0.23,1.27,1.02
0.22,1.26,0.98
0.21,1.26,0.95
0.22,1.25,0.93
0.23,1.22,0.9
0.22,1.18,0.88
0.2,1.15,0.86
0.19,1.12,0.85
0.13,1.12,0.77
-0.07,1.15,1.32
-0.4,1.18,2.16
-0.43,0.93,2.14
-0.3,0.71,1.22
-0.15,1.03,0.53
0.01,1.3,0.67
0.1,1.19,0.75
0.18,1.05,0.65
0.29,1.02,0.53
0.41,0.97,0.38
0.37,0.93,0.27
0.35,0.93,0.17
0.33,0.93,0.13
0.32,0.94,0.09
0.31,0.9,0.07
0.32,0.87,0.05
0.32,0.88,0.05
0.33,0.88,0.06
0.35,0.86,0.07
0.36,0.85,0.07
0.37,0.83,0.06
0.38,0.8,0.04
0.39,0.77,0.02
0.41,0.76,0
0.42,0.77,-0.02
0.42,0.79,-0.04
0.43,0.84,-0.06
0.43,0.89,-0.06
0.44,0.91,-0.05
0.45,0.94,-0.05
0.45,0.96,-0.05
0.45,0.99,-0.04
0.45,1,-0.03
0.44,1,-0.01
0.44,0.99,-0.01
0.44,0.97,0
0.44,0.97,0
0.44,0.97,0.03
0.43,0.98,0.05
0.43,0.98,0.06
0.43,0.96,0.07
0.43,0.94,0.08
0.41,0.92,0.09
0.38,0.91,0.1
0.38,0.89,0.11
0.38,0.84,0.12
0.35,0.83,0.13
0.35,0.82,0.15
0.36,0.81,0.16
0.34,0.82,0.19
0.3,0.85,0.2
0.27,0.85,0.21
0.25,0.86,0.22
0.22,0.88,0.22
0.21,0.91,0.22
0.19,0.91,0.22
0.18,0.91,0.23
0.18,0.92,0.23
0.18,0.93,0.23
0.18,0.95,0.23
0.18,1,0.23
0.17,1.07,0.23
0.15,1.15,0.22
0.13,1.21,0.22
0.11,1.14,0.19
0.12,1.05,0.2
0.14,0.95,0.22
0.17,0.9,0.26
0.19,0.91,0.28
0.19,0.97,0.29
0.17,1.05,0.31
0.1,1.12,0.3
0.02,1.15,0.26
-0.03,1.17,0.22
-0.06,1.17,0.19
-0.08,1.14,0.16
-0.08,1.11,0.15
-0.07,1.08,0.18
-0.05,1.06,0.2
0.02,1.04,0.2
0.08,1.01,0.18
0.12,0.98,0.18
0.15,0.95,0.17
0.17,0.91,0.16
0.19,0.86,0.14
0.21,0.81,0.14
0.22,0.78,0.13
0.22,0.76,0.13
0.22,0.75,0.14
0.22,0.74,0.14
0.23,0.75,0.14
0.25,0.77,0.14
0.26,0.79,0.14
0.27,0.8,0.15
0.3,0.82,0.16
0.33,0.82,0.16
0.38,0.83,0.17
0.4,0.83,0.18
0.41,0.83,0.18
0.44,0.83,0.18
0.46,0.83,0.19
0.52,0.83,0.19
0.5,0.82,0.22
0.47,0.81,0.28
0.53,0.81,0.29
0.59,0.8,0.29
0.64,0.8,0.29
0.66,0.8,0.3
0.64,0.8,0.3
0.65,0.81,0.29
0.67,0.82,0.28
0.69,0.83,0.29
0.73,0.85,0.3
0.76,0.86,0.3
0.76,0.86,0.29
0.76,0.86,0.28
0.73,0.87,0.26
0.77,0.87,0.25
0.79,0.87,0.24
0.8,0.9,0.24
0.81,0.94,0.23
0.84,1,0.22
0.86,1.06,0.23
0.86,1.1,0.25
0.84,1.12,0.24
0.82,1.13,0.22
0.81,1.11,0.2
0.79,1.07,0.18
0.75,1,0.16
0.69,0.91,0.13
0.64,0.86,0.12
0.54,0.85,0.11
0.57,0.83,0.06
0.62,0.8,0.04
0.5,0.83,0.1
0.43,0.86,0.13
0.44,0.89,0.1
0.44,0.96,0.09
0.43,1,0.08
0.44,0.99,0.04
0.43,0.98,0
0.42,0.97,0
0.4,0.93,0.03
0.38,0.92,0.05
0.4,0.9,0.06
0.41,0.88,0.07
0.4,0.84,0.08
0.39,0.81,0.08
0.39,0.78,0.07
0.4,0.74,0.06
0.39,0.71,0.07
0.39,0.71,0.09
0.44,0.73,0.11
0.43,0.76,0.15
0.4,0.77,0.16
0.44,0.74,0.15
0.47,0.72,0.16
0.44,0.72,0.2
0.42,0.7,0.21
0.44,0.66,0.2
0.42,0.62,0.21
0.43,0.6,0.25
0.42,0.6,0.29
0.41,0.59,0.31
0.41,0.6,0.35
0.4,0.61,0.39
0.41,0.59,0.4
0.43,0.6,0.41
0.45,0.64,0.43
0.46,0.62,0.42
0.5,0.57,0.4
0.53,0.56,0.4
0.54,0.6,0.46
0.55,0.6,0.51
0.56,0.58,0.53
0.54,0.56,0.57
0.5,0.55,0.62
0.48,0.53,0.64
0.48,0.5,0.65
0.48,0.48,0.65
0.49,0.48,0.65
0.51,0.48,0.66
0.55,0.47,0.69
0.59,0.49,0.72
0.6,0.51,0.74
0.59,0.5,0.74
0.58,0.45,0.74
0.59,0.4,0.73
0.62,0.37,0.73
0.67,0.37,0.74
0.7,0.39,0.77
0.73,0.4,0.8
0.76,0.41,0.83
0.75,0.43,0.84
0.72,0.42,0.63
0.56,0.31,0.61
0.59,0.26,0.78
0.58,0.25,0.81
0.61,0.24,0.83
0.66,0.25,0.87
0.72,0.27,0.89
0.75,0.3,0.89
0.74,0.3,0.89
0.73,0.28,0.87
0.7,0.26,0.85
0.7,0.24,0.83
0.7,0.22,0.83
0.7,0.2,0.85
0.7,0.16,0.87
0.7,0.13,0.9
0.7,0.11,0.91
0.68,0.09,0.9
0.65,0.08,0.9
0.61,0.06,0.87
0.59,0.02,0.82
0.59,-0.01,0.79
0.57,0.02,0.81
0.54,0.03,0.87
0.54,0.04,1.06
0.54,0.1,1.25
0.54,0.17,1.18
0.49,0.01,1
0.47,0,0.88
0.44,0.02,0.88
0.41,0.05,0.94
0.41,0.07,0.96
0.4,0.08,0.94
0.39,0.07,0.9
0.38,0.05,0.87
0.37,0.03,0.86
0.37,0.02,0.86
0.38,0.01,0.87
0.38,-0.01,0.87
0.36,-0.01,0.87
0.36,0,0.89
0.37,0.03,0.9
0.38,0.02,0.9
0.33,0.05,0.95
0.31,0.07,1.01
0.32,0.03,1
0.28,0.09,1.01
0.26,0.14,1.02
0.27,0.12,0.99
0.27,0.11,0.97
0.28,0.09,0.96
0.29,0.1,0.96
0.29,0.12,0.96
0.31,0.07,0.94
0.32,0.03,0.93
0.35,0.01,0.93
0.36,-0.01,0.93
0.37,-0.01,0.95
0.36,0.01,0.98
0.37,0.01,0.97
0.41,0.01,0.96
0.42,0.01,0.94
0.42,0.02,0.92
0.42,0.02,0.89
0.42,0.03,0.89
0.4,0.04,0.89
0.37,0.05,0.91
0.37,0.07,0.96
0.39,0.11,0.98
0.41,0.12,0.97
0.38,0.11,0.9
0.39,0.11,0.87
0.41,0.12,0.88
0.42,0.12,0.88
0.41,0.12,0.88
0.41,0.12,0.87
0.41,0.13,0.89
0.38,0.14,0.89
0.35,0.15,0.92
0.34,0.16,0.93
0.31,0.19,1
0.28,0.2,1.04
0.25,0.18,0.98
0.23,0.18,0.98
0.24,0.2,1
0.25,0.21,1.02
0.24,0.19,0.99
0.25,0.18,0.94
0.25,0.16,0.9
0.27,0.17,0.92
0.3,0.22,0.98
0.27,0.22,1.01
0.25,0.22,1.05
0.21,0.2,1.03
0.18,0.19,0.96
0.17,0.18,0.96
0.2,0.16,0.99
0.27,0.14,0.96
0.3,0.12,0.95
0.3,0.12,0.97
0.29,0.12,0.98
0.28,0.11,0.96
0.29,0.11,0.95
0.31,0.12,0.95
0.31,0.12,0.95
0.31,0.12,0.95
0.29,0.12,0.95
0.28,0.12,0.96
0.28,0.12,0.96
0.27,0.11,0.97
0.26,0.12,0.97
0.25,0.12,0.97
0.27,0.12,0.96
0.28,0.11,0.96
0.3,0.11,0.95
0.3,0.12,0.96
0.29,0.13,0.96
0.28,0.13,0.96
0.27,0.13,0.96
0.26,0.13,0.96
0.26,0.13,0.96
0.27,0.13,0.96
0.27,0.14,0.96
0.28,0.14,0.96
0.29,0.13,0.95
0.3,0.13,0.95
0.29,0.13,0.95
0.27,0.14,0.96
0.26,0.14,0.96
0.26,0.14,0.96
0.26,0.13,0.97
0.25,0.13,0.97
0.26,0.13,0.96
0.27,0.13,0.96
0.28,0.13,0.96
0.28,0.12,0.96
0.28,0.12,0.96
0.28,0.12,0.96
0.28,0.13,0.96
0.26,0.13,0.96
0.24,0.13,0.96
0.23,0.14,0.97
0.24,0.14,0.97
0.25,0.13,0.97
0.26,0.14,0.96
0.27,0.13,0.96
0.27,0.13,0.96
0.27,0.14,0.96
0.27,0.13,0.96
0.27,0.13,0.96
0.26,0.13,0.96
0.25,0.13,0.97
0.25,0.13,0.96
0.26,0.13,0.96
0.26,0.13,0.96
0.26,0.13,0.96
0.27,0.13,0.96
0.27,0.13,0.96
0.27,0.13,0.96
0.27,0.13,0.96
0.27,0.13,0.96
0.27,0.13,0.96
0.27,0.12,0.96
0.27,0.13,0.96
0.26,0.12,0.96
0.27,0.12,0.96
0.27,0.12,0.96
0.27,0.12,0.96
0.27,0.12,0.96
0.26,0.12,0.96
0.26,0.13,0.96
0.26,0.13,0.96
