Acc_x,Acc_y,Acc_z
0.51,0.1,0.86
0.51,0.1,0.86
0.5,0.09,0.87
0.49,0.1,0.87
0.5,0.11,0.85
0.5,0.11,0.86
0.5,0.11,0.87
0.5,0.11,0.88
0.51,0.11,0.87
0.48,0.1,0.87
0.46,0.11,0.89
0.44,0.12,0.91
0.41,0.13,0.94
0.41,0.14,0.95
0.47,0.14,0.92
0.54,0.11,0.88
0.59,0.17,0.91
0.54,0.17,0.92
0.49,0.15,0.89
0.53,0.21,0.9
0.49,0.24,0.92
0.45,0.22,0.95
0.46,0.2,0.95
0.51,0.2,0.94
0.53,0.17,0.99
0.49,0.12,1.04
0.5,0.14,1.03
0.54,0.16,1.02
0.52,0.11,1
0.46,0.09,0.99
0.46,0.07,0.97
0.48,0.06,0.96
0.51,0.04,0.96
0.53,0.03,0.96
0.55,0.02,0.96
0.56,0.01,0.96
0.54,-0.02,0.96
0.51,-0.04,0.95
0.49,-0.07,0.93
0.47,-0.1,0.91
0.47,-0.12,0.9
0.49,-0.15,0.88
0.53,-0.17,0.88
0.55,-0.19,0.87
0.55,-0.21,0.86
0.54,-0.23,0.85
0.54,-0.25,0.82
0.53,-0.27,0.79
0.53,-0.29,0.75
0.55,-0.31,0.72
0.55,-0.33,0.71
0.54,-0.33,0.71
0.51,-0.33,0.72
0.49,-0.33,0.72
0.46,-0.33,0.71
0.45,-0.32,0.67
0.45,-0.32,0.63
0.45,-0.33,0.59
0.45,-0.33,0.55
0.45,-0.33,0.53
0.44,-0.33,0.52
0.43,-0.32,0.53
0.42,-0.31,0.56
0.41,-0.29,0.59
0.39,-0.27,0.63
0.36,-0.25,0.67
0.35,-0.24,0.69
0.34,-0.22,0.71
0.34,-0.22,0.7
0.34,-0.22,0.69
0.34,-0.21,0.69
0.34,-0.21,0.7
0.35,-0.19,0.71
0.37,-0.16,0.72
0.4,-0.14,0.75
0.45,-0.11,0.84
0.43,-0.11,0.94
0.39,-0.09,1.03
0.43,-0.07,1.18
0.45,-0.1,1.35
0.46,-0.12,1.46
0.29,-0.16,1.69
0.51,-0.03,1.85
0.94,0.16,1.62
0.72,0.19,1.32
0.31,-0.1,1.07
-0.02,-0.17,0.9
-0.06,0.02,0.88
0.14,-0.01,0.88
0.27,-0.02,0.88
0.32,-0.03,0.88
0.33,-0.03,0.86
0.38,0.01,0.85
0.5,0.06,0.84
0.66,0.04,0.92
0.54,0.02,1.01
0.37,0.02,1.03
0.29,0.02,0.99
0.27,0.02,0.94
0.27,0.03,0.92
0.29,0.04,0.92
0.33,0.05,0.94
0.36,0.05,0.95
0.38,0.05,0.94
0.38,0.04,0.93
0.38,0.04,0.93
0.38,0.03,0.93
0.37,0.03,0.94
0.37,0.03,0.94
0.38,0.02,0.94
0.41,0.02,0.95
0.43,0.01,0.95
0.41,0.01,0.97
0.39,0.01,0.98
0.37,0.01,0.98
0.36,0,1
0.35,0.01,1.03
0.37,0.01,1.06
0.39,0.01,1.05
0.39,0,1.02
0.41,-0.02,1.01
0.42,-0.02,1.01
0.43,-0.02,1.02
0.42,-0.03,1.03
0.41,-0.03,1.04
0.4,-0.04,1.03
0.41,-0.04,1
0.41,-0.05,0.97
0.42,-0.06,0.95
0.43,-0.06,0.93
0.44,-0.05,0.9
0.44,-0.06,0.89
0.43,-0.06,0.89
0.43,-0.07,0.9
0.42,-0.08,0.9
0.42,-0.09,0.89
0.4,-0.1,0.88
0.39,-0.1,0.85
0.39,-0.1,0.83
0.4,-0.1,0.82
0.4,-0.1,0.81
0.4,-0.11,0.8
0.39,-0.11,0.79
0.39,-0.11,0.78
0.39,-0.11,0.75
0.38,-0.11,0.74
0.38,-0.11,0.73
0.38,-0.1,0.74
0.38,-0.09,0.74
0.38,-0.09,0.74
0.38,-0.09,0.74
0.37,-0.08,0.73
0.36,-0.08,0.72
0.36,-0.08,0.71
0.38,-0.08,0.7
0.37,-0.09,0.68
0.36,-0.09,0.66
0.34,-0.09,0.64
0.31,-0.08,0.62
0.28,-0.07,0.61
0.26,-0.06,0.6
0.26,-0.04,0.62
0.28,-0.01,0.69
0.41,0.13,1.09
0.87,0.04,2.51
1.93,0.09,3
0.9,0.26,1.46
-0.5,-0.06,0.73
-0.12,-0.19,0.83
-0.01,-0.01,0.61
0.12,0.05,0.53
0.26,-0.01,0.68
0.46,0.11,0.95
0.49,0.14,1.25
0.54,0.08,1.25
0.42,0.06,1.09
0.31,0.04,0.94
0.29,0.02,0.82
0.32,0.03,0.8
0.37,0.04,0.83
0.39,0.04,0.9
0.38,0.03,0.97
0.38,0.04,1
0.37,0.04,1
0.36,0.03,0.98
0.35,0.02,0.96
0.35,0.03,0.94
0.37,0.05,0.93
0.38,0.05,0.96
0.38,0.04,0.99
0.38,0.04,1.03
0.38,0.05,1.05
0.39,0.05,1.05
0.4,0.04,1.04
0.41,0.05,1.03
0.41,0.05,1.03
0.43,0.06,1.05
0.47,0.06,1.11
0.48,0.04,1.1
0.49,0.02,1.08
0.48,0,1.06
0.46,-0.01,1.05
0.43,-0.03,1.04
0.41,-0.05,1.03
0.41,-0.06,1.02
0.4,-0.08,1.01
0.4,-0.09,1
0.41,-0.11,0.98
0.43,-0.12,0.95
0.44,-0.13,0.92
0.44,-0.14,0.9
0.43,-0.15,0.88
0.4,-0.15,0.85
0.39,-0.16,0.83
0.38,-0.18,0.83
0.37,-0.19,0.83
0.36,-0.2,0.82
0.36,-0.2,0.81
0.36,-0.21,0.79
0.35,-0.21,0.77
0.34,-0.22,0.75
0.34,-0.22,0.72
0.35,-0.24,0.69
0.34,-0.25,0.66
0.34,-0.26,0.64
0.34,-0.27,0.62
0.33,-0.27,0.61
0.32,-0.28,0.6
0.31,-0.28,0.6
0.31,-0.27,0.6
0.32,-0.27,0.61
0.32,-0.25,0.61
0.32,-0.24,0.61
0.33,-0.22,0.62
0.34,-0.21,0.64
0.36,-0.2,0.65
0.37,-0.19,0.66
0.36,-0.18,0.67
0.35,-0.17,0.68
0.33,-0.16,0.69
0.31,-0.15,0.71
0.31,-0.14,0.73
0.32,-0.12,0.75
0.32,-0.1,0.82
0.34,-0.06,0.93
0.38,0,1.03
0.4,0.02,1.12
0.4,0,1.23
0.23,0.13,2.12
0.76,0.08,2.73
0.76,0.3,1.28
-0.37,-0.24,0.81
-0.18,-0.17,0.84
0,0.01,0.63
0.15,-0.05,0.59
0.28,-0.08,0.67
0.36,-0.04,0.78
0.4,0,0.84
0.49,0.03,0.83
0.57,0.03,0.81
0.58,0.04,0.82
0.56,0.06,0.88
0.49,0.06,1
0.34,0.04,1.19
0.26,0.03,1.25
0.29,0.04,1.15
0.31,0.03,1.03
0.34,0.01,0.93
0.34,0,0.89
0.36,0.01,0.9
0.4,0.03,0.91
0.41,0.03,0.96
0.42,0.03,1.01
0.43,0.02,1.05
0.41,0.01,1.08
0.4,0,1.08
0.38,-0.02,1.06
0.38,-0.04,1.04
0.37,-0.05,1.03
0.36,-0.06,1.02
0.37,-0.07,1.02
0.38,-0.07,1.02
0.39,-0.08,1.02
0.39,-0.08,1.01
0.39,-0.09,1
0.39,-0.1,0.99
0.39,-0.11,0.97
0.39,-0.12,0.95
0.39,-0.13,0.93
0.39,-0.13,0.92
0.39,-0.14,0.91
0.4,-0.15,0.91
0.41,-0.15,0.91
0.41,-0.15,0.9
0.41,-0.15,0.89
0.41,-0.15,0.88
0.4,-0.16,0.87
0.39,-0.16,0.87
0.38,-0.16,0.88
0.37,-0.17,0.88
0.37,-0.17,0.87
0.38,-0.17,0.85
0.38,-0.17,0.84
0.38,-0.17,0.82
0.38,-0.17,0.8
0.38,-0.18,0.79
0.37,-0.19,0.76
0.38,-0.19,0.73
0.38,-0.21,0.71
0.37,-0.23,0.69
0.37,-0.24,0.67
0.37,-0.25,0.66
0.37,-0.26,0.65
0.37,-0.26,0.65
0.37,-0.26,0.64
0.37,-0.26,0.64
0.37,-0.25,0.64
0.37,-0.25,0.66
0.36,-0.24,0.69
0.35,-0.23,0.7
0.34,-0.23,0.71
0.34,-0.23,0.7
0.34,-0.22,0.69
0.34,-0.21,0.67
0.33,-0.2,0.64
0.32,-0.18,0.64
0.3,-0.16,0.65
0.28,-0.13,0.71
0.26,-0.08,0.82
0.29,-0.05,0.92
0.34,-0.01,1.03
0.38,0.04,1.14
0.4,0.07,1.24
0.37,0.06,1.42
0.18,-0.1,1.97
1.17,0.21,2.61
1.05,0.32,1.86
-0.23,-0.16,1
-0.12,-0.17,0.91
0.05,-0.01,0.65
0.17,-0.02,0.58
0.23,-0.1,0.6
0.31,-0.07,0.67
0.4,-0.02,0.72
0.53,0.02,0.72
0.69,0.05,0.71
0.78,0.04,0.74
0.64,0.01,0.94
0.24,-0.02,1.29
0.24,0.01,1.36
0.38,0.03,1.15
0.21,-0.02,1
0.18,0,0.89
0.28,0.04,0.81
0.39,0.03,0.93
0.42,0.03,0.97
0.42,0.02,0.98
0.4,0.02,0.96
0.37,0.02,0.94
0.35,0.01,0.93
0.35,0.01,0.92
0.37,0,0.94
0.37,0,0.95
0.37,0,0.95
0.37,0,0.95
0.38,0,0.94
0.38,0,0.94
0.39,0.01,0.94
0.39,0.01,0.93
0.39,0.01,0.93
0.38,0.01,0.93
0.38,0.01,0.94
0.37,0.01,0.94
0.36,0.01,0.94
0.37,0.02,0.94
0.37,0.02,0.94
0.37,0.02,0.94
0.37,0.02,0.93
0.38,0.01,0.94
0.38,0.01,0.94
0.38,0.01,0.93
0.38,0,0.93
0.38,0,0.93
0.38,0,0.93
0.38,0.01,0.94
0.38,0.01,0.93
0.38,0.01,0.93
0.38,0.01,0.94
0.38,0.01,0.94
0.38,0.01,0.94
0.37,0.01,0.94
0.37,0,0.94
0.38,0,0.94
0.38,0,0.94
0.38,0,0.94
0.38,0,0.94
0.38,0.01,0.94
0.37,0.01,0.94
0.38,0.01,0.93
0.38,0.01,0.93
0.38,0.01,0.93
0.38,0.01,0.93
0.38,0.01,0.93
0.38,0.01,0.94
0.38,0.01,0.93
0.38,0.01,0.94
0.38,0.01,0.94
0.37,0.01,0.94
0.37,0.01,0.94
0.37,0.01,0.93
0.38,0.01,0.93
0.38,0,0.93
0.38,0,0.93
0.38,0,0.93
0.38,0,0.93
0.38,0,0.93
0.38,0,0.93
0.38,0,0.93
0.38,0,0.93
0.38,0,0.93
0.38,0.01,0.93
0.38,0.01,0.93
0.37,0.01,0.93
0.37,0.01,0.94
0.37,0.01,0.94
0.38,0.01,0.93
0.38,0.01,0.93
0.38,0,0.93
0.38,0,0.93
0.38,0,0.93
0.39,0,0.93
0.39,0,0.93
0.39,0,0.93
0.39,0,0.93
0.38,0,0.93
0.38,0.01,0.93
0.38,0,0.94
0.37,0.01,0.94
0.38,0.01,0.94
0.38,0.01,0.94
0.38,0.01,0.94
0.38,0.01,0.93
0.38,0.01,0.93
0.38,0,0.93
0.38,0,0.93
0.38,0,0.93
0.38,0,0.93
0.39,0,0.93
0.39,0,0.93
0.38,0,0.93
0.38,0,0.93
0.38,0,0.93
0.37,0.01,0.94
0.37,0.01,0.93
0.37,0.01,0.94
0.38,0.01,0.93
0.38,0.01,0.94
0.38,0.01,0.94
0.38,0,0.94
0.37,0,0.95
0.34,0,0.96
0.32,0,0.96
0.32,0,0.93
0.36,0.01,0.93
0.41,0.02,0.95
0.45,0.02,0.95
0.46,0.03,0.98
0.45,0.02,1.01
0.41,0.02,1.02
0.41,0.01,1.02
0.43,0,1
0.41,-0.01,0.98
0.37,-0.01,0.96
0.38,-0.01,0.96
0.42,-0.01,0.98
0.47,0,1.02
0.49,0.01,1.06
0.47,0.01,1.08
0.43,0,1.09
0.41,-0.01,1.07
0.39,-0.03,1.04
0.38,-0.06,1.02
0.37,-0.08,1
0.36,-0.11,0.98
0.35,-0.13,0.97
0.34,-0.13,0.95
0.34,-0.14,0.94
0.35,-0.15,0.93
0.35,-0.15,0.92
0.35,-0.16,0.91
0.35,-0.16,0.91
0.35,-0.17,0.91
0.34,-0.17,0.91
0.33,-0.17,0.92
0.34,-0.17,0.92
0.35,-0.17,0.91
0.36,-0.18,0.89
0.37,-0.19,0.87
0.37,-0.2,0.85
0.36,-0.2,0.83
0.35,-0.21,0.81
0.34,-0.21,0.79
0.34,-0.21,0.76
0.34,-0.21,0.74
0.34,-0.21,0.73
0.34,-0.22,0.71
0.34,-0.22,0.69
0.34,-0.22,0.68
0.33,-0.22,0.66
0.33,-0.21,0.65
0.34,-0.2,0.63
0.34,-0.19,0.62
0.34,-0.19,0.61
0.33,-0.18,0.61
0.33,-0.17,0.61
0.33,-0.16,0.61
0.33,-0.15,0.62
0.35,-0.13,0.63
0.36,-0.12,0.64
0.37,-0.1,0.66
0.37,-0.08,0.68
0.38,-0.04,0.72
0.43,-0.03,0.79
0.47,0.01,0.89
0.6,0.06,0.97
0.19,0,2.27
1.16,0.23,3.52
1.03,0.33,2.24
-0.59,-0.07,1.04
-0.39,-0.22,0.87
-0.04,-0.05,0.6
0.23,-0.01,0.49
0.33,-0.09,0.49
0.37,-0.07,0.54
0.52,0.05,0.66
0.64,0.09,0.86
0.41,0.02,1.42
0.45,0.01,1.21
0.26,0.01,1.01
0.21,-0.03,0.88
0.25,-0.01,0.82
0.32,0.01,0.85
0.37,0.02,0.92
0.4,0.03,0.98
0.41,0.03,0.99
0.39,0.03,0.97
0.35,0.02,0.94
0.35,0.03,0.93
0.36,0.03,0.93
0.37,0.02,0.94
0.36,0.02,0.94
0.34,0.01,0.95
0.33,0,0.95
0.34,0,0.95
0.34,-0.01,0.94
0.35,-0.01,0.94
0.37,-0.01,0.94
0.39,-0.01,0.94
0.39,-0.01,0.94
0.38,0,0.94
0.37,0,0.93
0.36,0.01,0.94
0.36,0.01,0.94
0.35,0.01,0.94
0.36,0.01,0.95
0.37,0.01,0.95
0.37,0.01,0.94
0.37,0.02,0.94
0.37,0.02,0.94
0.38,0.02,0.94
0.38,0.01,0.94
0.37,0.01,0.94
0.37,0,0.94
0.37,0,0.94
0.37,0,0.94
0.37,0,0.94
0.38,0,0.94
0.37,0,0.94
0.37,0,0.94
0.37,0,0.94
0.37,0,0.94
0.37,-0.01,0.94
0.37,-0.01,0.94
0.37,-0.01,0.94
0.37,0,0.95
0.37,0,0.94
0.37,0,0.94
0.37,0,0.94
0.37,0,0.94
0.38,0,0.93
0.37,0,0.93
0.38,0.01,0.94
0.38,0.01,0.94
0.37,0.01,0.94
0.37,0,0.93
0.37,0,0.93
0.38,-0.01,0.93
0.39,-0.01,0.93
0.39,-0.01,0.93
0.4,-0.01,0.93
0.39,-0.01,0.93
0.39,-0.01,0.93
0.38,-0.01,0.94
0.38,-0.01,0.94
0.37,-0.01,0.93
0.37,-0.01,0.93
0.37,-0.01,0.94
0.38,-0.01,0.94
0.38,-0.01,0.94
0.38,0,0.93
0.38,0,0.93
0.38,0.01,0.93
0.39,0,0.93
0.39,0,0.93
0.39,0,0.93
0.38,0,0.93
0.37,0,0.94
0.38,0,0.94
0.38,0,0.93
0.38,0,0.94
0.38,0,0.94
0.38,0,0.93
0.39,0,0.93
0.39,-0.01,0.93
0.38,-0.01,0.93
0.37,-0.01,0.95
0.37,-0.01,0.97
0.39,-0.02,0.96
0.4,-0.02,0.94
0.38,-0.01,0.94
0.38,-0.01,0.93
0.39,-0.01,0.93
0.4,-0.01,0.93
0.39,-0.01,0.93
0.38,0,0.94
0.39,0,0.93
0.39,0,0.93
0.4,0,0.93
0.4,0,0.93
0.39,-0.01,0.93
0.39,-0.01,0.93
0.4,-0.01,0.92
0.41,0,0.93
0.4,-0.01,0.93
0.4,-0.01,0.93
0.4,-0.01,0.93
0.39,-0.01,0.93
0.39,-0.01,0.93
0.39,-0.01,0.93
0.39,-0.01,0.93
0.38,0,0.94
0.39,-0.01,0.93
0.4,-0.01,0.93
0.41,-0.01,0.93
0.41,-0.01,0.93
0.39,-0.02,0.93
0.36,-0.02,0.92
0.34,-0.02,0.91
0.39,0,0.93
0.43,0.01,0.95
0.46,0.01,0.95
0.48,0.02,0.94
0.48,0.01,0.94
0.48,-0.01,0.94
0.44,-0.03,0.94
0.44,-0.03,0.95
0.45,-0.03,0.93
0.39,-0.06,0.93
0.37,-0.06,0.93
0.36,-0.06,0.94
0.36,-0.06,0.93
0.37,-0.05,0.92
0.38,-0.05,0.91
0.39,-0.04,0.91
0.41,-0.04,0.91
0.41,-0.04,0.92
0.4,-0.05,0.94
0.39,-0.05,0.95
0.38,-0.06,0.97
0.38,-0.06,0.99
0.39,-0.05,1
0.4,-0.04,1.01
0.41,-0.04,1.03
0.42,-0.03,1.04
0.42,-0.03,1.04
0.43,-0.05,1.02
0.43,-0.08,1
0.42,-0.1,1.01
0.4,-0.11,1.01
0.38,-0.12,1.02
0.36,-0.13,1.02
0.35,-0.15,1.02
0.34,-0.16,0.99
0.36,-0.19,0.97
0.37,-0.19,0.95
0.37,-0.2,0.92
0.36,-0.2,0.92
0.35,-0.2,0.94
0.35,-0.2,0.94
0.36,-0.21,0.93
0.36,-0.22,0.92
0.36,-0.23,0.91
0.36,-0.23,0.92
0.36,-0.23,0.92
0.34,-0.23,0.92
0.34,-0.23,0.91
0.34,-0.22,0.9
0.35,-0.22,0.89
0.36,-0.23,0.87
0.35,-0.24,0.85
0.33,-0.24,0.82
0.31,-0.25,0.8
0.3,-0.24,0.77
0.29,-0.24,0.76
0.31,-0.24,0.75
0.34,-0.24,0.75
0.37,-0.24,0.76
0.38,-0.25,0.76
0.39,-0.26,0.77
0.36,-0.26,0.76
0.35,-0.27,0.75
0.34,-0.27,0.74
0.34,-0.26,0.72
0.33,-0.26,0.71
0.33,-0.25,0.7
0.33,-0.25,0.69
0.33,-0.24,0.68
0.33,-0.23,0.68
0.33,-0.22,0.71
0.33,-0.21,0.72
0.33,-0.21,0.73
0.31,-0.2,0.73
0.29,-0.19,0.72
0.27,-0.18,0.69
0.26,-0.18,0.68
0.26,-0.17,0.66
0.27,-0.18,0.67
0.27,-0.16,0.72
0.3,-0.1,0.83
0.39,-0.06,1.01
0.44,-0.12,1.36
0.63,-0.06,2.5
1.79,0.68,3
1.25,0.71,1.7
-0.46,-0.2,0.87
-0.06,0.03,0.67
0.25,0.04,0.57
0.41,-0.06,0.6
0.36,-0.06,0.71
0.36,-0.01,0.79
0.38,0.01,0.78
0.4,0.02,0.78
0.44,0.03,0.86
0.46,0.02,1.07
0.51,0.01,1.21
0.58,0.05,1.19
0.47,0.04,1.05
0.31,-0.02,0.92
0.26,-0.02,0.89
0.27,0,0.89
0.31,0,0.93
0.35,-0.01,0.96
0.36,0,0.95
0.36,0,0.94
0.38,0,0.94
0.4,0,0.95
0.38,-0.01,0.95
0.36,-0.01,0.95
0.35,-0.01,0.95
0.35,-0.01,0.95
0.34,-0.02,0.94
0.36,-0.01,0.94
0.38,-0.01,0.94
0.39,-0.01,0.94
0.38,-0.01,0.93
0.38,-0.01,0.93
0.37,0,0.93
0.36,0,0.94
0.36,0.01,0.95
0.36,0.01,0.96
0.36,0.01,0.96
0.36,0.01,0.97
0.37,0.02,0.97
0.37,0.03,0.98
0.38,0.02,0.99
0.38,0.02,1.01
0.39,0.03,1.02
0.41,0.03,1.04
0.42,0.03,1.06
0.43,0.03,1.06
0.45,0.03,1.07
0.43,0.02,1.08
0.4,0.01,1.06
0.4,0,1.04
0.39,-0.01,1.02
0.39,-0.03,1.01
0.38,-0.04,1.01
0.38,-0.04,1.01
0.37,-0.05,0.99
0.37,-0.06,0.97
0.37,-0.08,0.94
0.38,-0.09,0.93
0.38,-0.1,0.91
0.37,-0.12,0.9
0.37,-0.13,0.88
0.36,-0.14,0.87
0.36,-0.15,0.85
0.36,-0.16,0.84
0.35,-0.17,0.84
0.36,-0.19,0.82
0.36,-0.2,0.81
0.35,-0.21,0.79
0.35,-0.23,0.77
0.36,-0.23,0.76
0.37,-0.24,0.74
0.37,-0.25,0.73
0.37,-0.26,0.71
0.36,-0.26,0.69
0.36,-0.27,0.68
0.35,-0.27,0.67
0.35,-0.26,0.67
0.35,-0.26,0.66
0.35,-0.26,0.66
0.35,-0.25,0.66
0.36,-0.24,0.68
0.37,-0.22,0.71
0.38,-0.19,0.76
0.38,-0.17,0.8
0.38,-0.16,0.83
0.37,-0.14,0.84
0.37,-0.13,0.85
0.38,-0.12,0.85
0.36,-0.12,0.88
0.35,-0.12,0.93
0.38,-0.1,1.01
0.42,-0.09,1.1
0.45,-0.08,1.19
0.48,-0.07,1.25
0.6,-0.03,1.38
0.72,0.05,1.48
0.76,0.11,1.42
0.47,0.03,1.25
0.02,-0.05,1.11
0.02,-0.02,0.98
0.2,-0.01,0.84
0.3,-0.04,0.85
0.32,-0.05,0.91
0.32,-0.03,0.93
0.33,-0.02,0.9
0.37,0,0.85
0.46,-0.01,0.84
0.47,-0.01,0.86
0.45,-0.02,0.9
0.44,-0.03,0.94
0.45,-0.03,0.98
0.43,-0.02,0.99
0.38,-0.02,0.99
0.35,-0.02,0.96
0.33,-0.02,0.94
0.34,-0.02,0.94
0.34,-0.02,0.95
0.35,-0.02,0.95
0.36,-0.02,0.94
0.36,-0.02,0.94
0.37,-0.02,0.94
0.37,-0.03,0.94
0.36,-0.03,0.94
0.37,-0.03,0.94
0.37,-0.03,0.94
0.38,-0.03,0.93
0.38,-0.03,0.93
0.38,-0.03,0.94
0.38,-0.03,0.94
0.38,-0.03,0.93
0.39,-0.02,0.93
0.38,-0.02,0.93
0.37,-0.01,0.94
0.37,-0.01,0.93
0.36,-0.01,0.93
0.36,-0.01,0.94
0.36,-0.01,0.94
0.36,-0.01,0.94
0.37,-0.01,0.94
0.37,-0.02,0.94
0.37,-0.02,0.94
0.37,-0.02,0.94
0.37,-0.03,0.94
0.37,-0.03,0.94
0.37,-0.03,0.94
0.37,-0.03,0.94
0.37,-0.03,0.94
0.37,-0.03,0.94
0.37,-0.03,0.93
0.38,-0.02,0.93
0.38,-0.02,0.93
0.38,-0.02,0.93
0.38,-0.01,0.93
0.37,-0.01,0.94
0.37,-0.01,0.94
0.37,-0.01,0.94
0.37,-0.01,0.94
0.37,-0.01,0.94
0.37,-0.01,0.94
0.37,-0.01,0.93
0.37,-0.01,0.94
0.37,-0.02,0.94
0.37,-0.02,0.94
0.37,-0.02,0.94
0.37,-0.02,0.94
0.37,-0.02,0.94
0.37,-0.03,0.94
0.37,-0.03,0.93
0.38,-0.03,0.94
0.38,-0.02,0.94
0.37,-0.02,0.94
0.36,-0.02,0.94
0.35,-0.02,0.94
0.36,-0.01,0.95
0.36,-0.01,0.95
0.37,-0.01,0.95
0.37,-0.02,0.95
0.37,-0.02,0.94
0.37,-0.02,0.94
0.36,-0.02,0.94
0.37,-0.02,0.94
0.37,-0.02,0.95
0.38,-0.02,0.96
0.39,-0.02,0.97
0.41,-0.02,0.97
0.4,-0.03,0.97
0.4,-0.03,0.97
0.41,-0.04,0.96
0.41,-0.04,0.95
0.41,-0.05,0.96
0.42,-0.05,0.98
0.41,-0.04,0.98
0.39,-0.05,0.98
0.38,-0.05,0.98
0.37,-0.06,0.99
0.37,-0.06,1.01
0.38,-0.07,1
0.39,-0.08,0.99
0.4,-0.09,0.97
0.39,-0.1,0.96
0.39,-0.09,0.96
0.4,-0.1,0.95
0.4,-0.11,0.95
0.4,-0.11,0.95
0.4,-0.1,0.95
0.38,-0.1,0.96
0.38,-0.1,0.97
0.38,-0.09,0.98
0.38,-0.09,0.98
0.38,-0.1,0.98
0.39,-0.1,0.98
0.4,-0.09,0.99
0.4,-0.09,0.99
0.41,-0.1,0.98
0.41,-0.1,0.98
0.42,-0.1,0.99
0.41,-0.11,0.98
0.39,-0.12,0.98
0.37,-0.13,0.96
0.35,-0.14,0.95
0.34,-0.15,0.94
0.35,-0.16,0.93
0.35,-0.17,0.9
0.33,-0.18,0.87
0.31,-0.18,0.86
0.3,-0.18,0.87
0.31,-0.19,0.87
0.33,-0.2,0.88
0.33,-0.22,0.87
0.33,-0.23,0.86
0.33,-0.24,0.85
0.32,-0.25,0.83
0.31,-0.25,0.82
0.31,-0.26,0.8
0.31,-0.27,0.78
0.3,-0.28,0.75
0.29,-0.29,0.73
0.29,-0.3,0.71
0.29,-0.3,0.7
0.29,-0.3,0.7
0.3,-0.3,0.7
0.32,-0.3,0.71
0.32,-0.3,0.72
0.32,-0.3,0.73
0.31,-0.29,0.73
0.3,-0.28,0.73
0.31,-0.27,0.72
0.31,-0.27,0.71
0.32,-0.26,0.71
0.33,-0.25,0.71
0.34,-0.23,0.72
0.33,-0.21,0.75
0.33,-0.19,0.79
0.32,-0.18,0.84
0.31,-0.17,0.87
0.31,-0.16,0.88
0.31,-0.15,0.88
0.31,-0.14,0.87
0.31,-0.12,0.86
0.34,-0.08,0.89
0.37,-0.04,0.92
0.4,0.01,1.05
0.4,0,1.06
0.43,0.02,1.11
0.43,0.07,1.3
0.49,0.1,1.7
1.2,0.35,2.14
0.93,0.34,1.72
-0.1,-0.01,1.06
-0.16,-0.06,0.93
0.01,0.01,0.86
0.25,0.01,0.82
0.42,-0.03,0.83
0.44,-0.02,0.93
0.42,0.02,1
0.44,0.03,0.99
0.44,0.03,0.97
0.42,0.03,0.96
0.4,0.02,0.93
0.37,0.01,0.93
0.35,0.01,0.93
0.35,-0.01,0.94
0.36,-0.02,0.94
0.36,-0.04,0.93
0.37,-0.05,0.92
0.36,-0.06,0.9
0.36,-0.07,0.88
0.37,-0.08,0.85
0.37,-0.08,0.84
0.37,-0.08,0.84
0.37,-0.08,0.84
0.38,-0.08,0.85
0.39,-0.08,0.84
0.39,-0.08,0.85
0.39,-0.07,0.85
0.39,-0.07,0.86
0.39,-0.06,0.86
0.39,-0.05,0.87
0.4,-0.05,0.88
0.4,-0.04,0.9
0.4,-0.04,0.92
0.4,-0.03,0.94
0.41,-0.03,0.95
0.41,-0.03,0.95
0.42,-0.03,0.95
0.41,-0.03,0.95
0.41,-0.03,0.96
0.41,-0.03,0.97
0.4,-0.04,0.98
0.4,-0.04,0.99
0.4,-0.05,0.99
0.4,-0.05,0.98
0.39,-0.05,0.98
0.39,-0.04,0.97
0.4,-0.04,0.96
0.4,-0.04,0.96
0.4,-0.04,0.95
0.4,-0.04,0.93
0.4,-0.04,0.93
0.4,-0.04,0.93
0.4,-0.04,0.92
0.4,-0.04,0.91
0.4,-0.04,0.9
0.4,-0.04,0.89
0.4,-0.04,0.89
0.4,-0.04,0.89
0.41,-0.04,0.9
0.41,-0.04,0.9
0.41,-0.04,0.92
0.4,-0.04,0.93
0.41,-0.04,0.93
0.41,-0.04,0.93
0.41,-0.04,0.92
0.42,-0.04,0.92
0.41,-0.04,0.93
0.41,-0.04,0.93
0.41,-0.04,0.93
0.41,-0.04,0.93
0.4,-0.04,0.94
0.4,-0.03,0.95
0.4,-0.03,0.94
0.39,-0.03,0.94
0.39,-0.03,0.93
0.39,-0.03,0.92
0.39,-0.03,0.93
0.4,-0.03,0.94
0.41,-0.03,0.94
0.41,-0.03,0.95
0.41,-0.03,0.95
0.4,-0.03,0.96
0.39,-0.03,0.97
0.38,-0.03,0.98
0.38,-0.03,0.98
0.37,-0.03,0.99
0.38,-0.03,1.01
0.4,-0.03,1.02
0.41,-0.03,1.03
0.41,-0.03,1.04
0.41,-0.03,1.05
0.41,-0.04,1.05
0.4,-0.05,1.05
0.4,-0.06,1.04
0.4,-0.06,1.03
0.4,-0.07,1.03
0.4,-0.08,1.03
0.4,-0.08,1.03
0.4,-0.09,1.02
0.4,-0.1,1.01
0.39,-0.11,1
0.38,-0.11,0.99
0.37,-0.13,0.97
0.38,-0.13,0.96
0.38,-0.13,0.95
0.38,-0.14,0.94
0.37,-0.14,0.94
0.37,-0.15,0.93
0.36,-0.17,0.92
0.37,-0.18,0.92
0.37,-0.19,0.91
0.37,-0.21,0.9
0.36,-0.22,0.89
0.37,-0.23,0.87
0.37,-0.24,0.85
0.37,-0.25,0.83
0.37,-0.26,0.8
0.36,-0.28,0.78
0.36,-0.29,0.77
0.36,-0.3,0.77
0.35,-0.3,0.77
0.34,-0.3,0.77
0.34,-0.31,0.76
0.34,-0.31,0.72
0.34,-0.32,0.69
0.33,-0.31,0.67
0.32,-0.31,0.65
0.32,-0.31,0.63
0.32,-0.31,0.62
0.32,-0.3,0.61
0.32,-0.29,0.6
0.31,-0.28,0.61
0.31,-0.27,0.63
0.3,-0.26,0.65
0.3,-0.25,0.65
0.28,-0.24,0.65
0.27,-0.24,0.63
0.25,-0.22,0.62
0.25,-0.21,0.65
0.24,-0.21,0.7
0.21,-0.21,0.74
0.22,-0.18,0.77
0.25,-0.15,0.79
0.3,-0.11,0.8
0.35,-0.07,0.79
0.38,-0.04,0.79
0.42,-0.02,0.82
0.43,0.02,0.89
0.41,0.07,1.06
0.86,0.3,2.41
0.87,0.13,2.82
0.51,0.23,1.75
-0.36,-0.2,1.02
-0.11,-0.13,0.69
0.06,-0.09,0.48
0.15,-0.12,0.44
0.28,-0.12,0.53
0.39,-0.06,0.65
0.44,-0.04,0.76
0.46,-0.01,0.85
0.51,0.03,0.91
0.54,0.04,0.98
0.5,0.03,1.08
0.42,-0.01,1.16
0.32,-0.04,1.16
0.27,-0.04,1.06
0.27,-0.04,0.94
0.29,-0.04,0.84
0.32,-0.03,0.84
0.36,-0.02,0.89
0.39,-0.01,0.93
0.41,0,0.96
0.39,0,0.97
0.36,0,0.98
0.34,-0.01,0.97
0.32,-0.01,0.95
0.33,-0.02,0.95
0.35,-0.02,0.94
0.36,-0.02,0.94
0.36,-0.03,0.94
0.36,-0.03,0.93
0.36,-0.03,0.94
0.37,-0.03,0.95
0.37,-0.03,0.96
0.36,-0.02,0.96
0.35,-0.02,0.95
0.35,-0.02,0.94
0.35,-0.02,0.94
0.35,-0.01,0.94
0.35,-0.01,0.94
0.35,-0.01,0.94
0.35,-0.01,0.94
0.35,-0.01,0.94
0.35,-0.01,0.94
0.36,-0.01,0.94
0.36,-0.01,0.94
0.37,-0.01,0.94
0.37,-0.02,0.94
0.36,-0.02,0.94
0.36,-0.02,0.94
0.36,-0.02,0.94
0.36,-0.02,0.94
0.36,-0.02,0.94
0.36,-0.02,0.94
0.36,-0.02,0.94
0.36,-0.02,0.94
0.36,-0.02,0.94
0.36,-0.02,0.94
0.35,-0.02,0.95
0.35,-0.02,0.94
0.36,-0.02,0.94
0.36,-0.02,0.94
0.36,-0.02,0.94
0.36,-0.02,0.94
0.36,-0.02,0.94
0.36,-0.02,0.94
0.36,-0.02,0.94
0.36,-0.02,0.95
0.36,-0.02,0.95
0.36,-0.02,0.94
0.36,-0.02,0.94
0.36,-0.02,0.94
0.36,-0.02,0.94
0.36,-0.02,0.94
0.36,-0.02,0.94
0.36,-0.02,0.95
0.35,-0.02,0.94
0.35,-0.02,0.94
0.35,-0.02,0.94
0.36,-0.02,0.94
0.37,-0.02,0.94
0.37,-0.02,0.94
0.36,-0.02,0.94
0.36,-0.02,0.94
0.36,-0.02,0.94
0.36,-0.02,0.94
0.36,-0.02,0.94
0.36,-0.02,0.94
0.36,-0.01,0.94
0.36,-0.02,0.94
0.36,-0.02,0.94
0.35,-0.02,0.94
0.36,-0.02,0.95
0.36,-0.02,0.94
0.36,-0.02,0.94
0.36,-0.02,0.94
0.36,-0.02,0.94
0.36,-0.02,0.94
0.36,-0.02,0.94
0.37,-0.02,0.94
0.36,-0.03,0.94
0.36,-0.02,0.94
0.36,-0.02,0.94
0.37,-0.02,0.94
0.36,-0.02,0.94
0.36,-0.02,0.94
0.36,-0.02,0.94
0.36,-0.02,0.94
0.35,-0.02,0.95
0.36,-0.02,0.94
0.36,-0.02,0.95
0.36,-0.02,0.95
0.36,-0.02,0.94
0.36,-0.02,0.94
0.37,-0.02,0.94
0.37,-0.02,0.94
0.37,-0.02,0.94
0.37,-0.02,0.94
0.36,-0.02,0.94
0.36,-0.02,0.94
0.35,-0.02,0.94
0.35,-0.02,0.94
0.36,-0.02,0.94
0.36,-0.02,0.94
0.36,-0.02,0.94
0.36,-0.02,0.94
0.36,-0.02,0.94
0.36,-0.02,0.94
0.36,-0.02,0.94
0.36,-0.02,0.94
0.36,-0.02,0.94
0.36,-0.02,0.94
0.36,-0.02,0.94
0.36,-0.02,0.94
0.36,-0.02,0.94
0.36,-0.02,0.94
0.36,-0.02,0.94
0.36,-0.02,0.94
0.36,-0.02,0.94
0.36,-0.01,0.94
0.36,-0.02,0.94
0.36,-0.02,0.94
0.36,-0.02,0.94
0.36,-0.02,0.94
0.37,-0.02,0.94
0.37,-0.02,0.94
0.37,-0.02,0.95
0.36,-0.02,0.94
0.35,-0.02,0.94
0.35,-0.02,0.94
0.36,-0.02,0.95
0.36,-0.02,0.94
0.36,-0.02,0.94
0.37,-0.02,0.94
0.37,-0.02,0.94
0.37,-0.02,0.94
0.37,-0.02,0.94
0.37,-0.02,0.94
0.37,-0.02,0.94
0.36,-0.02,0.94
0.36,-0.02,0.94
0.35,-0.02,0.94
0.35,-0.02,0.95
0.35,-0.02,0.94
0.36,-0.02,0.94
0.37,-0.02,0.94
0.37,-0.02,0.93
0.36,-0.02,0.92
0.38,-0.02,0.94
0.38,-0.02,0.96
0.37,-0.02,0.96
0.35,-0.01,0.98
0.34,-0.01,0.98
0.36,-0.01,0.97
0.37,-0.01,0.97
0.37,-0.01,0.98
0.37,-0.02,0.99
0.37,-0.03,1.01
0.38,-0.02,1.04
0.39,-0.01,1.06
0.38,0.01,1.08
0.38,0.01,1.1
0.4,0,1.09
0.38,-0.01,1.08
0.37,-0.01,1.11
0.36,-0.01,1.12
0.37,-0.01,1.11
0.38,-0.03,1.11
0.38,-0.05,1.1
0.37,-0.06,1.07
0.37,-0.07,1.04
0.37,-0.08,1.01
0.37,-0.1,0.99
0.37,-0.12,0.98
0.37,-0.13,0.97
0.4,-0.14,0.96
0.42,-0.15,0.95
0.44,-0.16,0.95
0.44,-0.17,0.95
0.44,-0.18,0.92
0.43,-0.19,0.88
0.42,-0.2,0.85
0.4,-0.22,0.84
0.4,-0.24,0.84
0.42,-0.24,0.84
0.43,-0.25,0.83
0.43,-0.27,0.81
0.41,-0.29,0.79
0.4,-0.3,0.75
0.37,-0.32,0.72
0.36,-0.32,0.7
0.34,-0.33,0.69
0.34,-0.34,0.67
0.33,-0.34,0.66
0.33,-0.35,0.65
0.34,-0.35,0.64
0.34,-0.35,0.63
0.33,-0.35,0.62
0.32,-0.35,0.62
0.32,-0.35,0.6
0.31,-0.35,0.6
0.31,-0.34,0.6
0.3,-0.33,0.6
0.29,-0.33,0.62
0.28,-0.32,0.64
0.28,-0.31,0.65
0.28,-0.29,0.65
0.29,-0.28,0.64
0.29,-0.28,0.63
0.28,-0.27,0.61
0.27,-0.26,0.6
0.26,-0.25,0.59
0.26,-0.24,0.62
0.3,-0.2,0.68
0.33,-0.16,0.81
0.36,-0.1,0.88
0.37,-0.08,0.93
0.38,-0.06,0.96
0.38,-0.04,0.98
0.35,-0.03,0.93
0.32,-0.01,0.95
0.34,-0.01,1.07
0.63,0.08,1.43
0.72,0.04,2.53
1.2,0.39,2.89
0.7,0.29,1.78
-0.39,-0.28,1.05
-0.2,-0.12,0.75
0.09,0,0.5
0.23,-0.07,0.5
0.29,-0.12,0.54
0.4,-0.05,0.63
0.51,0,0.74
0.67,0.07,0.83
0.73,0.11,0.94
0.53,0.05,1.14
0.3,-0.01,1.28
0.23,-0.01,1.2
0.28,0,1.03
0.28,-0.01,0.89
0.28,0,0.84
0.42,0.02,0.87
0.42,0.01,0.92
0.39,0.01,0.97
0.36,0,0.99
0.34,0,0.99
0.35,0.01,0.98
0.37,0.01,0.96
0.38,0,0.94
0.39,-0.01,0.94
0.38,-0.02,0.95
0.37,-0.02,0.95
0.37,-0.02,0.95
0.37,-0.02,0.95
0.38,-0.01,0.95
0.4,-0.01,0.95
0.41,-0.02,0.94
0.41,-0.02,0.95
0.4,-0.02,0.95
0.38,-0.02,0.95
0.37,-0.02,0.95
0.37,-0.02,0.95
0.38,-0.03,0.95
0.38,-0.02,0.94
0.37,-0.02,0.94
0.36,-0.02,0.95
0.36,-0.02,0.96
0.4,-0.02,0.98
0.39,-0.02,0.99
0.39,-0.02,0.99
0.38,-0.03,0.99
0.38,-0.03,0.98
0.37,-0.04,0.97
0.37,-0.04,0.97
0.38,-0.05,0.97
0.38,-0.05,0.97
0.39,-0.05,0.97
0.4,-0.06,0.97
0.4,-0.06,0.98
0.39,-0.07,0.99
0.39,-0.07,1
0.4,-0.07,1
0.4,-0.08,1
0.4,-0.08,0.99
0.4,-0.08,0.99
0.4,-0.09,0.99
0.4,-0.1,0.99
0.42,-0.1,0.99
0.43,-0.1,1
0.44,-0.11,0.99
0.44,-0.11,0.99
0.44,-0.12,0.98
0.43,-0.13,0.96
0.43,-0.16,0.95
0.43,-0.17,0.95
0.43,-0.18,0.94
0.43,-0.19,0.94
0.43,-0.2,0.93
0.42,-0.21,0.92
0.42,-0.22,0.91
0.42,-0.22,0.9
0.41,-0.23,0.88
0.4,-0.24,0.87
0.4,-0.25,0.86
0.41,-0.26,0.86
0.4,-0.27,0.86
0.4,-0.28,0.86
0.39,-0.29,0.85
0.38,-0.29,0.85
0.38,-0.29,0.84
0.38,-0.3,0.83
0.38,-0.31,0.82
0.38,-0.31,0.81
0.38,-0.33,0.81
0.38,-0.34,0.8
0.37,-0.35,0.8
0.36,-0.36,0.79
0.35,-0.36,0.79
0.36,-0.37,0.78
0.36,-0.37,0.78
0.35,-0.38,0.78
0.35,-0.38,0.78
0.35,-0.39,0.77
0.36,-0.4,0.75
0.35,-0.4,0.74
0.34,-0.4,0.73
0.34,-0.4,0.72
0.33,-0.4,0.71
0.32,-0.4,0.72
0.31,-0.4,0.73
0.31,-0.4,0.72
0.31,-0.4,0.73
0.32,-0.4,0.73
0.32,-0.39,0.73
0.31,-0.39,0.73
0.3,-0.38,0.74
0.3,-0.37,0.77
0.3,-0.36,0.8
0.3,-0.35,0.83
0.3,-0.35,0.84
0.3,-0.35,0.83
0.3,-0.35,0.82
0.3,-0.35,0.81
0.31,-0.34,0.79
0.32,-0.34,0.78
0.34,-0.33,0.75
0.36,-0.33,0.71
0.37,-0.33,0.68
0.36,-0.33,0.68
0.36,-0.34,0.68
0.36,-0.34,0.67
0.36,-0.34,0.67
0.37,-0.32,0.67
0.38,-0.31,0.67
0.38,-0.28,0.68
0.39,-0.26,0.72
0.41,-0.23,0.79
0.43,-0.2,0.85
0.43,-0.18,0.89
0.43,-0.16,0.91
0.43,-0.15,0.9
0.42,-0.14,0.89
0.41,-0.12,0.88
0.4,-0.12,0.88
0.39,-0.12,0.9
0.38,-0.09,0.98
0.4,-0.08,1.12
0.49,-0.12,1.29
0.83,0.05,1.93
1.61,0.15,2.59
0.99,0.17,1.39
-0.36,-0.25,1.01
-0.03,-0.09,0.71
0.19,-0.05,0.65
0.35,-0.09,0.63
0.43,-0.1,0.62
0.5,-0.05,0.7
0.53,-0.02,0.78
0.57,0.04,0.82
0.63,0.07,0.87
0.52,0.01,0.98
0.22,-0.01,1.23
0.15,0.02,1.29
0.3,-0.02,1.09
0.29,-0.04,0.94
0.25,-0.04,0.87
0.31,-0.02,0.85
0.41,0,0.87
0.46,-0.01,0.92
0.44,-0.01,0.95
0.39,-0.02,0.97
0.36,-0.01,0.97
0.34,-0.02,0.97
0.33,-0.02,0.96
0.33,-0.03,0.94
0.35,-0.04,0.93
0.36,-0.04,0.94
0.36,-0.05,0.95
0.36,-0.05,0.95
0.37,-0.04,0.94
0.38,-0.04,0.94
0.38,-0.04,0.94
0.38,-0.03,0.94
0.37,-0.03,0.93
0.36,-0.03,0.93
0.36,-0.02,0.94
0.35,-0.02,0.94
0.34,-0.01,0.94
0.35,-0.01,0.94
0.36,-0.01,0.94
0.36,-0.01,0.94
0.37,-0.01,0.94
0.37,-0.02,0.94
0.36,-0.02,0.94
0.36,-0.03,0.94
0.36,-0.03,0.94
0.36,-0.03,0.94
0.36,-0.03,0.95
0.36,-0.03,0.95
0.36,-0.03,0.94
0.36,-0.03,0.94
0.36,-0.03,0.94
0.36,-0.03,0.94
0.37,-0.03,0.93
0.36,-0.03,0.93
0.36,-0.03,0.94
0.36,-0.02,0.95
0.35,-0.02,0.95
0.35,-0.02,0.95
0.35,-0.02,0.95
0.35,-0.02,0.95
0.36,-0.01,0.94
0.36,-0.02,0.94
0.37,-0.02,0.93
0.37,-0.02,0.93
0.37,-0.02,0.94
0.37,-0.03,0.95
0.37,-0.02,0.95
0.36,-0.02,0.95
0.35,-0.02,0.95
0.35,-0.03,0.94
0.35,-0.02,0.94
0.36,-0.02,0.94
0.36,-0.02,0.94
0.36,-0.03,0.94
0.36,-0.03,0.94
0.36,-0.03,0.94
0.36,-0.03,0.94
0.37,-0.03,0.94
0.36,-0.03,0.94
0.36,-0.03,0.94
0.37,-0.03,0.94
0.37,-0.02,0.94
0.38,-0.02,0.94
0.37,-0.02,0.94
0.37,-0.02,0.94
0.36,-0.02,0.94
0.35,-0.02,0.94
0.36,-0.02,0.95
0.36,-0.02,0.94
0.36,-0.02,0.94
0.37,-0.02,0.94
0.37,-0.03,0.94
0.37,-0.03,0.94
0.37,-0.03,0.94
0.37,-0.03,0.94
0.36,-0.03,0.94
0.36,-0.03,0.94
0.36,-0.03,0.94
0.37,-0.03,0.94
0.36,-0.03,0.94
0.36,-0.03,0.94
0.36,-0.03,0.94
0.36,-0.03,0.94
0.36,-0.02,0.94
0.36,-0.02,0.94
0.37,-0.02,0.94
0.37,-0.02,0.94
0.37,-0.02,0.94
0.37,-0.02,0.94
0.36,-0.02,0.94
0.36,-0.02,0.94
0.36,-0.02,0.94
0.36,-0.02,0.94
0.36,-0.02,0.94
0.36,-0.03,0.94
0.36,-0.03,0.94
0.37,-0.03,0.94
0.37,-0.03,0.94
0.37,-0.03,0.94
0.37,-0.03,0.94
0.36,-0.03,0.94
0.36,-0.03,0.94
0.36,-0.03,0.94
0.36,-0.03,0.94
0.36,-0.03,0.94
0.36,-0.03,0.94
0.36,-0.03,0.94
0.36,-0.03,0.94
0.37,-0.03,0.94
0.37,-0.02,0.94
0.37,-0.02,0.94
0.36,-0.02,0.93
0.36,-0.02,0.93
0.37,-0.02,0.94
0.37,-0.02,0.94
0.37,-0.02,0.94
0.37,-0.03,0.94
0.36,-0.03,0.94
0.36,-0.03,0.94
0.36,-0.03,0.94
0.37,-0.03,0.94
0.37,-0.03,0.94
0.37,-0.03,0.94
0.37,-0.03,0.94
0.36,-0.02,0.94
0.36,-0.03,0.94
0.36,-0.03,0.94
0.36,-0.03,0.94
0.36,-0.03,0.94
0.37,-0.03,0.94
0.37,-0.03,0.94
0.37,-0.02,0.94
0.37,-0.02,0.94
0.37,-0.02,0.94
0.37,-0.02,0.94
0.37,-0.02,0.94
0.36,-0.02,0.94
0.36,-0.02,0.94
0.36,-0.02,0.94
0.37,-0.03,0.94
0.36,-0.03,0.94
0.36,-0.03,0.94
0.37,-0.03,0.94
0.37,-0.03,0.94
0.37,-0.03,0.94
0.37,-0.03,0.94
0.37,-0.02,0.94
0.36,-0.02,0.94
0.37,-0.02,0.94
0.37,-0.02,0.94
0.36,-0.03,0.94
0.36,-0.03,0.94
0.36,-0.03,0.94
0.37,-0.03,0.94
0.37,-0.03,0.94
0.36,-0.03,0.94
0.36,-0.03,0.94
0.36,-0.02,0.94
0.36,-0.02,0.94
0.37,-0.02,0.94
0.37,-0.02,0.94
0.37,-0.02,0.93
0.37,-0.02,0.94
0.36,-0.02,0.95
0.36,-0.02,0.95
0.37,-0.02,0.94
0.37,-0.02,0.94
0.37,-0.02,0.94
0.37,-0.02,0.95
0.37,-0.02,0.95
0.35,-0.03,0.96
0.34,-0.02,0.95
0.33,-0.02,0.94
0.34,-0.01,0.95
0.38,-0.01,0.98
0.4,-0.01,1
0.4,-0.01,1.02
0.39,-0.01,1.04
0.37,-0.01,1.07
0.37,-0.01,1.08
0.38,-0.01,1.08
0.4,0,1.1
0.42,0,1.11
0.44,-0.01,1.12
0.44,-0.02,1.12
0.41,-0.04,1.1
0.38,-0.05,1.1
0.36,-0.06,1.1
0.35,-0.11,1.08
0.37,-0.13,1.06
0.38,-0.14,1.04
0.37,-0.15,1.02
0.36,-0.15,1
0.38,-0.16,0.97
0.39,-0.18,0.94
0.4,-0.18,0.9
0.4,-0.19,0.88
0.41,-0.2,0.87
0.41,-0.21,0.86
0.4,-0.22,0.83
0.39,-0.23,0.82
0.38,-0.24,0.82
0.38,-0.25,0.82
0.37,-0.26,0.81
0.36,-0.27,0.81
0.34,-0.28,0.79
0.33,-0.28,0.76
0.32,-0.29,0.73
0.31,-0.3,0.71
0.3,-0.3,0.69
0.29,-0.3,0.68
0.3,-0.3,0.68
0.3,-0.3,0.67
0.3,-0.3,0.65
0.3,-0.3,0.63
0.3,-0.3,0.64
0.29,-0.29,0.66
0.28,-0.29,0.67
0.28,-0.28,0.67
0.3,-0.28,0.68
0.31,-0.27,0.69
0.32,-0.27,0.7
0.32,-0.26,0.71
0.33,-0.25,0.72
0.34,-0.24,0.72
0.35,-0.23,0.72
0.35,-0.22,0.72
0.35,-0.22,0.72
0.35,-0.21,0.71
0.36,-0.2,0.71
0.38,-0.18,0.71
0.4,-0.17,0.71
0.42,-0.15,0.73
0.44,-0.13,0.78
0.45,-0.1,0.86
0.46,-0.06,0.95
0.47,-0.01,1.04
0.45,0.03,1.11
0.44,-0.02,1.16
0.45,-0.07,1.22
0.6,0.06,2.17
1.13,0.28,2.59
0.64,0.1,1.9
-0.11,-0.11,1.22
-0.15,-0.13,0.94
0.05,-0.07,0.64
0.23,-0.07,0.57
0.35,-0.11,0.66
0.41,-0.1,0.75
0.41,-0.05,0.82
0.41,-0.03,0.84
0.46,0,0.84
0.52,0.01,0.86
0.54,0,0.89
0.49,-0.02,0.97
0.43,0,1.07
0.42,0.01,1.13
0.38,0,1.07
0.26,-0.02,1
0.24,-0.01,0.94
0.32,-0.01,0.87
0.38,-0.02,0.85
0.4,-0.03,0.89
0.41,-0.02,0.92
0.4,-0.01,0.96
0.4,-0.01,0.97
0.39,-0.02,0.96
0.34,-0.03,0.95
0.34,-0.03,0.94
0.36,-0.03,0.93
0.37,-0.04,0.93
0.39,-0.03,0.93
0.4,-0.03,0.94
0.4,-0.03,0.94
0.39,-0.03,0.93
0.38,-0.03,0.93
0.38,-0.02,0.94
0.37,-0.02,0.94
0.37,-0.02,0.94
0.36,-0.02,0.94
0.36,-0.01,0.94
0.37,-0.01,0.94
0.37,-0.02,0.94
0.37,-0.02,0.94
0.37,-0.02,0.93
0.38,-0.02,0.93
0.38,-0.02,0.93
0.38,-0.02,0.94
0.38,-0.03,0.94
0.38,-0.03,0.95
0.37,-0.03,0.96
0.36,-0.03,0.98
0.35,-0.02,0.99
0.36,-0.02,0.98
0.37,-0.02,0.97
0.38,-0.01,0.97
0.39,-0.01,1.01
0.42,0.01,1.07
0.43,0.02,1.13
0.43,0.03,1.17
0.46,0.03,1.15
0.47,0.02,1.12
0.43,0,1.11
0.39,-0.02,1.1
0.38,-0.04,1.11
0.39,-0.06,1.1
0.39,-0.09,1.09
0.39,-0.11,1.1
0.38,-0.12,1.11
0.36,-0.13,1.12
0.34,-0.14,1.1
0.33,-0.14,1.05
0.33,-0.16,1
0.35,-0.18,0.95
0.37,-0.19,0.9
0.39,-0.2,0.85
0.41,-0.21,0.81
0.41,-0.22,0.77
0.41,-0.23,0.74
0.4,-0.24,0.74
0.4,-0.25,0.73
0.39,-0.25,0.71
0.38,-0.26,0.7
0.37,-0.27,0.67
0.36,-0.28,0.65
0.35,-0.28,0.63
0.35,-0.29,0.6
0.35,-0.29,0.57
0.34,-0.3,0.56
0.34,-0.3,0.56
0.32,-0.29,0.57
0.31,-0.29,0.59
0.31,-0.28,0.61
0.31,-0.28,0.63
0.31,-0.28,0.64
0.3,-0.28,0.66
0.29,-0.27,0.68
0.28,-0.25,0.7
0.29,-0.24,0.71
0.31,-0.22,0.72
0.34,-0.21,0.72
0.35,-0.2,0.72
0.36,-0.19,0.73
0.36,-0.17,0.76
0.35,-0.16,0.84
0.35,-0.14,0.86
0.34,-0.14,0.87
0.34,-0.13,0.87
0.35,-0.09,0.9
0.38,-0.06,0.97
0.43,-0.07,1.09
0.47,-0.08,1.29
0.55,-0.09,1.51
0.63,-0.14,2.01
1.23,0.23,2.43
0.9,0.38,1.92
-0.22,-0.09,1.29
-0.26,-0.18,1.01
0.08,-0.04,0.7
0.29,-0.04,0.6
0.31,-0.11,0.66
0.31,-0.11,0.73
0.33,-0.06,0.81
0.33,-0.04,0.85
0.34,-0.03,0.85
0.38,-0.01,0.84
0.46,0.01,0.92
0.52,0,1.04
0.59,0,1.09
0.59,-0.01,1.06
0.46,-0.04,0.98
0.29,-0.04,0.92
0.32,-0.03,0.89
0.33,-0.03,0.9
0.32,-0.02,0.92
0.34,-0.01,0.94
0.36,0,0.95
0.38,0,0.96
0.38,-0.01,0.96
0.37,-0.02,0.96
0.35,-0.02,0.96
0.34,-0.03,0.96
0.34,-0.03,0.95
0.35,-0.04,0.94
0.36,-0.04,0.93
0.37,-0.04,0.93
0.38,-0.04,0.94
0.39,-0.03,0.94
0.38,-0.03,0.95
0.37,-0.02,0.95
0.35,-0.02,0.94
0.34,-0.03,0.94
0.34,-0.03,0.94
0.35,-0.02,0.95
0.35,-0.02,0.97
0.35,-0.02,0.99
0.36,-0.01,1.01
0.37,0,1.01
0.37,0,1
0.35,-0.01,1
0.36,-0.01,1
0.39,-0.01,1
0.41,-0.02,1.01
0.43,-0.03,1.02
0.43,-0.04,1.05
0.4,-0.05,1.06
0.38,-0.06,1.06
0.38,-0.06,1.06
0.37,-0.08,1.05
0.36,-0.09,1.05
0.37,-0.1,1.05
0.37,-0.11,1.03
0.37,-0.12,1.02
0.37,-0.12,0.99
0.38,-0.13,0.99
0.38,-0.13,1
0.39,-0.12,1
0.38,-0.12,0.99
0.38,-0.12,0.98
0.39,-0.13,0.97
0.4,-0.14,0.97
0.41,-0.14,0.97
0.41,-0.15,0.96
0.42,-0.17,0.94
0.42,-0.18,0.92
0.42,-0.19,0.89
0.41,-0.2,0.86
0.4,-0.21,0.84
0.4,-0.22,0.82
0.39,-0.22,0.8
0.38,-0.23,0.78
0.38,-0.23,0.78
0.37,-0.24,0.77
0.36,-0.24,0.76
0.34,-0.24,0.75
0.34,-0.25,0.74
0.35,-0.25,0.72
0.35,-0.25,0.71
0.34,-0.25,0.7
0.33,-0.26,0.69
0.33,-0.26,0.68
0.33,-0.26,0.68
0.32,-0.26,0.69
0.31,-0.27,0.7
0.31,-0.27,0.72
0.3,-0.26,0.73
0.31,-0.26,0.74
0.31,-0.25,0.76
0.31,-0.25,0.77
0.32,-0.23,0.8
0.32,-0.23,0.81
0.32,-0.22,0.83
0.33,-0.22,0.84
0.34,-0.21,0.86
0.35,-0.21,0.87
0.36,-0.21,0.87
0.37,-0.21,0.88
0.38,-0.2,0.89
0.38,-0.2,0.92
0.38,-0.19,0.95
0.38,-0.19,0.98
0.37,-0.2,0.99
0.37,-0.2,0.99
0.37,-0.2,0.97
0.38,-0.2,0.95
0.38,-0.19,0.94
0.38,-0.19,0.94
0.38,-0.18,0.94
0.38,-0.17,0.95
0.39,-0.16,0.96
0.41,-0.15,0.98
0.42,-0.13,1
0.41,-0.11,1.02
0.41,-0.11,1.02
0.42,-0.12,1.04
0.43,-0.1,1.03
0.43,-0.1,1.03
0.43,-0.1,1.03
0.43,-0.1,1.03
0.42,-0.09,1.04
0.41,-0.08,1.05
0.41,-0.07,1.05
0.41,-0.06,1.03
0.41,-0.05,1.01
0.4,-0.05,0.99
0.4,-0.05,0.98
0.4,-0.05,0.96
0.4,-0.05,0.95
0.39,-0.05,0.94
0.38,-0.05,0.93
0.37,-0.05,0.92
0.37,-0.05,0.91
0.37,-0.05,0.91
0.37,-0.05,0.91
0.38,-0.04,0.9
0.38,-0.04,0.9
0.38,-0.04,0.91
0.39,-0.04,0.91
0.39,-0.05,0.92
0.39,-0.05,0.93
0.39,-0.05,0.94
0.38,-0.05,0.95
0.39,-0.05,0.95
0.39,-0.06,0.95
0.39,-0.05,0.95
0.39,-0.05,0.95
0.38,-0.05,0.95
0.39,-0.05,0.95
0.4,-0.04,0.95
0.4,-0.04,0.95
0.4,-0.04,0.95
0.4,-0.05,0.95
0.39,-0.05,0.94
0.39,-0.05,0.93
0.39,-0.05,0.92
0.38,-0.05,0.92
0.38,-0.05,0.91
0.38,-0.05,0.92
0.39,-0.04,0.92
0.4,-0.04,0.93
0.41,-0.03,0.93
0.41,-0.04,0.93
0.41,-0.04,0.93
0.39,-0.04,0.93
0.39,-0.04,0.93
0.39,-0.04,0.93
0.38,-0.04,0.93
0.38,-0.04,0.94
0.37,-0.04,0.94
0.38,-0.04,0.94
0.38,-0.03,0.94
0.38,-0.04,0.93
0.39,-0.04,0.93
0.38,-0.04,0.93
0.38,-0.05,0.93
0.38,-0.05,0.93
0.38,-0.05,0.93
0.38,-0.04,0.94
0.39,-0.04,0.94
0.39,-0.04,0.93
0.39,-0.04,0.93
0.39,-0.04,0.93
0.39,-0.03,0.93
0.38,-0.04,0.93
0.37,-0.03,0.93
0.37,-0.03,0.94
0.37,-0.03,0.94
0.37,-0.03,0.94
0.37,-0.03,0.94
0.38,-0.04,0.94
0.39,-0.04,0.93
0.39,-0.04,0.93
0.4,-0.04,0.93
0.39,-0.05,0.92
0.38,-0.05,0.93
0.38,-0.05,0.93
0.38,-0.04,0.94
0.39,-0.04,0.94
0.39,-0.04,0.94
0.39,-0.04,0.93
0.39,-0.04,0.93
0.38,-0.04,0.93
0.38,-0.04,0.93
0.37,-0.04,0.94
0.37,-0.04,0.94
0.37,-0.04,0.94
0.38,-0.04,0.94
0.38,-0.04,0.93
0.39,-0.04,0.92
0.39,-0.04,0.92
0.4,-0.04,0.93
0.4,-0.04,0.93
0.4,-0.04,0.93
0.39,-0.04,0.93
0.38,-0.04,0.93
0.38,-0.04,0.93
0.38,-0.03,0.94
0.38,-0.03,0.93
0.38,-0.03,0.93
0.38,-0.03,0.93
0.37,-0.03,0.94
0.37,-0.03,0.95
0.37,-0.03,0.94
0.37,-0.04,0.94
0.37,-0.04,0.93
0.38,-0.04,0.93
0.39,-0.04,0.93
0.39,-0.04,0.93
0.39,-0.04,0.93
0.39,-0.03,0.93
0.39,-0.04,0.93
0.38,-0.04,0.93
0.38,-0.04,0.93
0.37,-0.03,0.94
0.37,-0.03,0.94
0.38,-0.03,0.93
0.39,-0.03,0.93
0.4,-0.03,0.93
0.39,-0.03,0.93
0.39,-0.04,0.93
0.39,-0.04,0.93
0.38,-0.04,0.93
0.38,-0.04,0.94
0.37,-0.04,0.94
0.38,-0.04,0.94
0.38,-0.03,0.94
0.39,-0.04,0.93
0.39,-0.03,0.93
0.38,-0.03,0.93
0.38,-0.03,0.93
0.38,-0.03,0.93
0.38,-0.03,0.93
0.38,-0.04,0.93
0.38,-0.03,0.94
0.38,-0.03,0.94
0.38,-0.03,0.94
0.38,-0.03,0.94
0.38,-0.03,0.93
0.38,-0.03,0.93
0.38,-0.03,0.93
0.38,-0.03,0.93
0.38,-0.03,0.93
0.38,-0.03,0.93
0.38,-0.03,0.93
0.38,-0.03,0.94
0.38,-0.03,0.94
0.38,-0.03,0.94
0.38,-0.03,0.94
0.38,-0.03,0.94
0.38,-0.03,0.94
0.38,-0.03,0.93
0.38,-0.03,0.93
0.38,-0.03,0.93
0.38,-0.03,0.93
0.38,-0.03,0.93
0.38,-0.03,0.93
0.37,-0.03,0.93
0.38,-0.03,0.94
0.38,-0.03,0.94
0.38,-0.03,0.94
0.38,-0.03,0.94
0.38,-0.03,0.94
0.38,-0.03,0.93
0.38,-0.03,0.93
0.38,-0.03,0.93
0.38,-0.03,0.93
0.37,-0.03,0.93
0.37,-0.03,0.93
0.38,-0.03,0.94
0.38,-0.03,0.94
0.38,-0.03,0.94
0.38,-0.03,0.94
0.38,-0.03,0.94
0.38,-0.03,0.93
0.38,-0.04,0.93
0.38,-0.03,0.93
0.38,-0.03,0.94
0.38,-0.03,0.95
0.37,-0.02,0.95
0.37,-0.02,0.94
0.37,-0.03,0.94
0.37,-0.03,0.94
0.37,-0.03,0.94
0.38,-0.03,0.94
0.38,-0.03,0.95
0.38,-0.03,0.96
0.39,-0.03,0.96
0.39,-0.03,0.98
0.39,-0.02,0.99
0.4,-0.02,1.01
0.4,-0.02,1.03
0.39,-0.01,1.04
0.39,0,1.05
0.41,0,1.06
0.42,-0.01,1.07
0.4,-0.03,1.09
0.39,-0.03,1.11
0.4,-0.03,1.13
0.41,-0.04,1.13
0.4,-0.05,1.12
0.39,-0.07,1.1
0.39,-0.08,1.08
0.4,-0.09,1.04
0.4,-0.1,0.99
0.39,-0.13,0.98
0.4,-0.15,0.96
0.41,-0.16,0.94
0.41,-0.16,0.92
0.41,-0.17,0.9
0.4,-0.19,0.87
0.4,-0.2,0.84
0.41,-0.21,0.82
0.42,-0.22,0.8
0.41,-0.23,0.77
0.4,-0.24,0.75
0.39,-0.24,0.73
0.38,-0.25,0.71
0.37,-0.26,0.7
0.36,-0.27,0.69
0.35,-0.27,0.67
0.34,-0.28,0.66
0.33,-0.29,0.64
0.32,-0.29,0.63
0.3,-0.29,0.62
0.3,-0.29,0.62
0.29,-0.29,0.62
0.29,-0.28,0.64
0.29,-0.28,0.65
0.28,-0.27,0.66
0.28,-0.26,0.67
0.29,-0.25,0.66
0.3,-0.24,0.66
0.3,-0.23,0.66
0.29,-0.22,0.65
0.28,-0.21,0.65
0.28,-0.2,0.65
0.28,-0.18,0.66
0.3,-0.16,0.69
0.31,-0.13,0.76
0.33,-0.1,0.85
0.37,-0.04,0.94
0.39,0.01,1.01
0.4,-0.01,1.13
0.47,-0.01,1.33
0.36,-0.07,2.19
1.68,0.32,3.2
1.43,0.42,2.23
-0.44,-0.15,1.11
-0.39,-0.18,0.92
-0.05,0,0.56
0.19,-0.06,0.52
0.3,-0.12,0.6
0.37,-0.07,0.74
0.39,-0.03,0.83
0.4,-0.02,0.84
0.42,0,0.89
0.49,0.04,0.94
0.44,0.05,1.09
0.39,0.04,1.21
0.39,0.01,1.16
0.35,0,1.11
0.32,0,1.02
0.33,-0.01,0.96
0.34,-0.01,0.97
0.35,-0.01,1
0.35,-0.01,1.03
0.37,-0.01,1.06
0.37,-0.01,1.08
0.36,-0.02,1.09
0.35,-0.03,1.08
0.34,-0.04,1.08
0.33,-0.05,1.07
0.33,-0.06,1.07
0.33,-0.07,1.06
0.34,-0.08,1.06
0.36,-0.08,1.04
0.39,-0.09,1.03
0.39,-0.09,1.03
0.38,-0.1,1.02
0.37,-0.11,1
0.37,-0.13,0.99
0.37,-0.14,0.97
0.37,-0.16,0.96
0.37,-0.17,0.95
0.36,-0.18,0.94
0.37,-0.2,0.92
0.37,-0.21,0.9
0.37,-0.21,0.88
0.37,-0.22,0.87
0.37,-0.23,0.86
0.36,-0.24,0.84
0.35,-0.25,0.81
0.35,-0.26,0.79
0.34,-0.27,0.78
0.33,-0.28,0.78
0.32,-0.28,0.77
0.32,-0.28,0.76
0.32,-0.29,0.75
0.32,-0.29,0.74
0.32,-0.29,0.72
0.31,-0.29,0.69
0.31,-0.3,0.67
0.3,-0.3,0.64
0.3,-0.31,0.63
0.3,-0.31,0.62
0.3,-0.31,0.62
0.3,-0.31,0.63
0.3,-0.3,0.68
0.3,-0.27,0.7
0.3,-0.26,0.7
0.31,-0.25,0.71
0.31,-0.24,0.71
0.32,-0.23,0.71
0.32,-0.23,0.72
0.34,-0.22,0.72
0.35,-0.22,0.72
0.35,-0.21,0.73
0.35,-0.2,0.73
0.35,-0.19,0.73
0.34,-0.18,0.73
0.36,-0.16,0.74
0.39,-0.13,0.8
0.38,-0.1,0.88
0.37,-0.08,0.94
0.37,-0.05,1.01
0.35,-0.04,1.06
0.35,-0.06,1.13
0.38,-0.08,1.24
0.42,-0.06,1.58
0.48,-0.08,2.16
0.95,0.29,2.38
0.48,0.27,1.74
-0.35,-0.22,1.16
-0.14,-0.16,0.69
0.25,-0.08,0.71
0.35,-0.13,0.83
0.39,-0.08,0.95
0.37,-0.04,1.02
0.36,-0.01,1.04
0.36,0.01,1.04
0.34,0.01,1.04
0.32,0.01,1.05
0.29,0,1.05
0.3,-0.02,1.05
0.33,-0.02,1.05
0.36,-0.03,1.07
0.39,-0.04,1.09
0.39,-0.06,1.1
0.39,-0.08,1.09
0.38,-0.09,1.07
0.36,-0.11,1.05
0.36,-0.13,1.02
0.36,-0.14,1.01
0.38,-0.16,0.99
0.38,-0.17,0.98
0.38,-0.18,0.96
0.38,-0.18,0.96
0.38,-0.19,0.94
0.38,-0.19,0.93
0.38,-0.2,0.89
0.37,-0.22,0.88
0.36,-0.23,0.87
0.36,-0.23,0.85
0.35,-0.24,0.84
0.35,-0.25,0.83
0.34,-0.25,0.82
0.34,-0.26,0.8
0.33,-0.26,0.77
0.32,-0.27,0.75
0.32,-0.27,0.74
0.32,-0.27,0.73
0.31,-0.27,0.72
0.31,-0.28,0.71
0.31,-0.28,0.7
0.3,-0.28,0.71
0.29,-0.28,0.72
0.29,-0.28,0.72
0.29,-0.28,0.71
0.3,-0.28,0.71
0.29,-0.27,0.71
0.29,-0.27,0.71
0.3,-0.27,0.72
0.31,-0.26,0.74
0.32,-0.26,0.76
0.33,-0.26,0.79
0.34,-0.25,0.8
0.35,-0.24,0.83
0.35,-0.24,0.84
0.35,-0.24,0.85
0.36,-0.24,0.86
0.37,-0.24,0.86
0.36,-0.25,0.88
0.36,-0.25,0.9
0.35,-0.25,0.91
0.34,-0.26,0.92
0.34,-0.26,0.92
0.34,-0.25,0.9
0.34,-0.25,0.88
0.34,-0.24,0.87
0.35,-0.23,0.88
0.35,-0.23,0.89
0.35,-0.23,0.91
0.35,-0.22,0.93
0.34,-0.21,0.95
0.34,-0.2,0.97
0.34,-0.19,0.97
0.34,-0.18,0.96
0.35,-0.17,0.94
0.36,-0.16,0.93
0.39,-0.15,0.94
0.41,-0.14,0.97
0.42,-0.14,1.01
0.43,-0.12,1.07
0.44,-0.11,1.1
0.45,-0.11,1.11
0.46,-0.1,1.1
0.46,-0.09,1.09
0.46,-0.08,1.07
0.46,-0.08,1.05
0.46,-0.08,1.04
0.46,-0.07,1.03
0.46,-0.07,1.02
0.44,-0.07,1
0.43,-0.07,0.98
0.41,-0.07,0.96
0.39,-0.07,0.94
0.38,-0.07,0.92
0.38,-0.06,0.91
0.37,-0.06,0.91
0.36,-0.06,0.89
0.36,-0.07,0.89
0.37,-0.06,0.89
0.38,-0.06,0.9
0.38,-0.06,0.91
0.38,-0.06,0.92
0.38,-0.06,0.92
0.39,-0.05,0.93
0.39,-0.05,0.93
0.4,-0.06,0.95
0.4,-0.06,0.95
0.39,-0.06,0.95
0.39,-0.06,0.95
0.39,-0.06,0.95
0.39,-0.06,0.95
0.39,-0.06,0.94
0.39,-0.05,0.94
0.39,-0.05,0.94
0.39,-0.06,0.93
0.38,-0.06,0.93
0.38,-0.06,0.93
0.37,-0.06,0.93
0.37,-0.06,0.93
0.37,-0.06,0.93
0.36,-0.06,0.93
0.36,-0.06,0.93
0.36,-0.05,0.93
0.37,-0.05,0.93
0.39,-0.05,0.93
0.4,-0.05,0.93
0.4,-0.05,0.93
0.4,-0.05,0.93
0.39,-0.05,0.93
0.39,-0.05,0.93
0.38,-0.05,0.93
0.37,-0.04,0.94
0.37,-0.04,0.94
0.38,-0.04,0.93
0.38,-0.05,0.94
0.39,-0.04,0.94
0.39,-0.05,0.93
0.39,-0.05,0.94
0.38,-0.05,0.94
0.38,-0.05,0.94
0.38,-0.05,0.94
0.38,-0.05,0.95
0.38,-0.05,0.95
0.39,-0.05,0.95
0.39,-0.05,0.96
0.39,-0.04,0.97
0.4,-0.04,0.98
0.4,-0.03,1
0.4,-0.02,1.03
0.41,0,1.07
0.44,0.01,1.09
0.43,0,1.1
0.4,-0.01,1.11
0.39,-0.03,1.11
0.39,-0.04,1.1
0.41,-0.05,1.09
0.42,-0.06,1.09
0.42,-0.1,1.06
0.41,-0.11,1.04
0.4,-0.12,1.03
0.39,-0.12,1.01
0.38,-0.13,1
0.37,-0.15,0.98
0.38,-0.17,0.95
0.38,-0.18,0.92
0.38,-0.2,0.89
0.38,-0.21,0.86
0.38,-0.22,0.84
0.37,-0.24,0.82
0.36,-0.25,0.8
0.36,-0.26,0.77
0.35,-0.26,0.76
0.34,-0.27,0.73
0.33,-0.27,0.71
0.31,-0.27,0.7
0.3,-0.27,0.69
0.3,-0.28,0.69
0.29,-0.28,0.68
0.29,-0.27,0.66
0.29,-0.27,0.64
0.29,-0.26,0.63
0.28,-0.25,0.63
0.27,-0.25,0.64
0.27,-0.23,0.65
0.28,-0.22,0.65
0.29,-0.22,0.64
0.29,-0.21,0.63
0.29,-0.2,0.63
0.3,-0.2,0.62
0.3,-0.19,0.61
0.32,-0.17,0.6
0.33,-0.15,0.61
0.31,-0.14,0.64
0.29,-0.12,0.66
0.31,-0.08,0.68
0.35,-0.03,0.76
0.36,-0.03,0.94
0.32,0.04,1.6
0.87,0.08,2.94
1.94,0.6,3.03
0.96,0.49,1.5
-0.54,-0.34,0.81
-0.39,-0.21,0.76
0.03,0.07,0.51
0.27,-0.04,0.43
0.32,-0.14,0.48
0.4,-0.05,0.61
0.45,0.03,0.71
0.63,0.05,0.81
0.66,-0.02,1.32
0.37,-0.01,1.34
0.36,-0.01,1.11
0.24,-0.05,0.94
0.25,-0.03,0.84
0.32,0,0.83
0.39,0,0.86
0.4,0,0.92
0.38,0.01,0.97
0.37,0.01,0.99
0.35,0,0.98
0.35,0,0.96
0.37,0.01,0.94
0.37,0,0.94
0.37,-0.01,0.93
0.35,-0.01,0.94
0.35,-0.01,0.95
0.35,-0.01,0.95
0.36,-0.02,0.95
0.36,-0.02,0.94
0.37,-0.02,0.94
0.38,-0.01,0.95
0.38,-0.01,0.96
0.37,-0.01,0.97
0.34,-0.01,0.99
0.32,0,1.01
0.32,0,0.99
0.35,0.01,0.99
0.37,0.01,1
0.39,0.01,1.02
0.41,0.01,1.04
0.41,0.02,1.07
0.4,0.02,1.08
0.39,0.02,1.09
0.39,0.03,1.12
0.38,0.02,1.13
0.37,0,1.14
0.39,0,1.15
0.39,-0.03,1.14
0.38,-0.05,1.13
0.36,-0.06,1.13
0.37,-0.07,1.12
0.38,-0.09,1.1
0.37,-0.11,1.09
0.37,-0.12,1.06
0.38,-0.13,1.03
0.4,-0.15,0.99
0.41,-0.17,0.96
0.41,-0.19,0.93
0.4,-0.19,0.91
0.4,-0.21,0.89
0.39,-0.22,0.88
0.39,-0.22,0.86
0.4,-0.23,0.85
0.39,-0.24,0.83
0.39,-0.25,0.81
0.38,-0.26,0.79
0.39,-0.27,0.78
0.39,-0.27,0.76
0.38,-0.28,0.75
0.37,-0.29,0.75
0.36,-0.3,0.75
0.35,-0.31,0.74
0.34,-0.31,0.74
0.33,-0.31,0.73
0.33,-0.32,0.73
0.33,-0.32,0.74
0.33,-0.33,0.73
0.33,-0.33,0.72
0.33,-0.34,0.71
0.32,-0.35,0.71
0.31,-0.35,0.69
0.31,-0.35,0.67
0.3,-0.36,0.65
0.3,-0.36,0.63
0.31,-0.36,0.64
0.3,-0.36,0.64
0.3,-0.36,0.66
0.3,-0.35,0.69
0.3,-0.34,0.69
0.31,-0.33,0.69
0.32,-0.32,0.69
0.32,-0.32,0.68
0.31,-0.31,0.68
0.31,-0.3,0.66
0.31,-0.3,0.65
0.31,-0.29,0.65
0.31,-0.29,0.66
0.32,-0.28,0.67
0.33,-0.27,0.68
0.33,-0.24,0.69
0.34,-0.22,0.7
0.35,-0.2,0.71
0.36,-0.18,0.72
0.36,-0.16,0.74
0.35,-0.14,0.76
0.36,-0.11,0.81
0.38,-0.08,0.88
0.41,-0.04,0.95
0.45,0.02,1
0.45,0.06,1.05
0.46,0.01,1.16
0.48,-0.06,1.4
0.06,-0.3,2.03
1.29,0.16,2.31
-0.14,-0.08,0.89
-0.59,-0.25,0.85
-0.16,-0.1,0.82
0.13,0.01,0.65
0.37,-0.08,0.58
0.42,-0.14,0.65
0.39,-0.06,0.78
0.36,-0.01,0.82
0.4,0.01,0.84
0.44,0.02,0.98
0.57,0.06,1.12
0.6,0.08,1.18
0.36,0.03,1.15
0.2,0,1.03
0.19,-0.01,0.92
0.22,0,0.86
0.29,-0.01,0.86
0.37,-0.01,0.9
0.43,0.01,0.95
0.46,0.01,0.98
0.44,0.01,0.96
0.39,0,0.94
0.35,-0.01,0.92
0.34,-0.01,0.92
0.35,-0.02,0.94
0.36,-0.02,0.98
0.35,-0.03,0.98
0.34,-0.04,0.97
0.36,-0.04,0.96
0.38,-0.04,0.96
0.39,-0.05,0.96
0.41,-0.04,0.97
0.41,-0.04,0.97
0.41,-0.05,0.96
0.39,-0.07,0.95
0.37,-0.1,0.96
0.39,-0.11,0.96
0.39,-0.12,0.94
0.38,-0.1,0.94
0.39,-0.08,0.94
0.41,-0.08,0.93
0.43,-0.07,0.93
0.42,-0.07,0.93
0.4,-0.07,0.95
0.37,-0.09,0.95
0.34,-0.11,0.94
0.32,-0.09,0.91
0.31,-0.07,0.89
0.3,-0.08,0.87
0.3,-0.07,0.86
0.31,-0.06,0.87
0.31,-0.05,0.9
0.33,-0.03,0.91
0.33,-0.02,0.91
0.32,-0.01,0.9
0.34,-0.01,0.89
0.36,-0.01,0.89
0.39,0.01,0.88
0.41,0.02,0.88
0.4,0.02,0.9
0.4,0.04,0.91
0.39,0.05,0.93
0.38,0.04,0.93
0.37,0.06,0.94
0.37,0.09,0.99
0.36,0.1,1.03
0.39,0.08,1.03
0.45,0.08,1
0.45,0.06,0.96
0.47,0.05,0.94
0.48,0.05,0.94
0.43,0.04,0.92
0.42,0.06,0.93
0.42,0.05,0.94
0.42,0.07,0.93
0.42,0.1,0.91
0.4,0.08,0.9
0.41,0.08,0.92
0.4,0.09,0.92
0.4,0.12,0.9
0.38,0.12,0.89
0.38,0.13,0.89
0.39,0.14,0.89
0.41,0.14,0.9
0.43,0.14,0.92
0.45,0.13,0.93
0.47,0.12,0.94
0.45,0.11,0.92
0.42,0.12,0.89
0.41,0.12,0.9
0.41,0.11,0.93
0.41,0.1,0.93
0.42,0.09,0.92
0.42,0.09,0.9
0.41,0.09,0.89
0.4,0.09,0.9
0.39,0.1,0.93
0.4,0.11,0.93
0.42,0.1,0.91
0.44,0.1,0.89
0.45,0.09,0.88
0.46,0.1,0.88
0.45,0.11,0.89
0.44,0.11,0.9
0.41,0.1,0.9
0.42,0.11,0.9
0.43,0.1,0.91
0.42,0.1,0.9
0.43,0.11,0.9
0.44,0.13,0.89
0.43,0.13,0.88
0.44,0.14,0.89
0.45,0.15,0.91
0.46,0.15,0.89
0.47,0.15,0.88
0.47,0.15,0.89
0.46,0.17,0.88
0.44,0.17,0.89
0.43,0.14,0.9
0.44,0.15,0.91
0.45,0.15,0.92
0.45,0.15,0.92
0.44,0.14,0.91
0.43,0.13,0.9
0.41,0.13,0.9
0.39,0.13,0.9
0.38,0.14,0.9
0.39,0.13,0.91
0.4,0.14,0.91
0.43,0.14,0.9
0.5,0.14,0.89
0.5,0.15,0.88
0.47,0.15,0.88
0.45,0.14,0.89
0.45,0.14,0.89
0.45,0.15,0.89
0.44,0.15,0.89
0.43,0.15,0.89
0.43,0.15,0.9
0.42,0.15,0.9
0.42,0.15,0.9
0.42,0.15,0.9
0.43,0.14,0.9
0.43,0.14,0.9
0.43,0.14,0.9
0.43,0.14,0.9
0.44,0.14,0.9
0.45,0.14,0.89
0.45,0.14,0.89
0.44,0.14,0.89
0.44,0.14,0.9
0.43,0.14,0.9
0.43,0.14,0.9
0.43,0.14,0.9
0.43,0.14,0.9
0.44,0.14,0.9
0.45,0.15,0.89
0.45,0.14,0.89
0.44,0.14,0.89
0.43,0.14,0.9
0.43,0.13,0.9
0.42,0.13,0.9
0.43,0.13,0.91
0.42,0.13,0.9
0.43,0.13,0.9
0.43,0.13,0.91
0.43,0.13,0.9
0.44,0.13,0.9
0.44,0.13,0.9
0.43,0.13,0.9
0.43,0.14,0.9
0.43,0.14,0.9
0.42,0.14,0.9
0.42,0.14,0.9
0.42,0.14,0.9
0.42,0.14,0.9
0.43,0.14,0.9
0.43,0.14,0.9
0.43,0.14,0.9
0.44,0.14,0.89
0.44,0.14,0.9
0.44,0.13,0.9
0.44,0.14,0.9
0.43,0.14,0.9
0.44,0.14,0.9
0.44,0.14,0.9
0.44,0.14,0.9
0.43,0.14,0.9
0.43,0.13,0.9
0.44,0.14,0.9
0.44,0.13,0.9
0.43,0.12,0.9
0.43,0.13,0.9
0.43,0.12,0.91
0.43,0.12,0.91
0.43,0.12,0.9
0.44,0.12,0.89
0.44,0.12,0.9
0.44,0.13,0.9
0.45,0.13,0.89
0.44,0.13,0.9
0.44,0.13,0.9
0.44,0.14,0.9
0.44,0.13,0.9
0.44,0.13,0.9
0.43,0.14,0.9
0.43,0.13,0.9
0.44,0.13,0.89
0.44,0.13,0.89
0.44,0.12,0.9
0.44,0.12,0.9
0.44,0.12,0.9
0.44,0.12,0.9
0.44,0.12,0.9
0.44,0.11,0.9
0.43,0.11,0.9
0.43,0.11,0.91
0.42,0.1,0.91
0.43,0.1,0.91
0.43,0.1,0.91
0.43,0.11,0.9
0.43,0.11,0.9
0.43,0.11,0.9
0.43,0.1,0.9
0.43,0.1,0.9
0.44,0.11,0.9
0.44,0.11,0.9
0.44,0.11,0.9
0.44,0.11,0.89
0.44,0.11,0.89
0.44,0.12,0.9
0.43,0.11,0.9
0.44,0.11,0.9
0.43,0.11,0.9
0.43,0.11,0.9
0.43,0.11,0.91
0.43,0.11,0.91
0.43,0.1,0.9
0.43,0.1,0.9
0.43,0.1,0.9
0.44,0.09,0.9
0.44,0.1,0.9
0.44,0.1,0.9
0.44,0.09,0.91
0.43,0.09,0.91
0.44,0.08,0.9
0.44,0.09,0.91
0.43,0.1,0.91
0.43,0.09,0.91
0.43,0.09,0.91
0.44,0.09,0.91
0.44,0.1,0.91
0.44,0.1,0.91
0.44,0.09,0.91
0.43,0.09,0.91
0.43,0.09,0.91
0.43,0.09,0.91
0.43,0.09,0.91
0.43,0.09,0.91
0.43,0.09,0.91
0.43,0.09,0.91
0.43,0.09,0.91
0.43,0.08,0.91
0.43,0.09,0.91
0.43,0.09,0.91
0.43,0.09,0.9
0.42,0.09,0.9
0.42,0.09,0.91
0.42,0.09,0.91
0.43,0.09,0.91
0.43,0.09,0.91
0.43,0.09,0.91
0.43,0.09,0.91
0.43,0.09,0.91
0.43,0.09,0.91
0.42,0.09,0.91
0.43,0.08,0.91
0.43,0.08,0.9
0.43,0.09,0.91
0.43,0.09,0.91
0.42,0.09,0.91
0.42,0.09,0.91
0.42,0.09,0.91
0.43,0.09,0.91
0.43,0.09,0.91
0.42,0.09,0.91
0.42,0.09,0.91
0.42,0.09,0.91
0.42,0.09,0.91
0.42,0.09,0.91
0.43,0.09,0.91
0.43,0.09,0.91
0.43,0.09,0.91
0.43,0.09,0.91
0.43,0.09,0.91
0.43,0.09,0.91
0.42,0.09,0.91
0.42,0.09,0.91
0.42,0.09,0.91
0.42,0.09,0.91
