Acc_x,Acc_y,Acc_z
0.42,0.04,0.91
0.42,0.04,0.91
0.43,0.04,0.91
0.43,0.04,0.91
0.43,0.03,0.91
0.43,0.03,0.91
0.42,0.03,0.91
0.42,0.03,0.92
0.43,0.03,0.92
0.43,0.04,0.91
0.43,0.04,0.91
0.43,0.04,0.91
0.42,0.04,0.91
0.42,0.04,0.91
0.43,0.04,0.91
0.43,0.04,0.91
0.43,0.04,0.91
0.42,0.04,0.91
0.43,0.03,0.91
0.43,0.03,0.91
0.42,0.03,0.91
0.42,0.03,0.91
0.42,0.04,0.92
0.42,0.04,0.91
0.42,0.03,0.91
0.42,0.04,0.91
0.43,0.03,0.91
0.43,0.03,0.91
0.43,0.03,0.91
0.43,0.03,0.91
0.42,0.03,0.91
0.42,0.04,0.91
0.43,0.04,0.91
0.43,0.04,0.91
0.42,0.04,0.91
0.43,0.03,0.91
0.43,0.04,0.91
0.42,0.03,0.91
0.43,0.03,0.91
0.43,0.03,0.91
0.43,0.03,0.91
0.43,0.03,0.91
0.44,0.04,0.91
0.44,0.04,0.91
0.43,0.04,0.91
0.43,0.04,0.91
0.42,0.04,0.91
0.42,0.04,0.91
0.42,0.04,0.92
0.42,0.04,0.92
0.41,0.04,0.92
0.41,0.04,0.92
0.41,0.03,0.92
0.41,0.03,0.92
0.42,0.03,0.92
0.42,0.03,0.92
0.42,0.03,0.91
0.42,0.03,0.91
0.42,0.03,0.91
0.42,0.03,0.91
0.42,0.03,0.91
0.42,0.03,0.91
0.42,0.03,0.91
0.42,0.03,0.92
0.42,0.03,0.92
0.43,0.03,0.92
0.42,0.03,0.91
0.42,0.03,0.91
0.43,0.04,0.91
0.43,0.04,0.91
0.42,0.03,0.91
0.42,0.03,0.91
0.42,0.04,0.91
0.43,0.03,0.91
0.42,0.03,0.91
0.42,0.03,0.91
0.43,0.03,0.91
0.43,0.03,0.91
0.43,0.02,0.91
0.43,0.03,0.91
0.43,0.03,0.91
0.43,0.03,0.92
0.43,0.03,0.92
0.43,0.03,0.91
0.43,0.03,0.91
0.43,0.03,0.91
0.43,0.03,0.91
0.43,0.02,0.91
0.43,0.03,0.91
0.43,0.03,0.92
0.43,0.03,0.92
0.43,0.03,0.92
0.42,0.03,0.91
0.42,0.03,0.91
0.43,0.03,0.91
0.43,0.03,0.91
0.43,0.03,0.91
0.43,0.03,0.91
0.43,0.03,0.91
0.43,0.02,0.92
0.43,0.02,0.92
0.42,0.02,0.91
0.43,0.02,0.91
0.43,0.02,0.91
0.43,0.02,0.91
0.43,0.01,0.91
0.44,0.01,0.9
0.44,0.02,0.91
0.44,0.02,0.91
0.43,0.02,0.91
0.43,0.02,0.92
0.43,0.02,0.92
0.42,0.02,0.91
0.42,0.02,0.91
0.43,0.02,0.91
0.43,0.02,0.91
0.44,0.02,0.91
0.45,0.02,0.9
0.45,0.02,0.9
0.45,0.02,0.9
0.44,0.02,0.91
0.43,0.02,0.91
0.43,0.02,0.91
0.43,0.02,0.91
0.43,0.02,0.91
0.43,0.02,0.91
0.44,0.02,0.91
0.43,0.02,0.91
0.42,0.02,0.91
0.42,0.02,0.92
0.42,0.02,0.92
0.42,0.02,0.92
0.42,0.02,0.91
0.43,0.02,0.91
0.42,0.02,0.91
0.42,0.02,0.91
0.42,0.02,0.91
0.41,0.02,0.91
0.41,0.02,0.92
0.39,0.02,0.93
0.41,0.02,0.92
0.42,0.03,0.93
0.39,0.04,0.95
0.37,0.05,0.97
0.39,0.05,0.95
0.38,0.05,0.93
0.35,0.05,0.95
0.39,0.05,0.95
0.5,0.02,0.9
0.46,0.04,0.94
0.36,0.09,0.99
0.43,0.08,0.91
0.48,0.05,0.9
0.53,0.01,0.86
0.55,0.08,0.91
0.55,0.25,0.94
0.47,0.1,0.93
0.34,-0.07,0.96
0.38,0.03,0.99
0.47,0.08,1.02
0.55,0.08,0.99
0.58,0.08,0.96
0.56,0.08,0.95
0.52,0.08,0.95
0.51,0.06,0.96
0.49,0.05,0.97
0.46,0.05,0.98
0.45,0.08,1.03
0.46,0.09,1.09
0.51,0.06,1.11
0.55,0.02,1.09
0.57,0,1.06
0.6,-0.02,1.02
0.62,-0.05,0.99
0.66,-0.09,0.95
0.72,-0.14,0.93
0.81,-0.19,0.91
0.91,-0.21,0.85
1.18,-0.25,0.79
1.23,-0.31,0.71
1.17,-0.33,0.64
1.17,-0.36,0.59
1.19,-0.45,0.57
1.12,-0.53,0.57
1.01,-0.59,0.54
0.96,-0.6,0.48
0.92,-0.63,0.42
0.86,-0.68,0.36
0.81,-0.71,0.33
0.8,-0.74,0.31
0.79,-0.74,0.32
0.75,-0.72,0.34
0.72,-0.69,0.36
0.68,-0.69,0.36
0.62,-0.69,0.33
0.56,-0.68,0.32
0.5,-0.66,0.32
0.43,-0.66,0.34
0.39,-0.66,0.33
0.37,-0.65,0.34
0.32,-0.65,0.38
0.25,-0.67,0.41
0.23,-0.66,0.42
0.25,-0.63,0.4
0.2,-0.63,0.42
0.21,-0.63,0.42
0.22,-0.65,0.42
0.22,-0.66,0.42
0.21,-0.65,0.43
0.17,-0.64,0.47
0.12,-0.64,0.49
0.12,-0.64,0.48
0.15,-0.65,0.48
0.19,-0.66,0.49
0.23,-0.66,0.5
0.26,-0.66,0.52
0.29,-0.67,0.54
0.3,-0.68,0.54
0.31,-0.68,0.53
0.31,-0.7,0.52
0.31,-0.71,0.5
0.3,-0.71,0.47
0.28,-0.74,0.46
0.29,-0.75,0.47
0.31,-0.75,0.47
0.32,-0.77,0.47
0.35,-0.78,0.48
0.4,-0.78,0.47
0.43,-0.77,0.47
0.44,-0.75,0.5
0.45,-0.76,0.5
0.44,-0.79,0.47
0.47,-0.89,0.43
0.52,-1.07,0.41
0.51,-1.14,0.44
0.41,-0.94,0.52
0.31,-0.74,0.56
0.36,-0.67,0.5
0.49,-0.7,0.42
0.55,-0.76,0.37
0.51,-0.81,0.37
0.46,-0.85,0.4
0.42,-0.87,0.42
0.41,-0.86,0.44
0.41,-0.84,0.44
0.43,-0.84,0.43
0.43,-0.83,0.4
0.42,-0.84,0.36
0.41,-0.87,0.34
0.4,-0.88,0.32
0.4,-0.86,0.32
0.39,-0.85,0.32
0.38,-0.87,0.3
0.37,-0.89,0.29
0.36,-0.88,0.27
0.36,-0.88,0.27
0.36,-0.9,0.25
0.37,-0.91,0.24
0.37,-0.91,0.22
0.37,-0.91,0.2
0.37,-0.93,0.19
0.37,-0.92,0.18
0.39,-0.92,0.18
0.41,-0.92,0.21
0.39,-0.91,0.27
0.39,-0.92,0.3
0.37,-0.92,0.32
0.34,-0.92,0.33
0.33,-0.92,0.32
0.33,-0.91,0.31
0.35,-0.89,0.31
0.34,-0.87,0.31
0.32,-0.87,0.31
0.35,-0.89,0.3
0.37,-0.89,0.29
0.39,-0.89,0.29
0.41,-0.89,0.3
0.42,-0.88,0.3
0.43,-0.88,0.29
0.43,-0.88,0.28
0.43,-0.88,0.27
0.43,-0.88,0.26
0.44,-0.88,0.25
0.45,-0.87,0.25
0.45,-0.87,0.25
0.46,-0.86,0.26
0.47,-0.87,0.26
0.48,-0.87,0.28
0.48,-0.87,0.29
0.48,-0.88,0.29
0.47,-0.87,0.3
0.46,-0.87,0.29
0.45,-0.86,0.29
0.43,-0.87,0.29
0.44,-0.88,0.28
0.44,-0.88,0.28
0.44,-0.87,0.28
0.45,-0.87,0.29
0.46,-0.87,0.3
0.46,-0.87,0.31
0.45,-0.87,0.32
0.44,-0.86,0.32
0.44,-0.86,0.32
0.44,-0.86,0.32
0.44,-0.86,0.32
0.45,-0.86,0.32
0.46,-0.86,0.33
0.47,-0.86,0.36
0.47,-0.86,0.36
0.47,-0.86,0.35
0.47,-0.86,0.34
0.46,-0.86,0.33
0.45,-0.86,0.33
0.45,-0.86,0.33
0.45,-0.85,0.32
0.45,-0.85,0.32
0.46,-0.85,0.32
0.46,-0.86,0.32
0.47,-0.86,0.32
0.46,-0.86,0.32
0.45,-0.86,0.32
0.45,-0.86,0.32
0.44,-0.86,0.33
0.44,-0.86,0.33
0.44,-0.86,0.34
0.45,-0.87,0.35
0.45,-0.86,0.35
0.45,-0.85,0.36
0.44,-0.86,0.36
0.44,-0.85,0.37
0.44,-0.85,0.37
0.43,-0.85,0.36
0.43,-0.85,0.36
0.42,-0.86,0.35
0.42,-0.85,0.35
0.42,-0.85,0.34
0.42,-0.85,0.34
0.42,-0.85,0.34
0.42,-0.86,0.33
0.41,-0.86,0.33
0.42,-0.86,0.34
0.42,-0.86,0.34
0.42,-0.87,0.34
0.42,-0.87,0.35
0.42,-0.86,0.36
0.42,-0.85,0.36
0.42,-0.86,0.36
0.42,-0.86,0.35
0.42,-0.86,0.35
0.42,-0.86,0.34
0.42,-0.86,0.34
0.42,-0.85,0.34
0.43,-0.85,0.34
0.44,-0.86,0.34
0.44,-0.86,0.34
0.44,-0.86,0.34
0.44,-0.86,0.34
0.44,-0.86,0.34
0.45,-0.86,0.34
0.45,-0.86,0.33
0.45,-0.86,0.31
0.44,-0.86,0.31
0.45,-0.86,0.31
0.44,-0.87,0.32
0.43,-0.86,0.34
0.42,-0.86,0.35
0.41,-0.85,0.36
0.4,-0.85,0.37
0.41,-0.85,0.39
0.41,-0.85,0.41
0.4,-0.85,0.41
0.41,-0.85,0.4
0.42,-0.85,0.39
0.42,-0.85,0.38
0.42,-0.86,0.38
0.43,-0.86,0.37
0.44,-0.86,0.36
0.45,-0.86,0.34
0.45,-0.86,0.34
0.44,-0.86,0.33
0.43,-0.86,0.33
0.43,-0.86,0.33
0.42,-0.86,0.35
0.41,-0.86,0.36
0.41,-0.86,0.36
0.42,-0.86,0.37
0.42,-0.86,0.37
0.42,-0.86,0.36
0.42,-0.85,0.36
0.42,-0.85,0.36
0.42,-0.85,0.36
0.42,-0.85,0.36
0.41,-0.86,0.35
0.41,-0.86,0.35
0.42,-0.86,0.35
0.42,-0.86,0.35
0.42,-0.86,0.35
0.42,-0.86,0.35
0.42,-0.86,0.35
0.43,-0.86,0.35
0.43,-0.86,0.35
0.43,-0.86,0.35
0.43,-0.86,0.34
0.42,-0.86,0.34
0.42,-0.86,0.34
0.41,-0.86,0.34
0.41,-0.86,0.34
0.41,-0.86,0.35
0.41,-0.86,0.35
0.41,-0.86,0.37
0.41,-0.86,0.38
0.41,-0.86,0.38
0.41,-0.86,0.37
0.4,-0.86,0.36
0.41,-0.86,0.35
0.41,-0.86,0.35
0.41,-0.86,0.34
0.41,-0.86,0.33
0.42,-0.87,0.34
0.41,-0.86,0.34
0.42,-0.86,0.35
0.42,-0.86,0.35
0.42,-0.86,0.36
0.42,-0.86,0.36
0.42,-0.86,0.36
0.41,-0.86,0.36
0.41,-0.86,0.36
0.41,-0.86,0.36
0.42,-0.86,0.36
0.42,-0.86,0.35
0.42,-0.86,0.34
0.42,-0.86,0.34
0.42,-0.87,0.34
0.41,-0.87,0.34
0.41,-0.87,0.34
0.41,-0.87,0.34
0.4,-0.87,0.34
0.4,-0.87,0.34
0.41,-0.87,0.34
0.41,-0.86,0.34
0.41,-0.86,0.34
0.42,-0.87,0.34
0.42,-0.87,0.34
0.42,-0.87,0.35
0.41,-0.86,0.36
0.41,-0.86,0.36
0.41,-0.86,0.36
0.41,-0.86,0.35
0.41,-0.86,0.35
0.41,-0.86,0.35
0.41,-0.86,0.35
0.41,-0.86,0.35
0.41,-0.87,0.35
0.41,-0.87,0.35
0.41,-0.87,0.35
0.41,-0.87,0.34
0.41,-0.87,0.34
0.41,-0.86,0.34
0.41,-0.87,0.34
0.41,-0.87,0.35
0.41,-0.87,0.35
0.41,-0.87,0.35
0.41,-0.87,0.35
0.4,-0.87,0.35
0.4,-0.87,0.34
0.39,-0.86,0.35
0.38,-0.87,0.34
0.38,-0.87,0.33
0.38,-0.87,0.33
0.39,-0.87,0.33
0.4,-0.87,0.33
0.41,-0.87,0.33
0.42,-0.87,0.34
0.43,-0.87,0.34
0.45,-0.87,0.34
0.46,-0.87,0.34
0.47,-0.87,0.33
0.46,-0.87,0.32
0.45,-0.86,0.32
0.44,-0.87,0.32
0.43,-0.87,0.32
0.42,-0.87,0.32
0.41,-0.87,0.32
0.4,-0.87,0.33
0.4,-0.87,0.33
0.4,-0.87,0.33
0.4,-0.87,0.33
0.41,-0.87,0.34
0.42,-0.87,0.34
0.43,-0.87,0.33
0.43,-0.87,0.33
0.43,-0.87,0.33
0.43,-0.87,0.33
0.42,-0.87,0.33
0.42,-0.87,0.32
0.41,-0.87,0.33
0.42,-0.87,0.33
0.42,-0.87,0.33
0.42,-0.87,0.33
0.42,-0.87,0.33
0.42,-0.87,0.33
0.42,-0.87,0.32
0.42,-0.87,0.32
0.41,-0.87,0.32
0.41,-0.87,0.32
0.41,-0.87,0.32
0.41,-0.87,0.33
0.41,-0.87,0.33
0.42,-0.87,0.33
0.42,-0.87,0.33
0.43,-0.87,0.33
0.43,-0.87,0.33
0.42,-0.87,0.34
0.42,-0.87,0.33
0.43,-0.87,0.32
0.42,-0.87,0.32
0.42,-0.87,0.33
0.41,-0.87,0.32
0.42,-0.87,0.32
0.41,-0.87,0.33
0.41,-0.87,0.33
0.42,-0.87,0.33
0.42,-0.87,0.33
0.42,-0.87,0.33
0.42,-0.87,0.34
0.42,-0.87,0.34
0.42,-0.87,0.34
0.42,-0.87,0.33
0.41,-0.87,0.33
0.41,-0.87,0.33
0.41,-0.87,0.32
0.42,-0.87,0.32
0.42,-0.87,0.32
0.42,-0.87,0.32
0.42,-0.87,0.32
0.42,-0.87,0.32
0.42,-0.87,0.33
0.42,-0.87,0.33
0.41,-0.87,0.34
0.41,-0.87,0.34
0.41,-0.87,0.34
0.41,-0.87,0.33
0.42,-0.87,0.34
0.42,-0.87,0.34
0.43,-0.87,0.33
0.43,-0.87,0.32
0.42,-0.87,0.32
0.41,-0.87,0.32
0.4,-0.87,0.32
0.4,-0.87,0.33
0.41,-0.87,0.34
0.42,-0.87,0.34
0.43,-0.87,0.35
0.43,-0.87,0.36
0.42,-0.87,0.36
0.41,-0.87,0.35
0.41,-0.86,0.34
0.41,-0.86,0.35
0.4,-0.87,0.36
0.4,-0.87,0.36
0.41,-0.87,0.37
0.42,-0.87,0.37
0.42,-0.87,0.36
0.42,-0.87,0.34
0.41,-0.87,0.33
0.41,-0.87,0.32
0.41,-0.87,0.32
0.41,-0.87,0.33
0.41,-0.87,0.33
0.4,-0.87,0.33
0.4,-0.87,0.33
0.39,-0.87,0.34
0.39,-0.87,0.34
0.39,-0.87,0.34
0.4,-0.87,0.34
0.4,-0.87,0.34
0.41,-0.87,0.34
0.41,-0.87,0.33
0.42,-0.87,0.33
0.41,-0.87,0.33
0.41,-0.88,0.33
0.41,-0.87,0.33
0.4,-0.87,0.33
0.4,-0.88,0.33
0.4,-0.88,0.33
0.4,-0.87,0.33
0.39,-0.87,0.33
0.39,-0.87,0.33
0.39,-0.87,0.33
0.4,-0.87,0.33
0.41,-0.87,0.33
0.4,-0.87,0.33
0.4,-0.87,0.33
0.4,-0.87,0.33
0.4,-0.88,0.32
0.4,-0.88,0.32
0.4,-0.88,0.32
0.4,-0.88,0.33
0.39,-0.88,0.33
0.38,-0.88,0.33
0.38,-0.88,0.34
0.39,-0.88,0.34
0.4,-0.87,0.34
0.4,-0.87,0.35
0.4,-0.87,0.35
0.4,-0.87,0.35
0.4,-0.87,0.36
0.4,-0.87,0.36
0.4,-0.87,0.36
0.4,-0.87,0.37
0.41,-0.87,0.37
0.4,-0.87,0.38
0.4,-0.86,0.38
0.4,-0.86,0.39
0.4,-0.86,0.4
0.41,-0.87,0.4
0.42,-0.86,0.4
0.42,-0.86,0.39
0.42,-0.86,0.37
0.44,-0.87,0.35
0.44,-0.87,0.31
0.43,-0.87,0.31
0.43,-0.87,0.29
0.43,-0.87,0.28
0.42,-0.88,0.29
0.41,-0.88,0.3
0.39,-0.88,0.31
0.4,-0.87,0.32
0.4,-0.88,0.31
0.39,-0.88,0.32
0.39,-0.87,0.32
0.4,-0.87,0.32
0.42,-0.88,0.31
0.43,-0.88,0.3
0.43,-0.88,0.29
0.44,-0.88,0.29
0.44,-0.88,0.28
0.44,-0.88,0.28
0.43,-0.88,0.27
0.43,-0.88,0.27
0.43,-0.89,0.26
0.43,-0.88,0.26
0.43,-0.89,0.26
0.42,-0.89,0.26
0.42,-0.89,0.26
0.42,-0.89,0.26
0.42,-0.89,0.27
0.42,-0.88,0.29
0.42,-0.88,0.29
0.42,-0.88,0.3
0.41,-0.88,0.31
0.41,-0.88,0.32
0.41,-0.88,0.32
0.4,-0.88,0.32
0.4,-0.88,0.31
0.41,-0.88,0.31
0.41,-0.88,0.31
0.42,-0.88,0.31
0.43,-0.88,0.31
0.43,-0.88,0.31
0.43,-0.88,0.3
0.43,-0.88,0.3
0.42,-0.88,0.3
0.42,-0.88,0.3
0.41,-0.88,0.3
0.42,-0.88,0.31
0.41,-0.88,0.31
0.41,-0.88,0.3
0.41,-0.88,0.3
0.41,-0.88,0.3
0.41,-0.88,0.29
0.42,-0.88,0.29
0.42,-0.88,0.29
0.42,-0.89,0.29
0.42,-0.88,0.29
0.41,-0.89,0.29
0.4,-0.88,0.29
0.4,-0.88,0.3
0.41,-0.88,0.3
0.42,-0.88,0.3
0.42,-0.88,0.3
0.42,-0.88,0.3
0.42,-0.88,0.3
0.42,-0.88,0.3
0.42,-0.88,0.3
0.42,-0.88,0.29
0.42,-0.88,0.29
0.42,-0.88,0.29
0.41,-0.88,0.29
0.41,-0.88,0.29
0.41,-0.88,0.3
0.41,-0.88,0.3
0.41,-0.88,0.3
0.42,-0.88,0.3
0.42,-0.88,0.3
0.41,-0.88,0.3
0.42,-0.88,0.3
0.42,-0.88,0.29
0.42,-0.88,0.29
0.42,-0.88,0.29
0.42,-0.88,0.29
0.42,-0.88,0.29
0.42,-0.88,0.3
0.42,-0.88,0.3
0.42,-0.88,0.3
0.42,-0.88,0.3
0.42,-0.88,0.3
0.42,-0.88,0.3
0.41,-0.88,0.3
0.41,-0.88,0.3
0.41,-0.88,0.3
0.41,-0.88,0.3
0.42,-0.88,0.3
0.42,-0.88,0.31
0.41,-0.88,0.31
0.42,-0.88,0.31
0.43,-0.88,0.31
0.43,-0.88,0.3
0.42,-0.88,0.3
0.42,-0.88,0.3
0.42,-0.88,0.3
0.41,-0.88,0.3
0.41,-0.88,0.31
0.41,-0.88,0.31
0.41,-0.88,0.3
0.41,-0.88,0.3
0.42,-0.88,0.3
0.42,-0.88,0.29
0.42,-0.88,0.29
0.42,-0.88,0.29
0.42,-0.89,0.29
0.42,-0.88,0.28
0.42,-0.88,0.28
0.42,-0.89,0.28
0.42,-0.89,0.28
0.41,-0.89,0.28
0.42,-0.89,0.28
0.42,-0.89,0.28
0.41,-0.89,0.28
0.41,-0.88,0.29
0.41,-0.88,0.3
0.41,-0.88,0.3
0.41,-0.88,0.3
0.41,-0.88,0.3
0.42,-0.88,0.3
0.42,-0.88,0.3
0.42,-0.88,0.3
0.42,-0.88,0.3
0.42,-0.88,0.3
0.42,-0.88,0.3
0.42,-0.89,0.3
0.41,-0.88,0.3
0.41,-0.88,0.3
0.41,-0.88,0.3
0.41,-0.89,0.3
0.41,-0.88,0.3
0.4,-0.89,0.3
0.4,-0.89,0.3
0.4,-0.89,0.29
0.4,-0.89,0.29
0.41,-0.89,0.29
0.41,-0.88,0.29
0.41,-0.88,0.29
0.41,-0.89,0.29
0.41,-0.88,0.29
0.42,-0.88,0.29
0.42,-0.88,0.29
0.42,-0.88,0.29
0.42,-0.88,0.28
0.42,-0.88,0.28
0.42,-0.89,0.28
0.42,-0.89,0.28
0.42,-0.89,0.27
0.43,-0.89,0.27
0.43,-0.89,0.27
0.43,-0.89,0.26
0.43,-0.89,0.26
0.43,-0.89,0.24
0.44,-0.89,0.24
0.44,-0.89,0.24
0.42,-0.89,0.25
0.42,-0.89,0.27
0.41,-0.89,0.27
0.42,-0.88,0.27
0.43,-0.89,0.26
0.42,-0.88,0.27
0.4,-0.88,0.29
0.38,-0.88,0.3
0.38,-0.88,0.32
0.36,-0.88,0.35
0.35,-0.88,0.38
0.36,-0.87,0.38
0.36,-0.87,0.39
0.36,-0.87,0.42
0.36,-0.87,0.43
0.37,-0.87,0.43
0.38,-0.87,0.42
0.39,-0.86,0.41
0.4,-0.86,0.4
0.41,-0.87,0.38
0.41,-0.87,0.37
0.41,-0.87,0.37
0.4,-0.87,0.36
0.41,-0.88,0.34
0.4,-0.87,0.33
0.4,-0.88,0.33
0.4,-0.88,0.32
0.4,-0.88,0.3
0.41,-0.88,0.29
0.42,-0.88,0.28
0.42,-0.89,0.28
0.41,-0.89,0.28
0.41,-0.89,0.29
0.42,-0.89,0.28
0.41,-0.88,0.28
0.41,-0.89,0.28
0.42,-0.89,0.27
0.41,-0.89,0.26
0.41,-0.88,0.26
0.41,-0.88,0.27
0.41,-0.89,0.28
0.42,-0.88,0.28
0.42,-0.88,0.29
0.43,-0.88,0.3
0.43,-0.88,0.3
0.42,-0.88,0.3
0.42,-0.88,0.29
0.42,-0.88,0.29
0.42,-0.88,0.29
0.42,-0.88,0.29
0.42,-0.88,0.29
0.42,-0.88,0.29
0.43,-0.88,0.29
0.43,-0.88,0.29
0.43,-0.88,0.29
0.43,-0.89,0.29
0.43,-0.88,0.29
0.43,-0.88,0.29
0.42,-0.88,0.3
0.42,-0.88,0.3
0.41,-0.88,0.31
0.4,-0.88,0.31
0.39,-0.88,0.31
0.39,-0.88,0.31
0.4,-0.88,0.31
0.41,-0.88,0.3
0.43,-0.88,0.29
0.45,-0.88,0.28
0.47,-0.88,0.27
0.46,-0.88,0.27
0.45,-0.88,0.26
0.45,-0.88,0.25
0.44,-0.89,0.24
0.42,-0.9,0.23
0.41,-0.9,0.21
0.43,-0.9,0.19
0.45,-0.89,0.19
0.45,-0.89,0.21
0.45,-0.88,0.24
0.43,-0.88,0.28
0.41,-0.88,0.3
0.41,-0.87,0.33
0.38,-0.87,0.36
0.37,-0.87,0.38
0.36,-0.86,0.39
0.35,-0.86,0.39
0.35,-0.86,0.4
0.36,-0.86,0.4
0.37,-0.85,0.41
0.37,-0.85,0.44
0.37,-0.85,0.45
0.37,-0.85,0.46
0.36,-0.85,0.47
0.36,-0.85,0.46
0.36,-0.85,0.46
0.35,-0.85,0.46
0.35,-0.85,0.45
0.37,-0.86,0.43
0.37,-0.86,0.42
0.38,-0.86,0.41
0.38,-0.86,0.41
0.39,-0.86,0.4
0.39,-0.87,0.39
0.39,-0.87,0.39
0.38,-0.86,0.38
0.38,-0.86,0.37
0.38,-0.87,0.37
0.38,-0.87,0.37
0.38,-0.87,0.37
0.38,-0.87,0.36
0.39,-0.87,0.36
0.39,-0.86,0.36
0.39,-0.86,0.37
0.38,-0.87,0.37
0.39,-0.87,0.38
0.39,-0.87,0.38
0.38,-0.87,0.39
0.38,-0.86,0.39
0.37,-0.86,0.39
0.37,-0.86,0.39
0.36,-0.86,0.39
0.36,-0.86,0.39
0.37,-0.86,0.4
0.37,-0.86,0.4
0.37,-0.86,0.4
0.37,-0.86,0.4
0.38,-0.86,0.4
0.38,-0.86,0.39
0.39,-0.86,0.39
0.39,-0.86,0.39
0.38,-0.86,0.38
0.38,-0.86,0.38
0.38,-0.86,0.38
0.37,-0.86,0.38
0.37,-0.86,0.38
0.38,-0.86,0.38
0.38,-0.86,0.39
0.38,-0.86,0.39
0.38,-0.86,0.39
0.37,-0.86,0.39
0.38,-0.86,0.39
0.38,-0.86,0.39
0.38,-0.86,0.39
0.38,-0.87,0.39
0.38,-0.87,0.38
0.38,-0.86,0.38
0.38,-0.86,0.39
0.38,-0.86,0.39
0.38,-0.86,0.39
0.38,-0.86,0.39
0.38,-0.86,0.39
0.38,-0.86,0.39
0.38,-0.86,0.39
0.38,-0.86,0.39
0.37,-0.86,0.39
0.37,-0.86,0.39
0.37,-0.86,0.39
0.38,-0.86,0.39
0.38,-0.86,0.39
0.38,-0.86,0.39
0.38,-0.86,0.38
0.38,-0.86,0.38
0.38,-0.87,0.38
0.39,-0.87,0.39
0.38,-0.87,0.39
0.38,-0.86,0.39
0.38,-0.86,0.39
0.38,-0.86,0.39
0.37,-0.86,0.39
0.37,-0.86,0.39
0.37,-0.86,0.39
0.37,-0.86,0.39
0.37,-0.86,0.38
0.38,-0.86,0.38
0.38,-0.86,0.38
0.38,-0.86,0.39
0.38,-0.87,0.39
0.38,-0.87,0.39
0.38,-0.86,0.39
0.38,-0.86,0.39
0.38,-0.86,0.38
0.37,-0.87,0.38
0.37,-0.86,0.39
0.37,-0.86,0.39
0.37,-0.86,0.38
0.37,-0.87,0.38
0.39,-0.87,0.38
0.39,-0.86,0.39
0.38,-0.86,0.39
0.38,-0.86,0.39
0.37,-0.86,0.39
0.37,-0.86,0.39
0.37,-0.86,0.39
0.37,-0.86,0.39
0.37,-0.86,0.39
0.38,-0.87,0.38
0.37,-0.87,0.39
0.37,-0.86,0.39
0.37,-0.86,0.39
0.37,-0.87,0.39
0.37,-0.86,0.39
0.37,-0.86,0.39
0.38,-0.87,0.39
0.37,-0.86,0.4
0.37,-0.86,0.4
0.36,-0.86,0.39
0.36,-0.86,0.39
0.37,-0.86,0.39
0.37,-0.86,0.39
0.37,-0.86,0.39
0.37,-0.86,0.4
0.37,-0.86,0.4
0.37,-0.86,0.4
0.37,-0.86,0.41
0.37,-0.86,0.41
0.37,-0.86,0.41
0.37,-0.86,0.41
0.36,-0.86,0.41
0.36,-0.85,0.41
0.36,-0.86,0.41
0.36,-0.86,0.41
0.36,-0.86,0.41
0.37,-0.86,0.41
0.37,-0.86,0.41
0.37,-0.86,0.41
0.37,-0.86,0.41
0.36,-0.86,0.41
0.36,-0.86,0.41
0.36,-0.86,0.41
0.36,-0.86,0.41
0.36,-0.86,0.41
0.37,-0.86,0.41
0.37,-0.86,0.4
0.37,-0.86,0.4
0.37,-0.86,0.4
0.37,-0.86,0.4
0.37,-0.86,0.4
0.37,-0.86,0.4
0.37,-0.86,0.4
0.37,-0.86,0.41
0.37,-0.86,0.41
0.37,-0.86,0.41
0.37,-0.86,0.41
0.37,-0.86,0.41
0.37,-0.86,0.42
0.37,-0.86,0.42
0.37,-0.86,0.42
0.37,-0.86,0.42
0.37,-0.86,0.41
0.37,-0.85,0.41
0.36,-0.86,0.41
0.36,-0.86,0.41
0.36,-0.86,0.41
0.37,-0.86,0.41
0.37,-0.86,0.41
0.37,-0.86,0.4
0.37,-0.86,0.4
0.36,-0.86,0.4
0.36,-0.86,0.41
0.36,-0.85,0.41
0.36,-0.86,0.42
0.36,-0.86,0.42
0.36,-0.86,0.41
0.36,-0.86,0.41
0.36,-0.86,0.41
0.35,-0.86,0.42
0.35,-0.86,0.43
0.35,-0.85,0.44
0.35,-0.85,0.45
0.35,-0.85,0.45
0.34,-0.85,0.45
0.34,-0.85,0.46
0.34,-0.85,0.46
0.34,-0.85,0.46
0.35,-0.85,0.46
0.35,-0.85,0.45
0.35,-0.85,0.45
0.35,-0.86,0.44
0.35,-0.86,0.44
0.35,-0.85,0.43
0.35,-0.85,0.42
0.35,-0.85,0.42
0.35,-0.85,0.43
0.35,-0.86,0.43
0.34,-0.86,0.44
0.35,-0.86,0.44
0.34,-0.86,0.44
0.34,-0.86,0.44
0.34,-0.86,0.44
0.33,-0.86,0.44
0.33,-0.86,0.43
0.33,-0.86,0.43
0.33,-0.86,0.43
0.33,-0.86,0.43
0.33,-0.86,0.43
0.33,-0.86,0.43
0.32,-0.86,0.43
0.32,-0.86,0.43
0.32,-0.86,0.43
0.32,-0.86,0.43
0.32,-0.86,0.43
0.33,-0.86,0.43
0.33,-0.86,0.43
0.33,-0.86,0.43
0.33,-0.86,0.43
0.33,-0.86,0.43
0.32,-0.86,0.43
0.32,-0.86,0.43
0.33,-0.86,0.43
0.33,-0.86,0.43
0.34,-0.86,0.42
0.33,-0.86,0.42
0.33,-0.86,0.42
0.33,-0.86,0.42
0.32,-0.86,0.43
0.32,-0.87,0.43
0.32,-0.87,0.44
0.32,-0.86,0.44
0.32,-0.86,0.43
0.33,-0.86,0.42
0.33,-0.87,0.41
0.34,-0.87,0.42
0.34,-0.86,0.43
0.33,-0.86,0.43
0.33,-0.86,0.43
0.33,-0.86,0.43
0.32,-0.86,0.44
0.32,-0.86,0.44
0.32,-0.86,0.45
0.33,-0.86,0.45
0.33,-0.86,0.46
0.33,-0.85,0.47
0.33,-0.86,0.46
0.33,-0.85,0.46
0.32,-0.85,0.46
0.32,-0.85,0.46
0.33,-0.85,0.49
0.33,-0.85,0.51
0.32,-0.85,0.53
0.3,-0.84,0.55
0.29,-0.84,0.56
0.29,-0.84,0.56
0.29,-0.83,0.56
0.31,-0.84,0.55
0.33,-0.82,0.55
0.34,-0.82,0.55
0.35,-0.84,0.54
0.36,-0.83,0.53
0.34,-0.82,0.52
0.35,-0.83,0.51
0.37,-0.83,0.47
0.42,-0.84,0.42
0.47,-0.85,0.38
0.44,-0.84,0.4
0.4,-0.85,0.42
0.39,-0.85,0.43
0.37,-0.85,0.44
0.36,-0.85,0.46
0.36,-0.86,0.46
0.36,-0.87,0.46
0.36,-0.88,0.45
0.33,-0.9,0.44
0.32,-0.9,0.37
0.32,-0.9,0.32
0.31,-0.9,0.29
0.29,-0.91,0.26
0.3,-0.92,0.25
0.32,-0.94,0.22
0.29,-0.95,0.23
0.23,-0.94,0.26
0.22,-0.95,0.26
0.22,-0.96,0.26
0.2,-0.95,0.29
0.2,-0.96,0.28
0.21,-0.97,0.24
0.2,-0.96,0.24
0.15,-0.96,0.26
0.11,-0.95,0.27
0.12,-0.95,0.29
0.12,-0.96,0.3
0.12,-0.97,0.29
0.09,-0.96,0.28
0.05,-0.96,0.29
0.03,-0.96,0.29
0.02,-0.96,0.28
0.01,-0.96,0.27
0.01,-0.96,0.27
0.01,-0.96,0.28
0.02,-0.96,0.31
0.02,-0.96,0.32
0.01,-0.97,0.31
0.01,-0.96,0.29
0.02,-0.96,0.28
0.03,-0.96,0.28
0.04,-0.96,0.29
0.05,-0.95,0.3
0.05,-0.96,0.3
0.05,-0.97,0.3
0.05,-0.96,0.3
0.06,-0.96,0.3
0.05,-0.96,0.3
0.05,-0.96,0.3
0.07,-0.96,0.3
0.09,-0.97,0.3
0.1,-0.96,0.3
0.11,-0.96,0.3
0.12,-0.96,0.31
0.13,-0.95,0.31
0.13,-0.96,0.33
0.13,-0.96,0.34
0.12,-0.96,0.35
0.13,-0.95,0.35
0.13,-0.95,0.35
0.13,-0.95,0.35
0.12,-0.95,0.35
0.12,-0.95,0.34
0.12,-0.95,0.35
0.12,-0.94,0.35
0.12,-0.95,0.36
0.12,-0.95,0.35
0.13,-0.94,0.34
0.13,-0.94,0.34
0.13,-0.95,0.34
0.13,-0.95,0.34
0.12,-0.95,0.33
0.12,-0.95,0.33
0.12,-0.95,0.34
0.12,-0.95,0.34
0.12,-0.95,0.35
0.13,-0.94,0.36
0.13,-0.94,0.37
0.14,-0.94,0.37
0.14,-0.94,0.37
0.14,-0.94,0.37
0.14,-0.94,0.36
0.14,-0.94,0.36
0.14,-0.94,0.36
0.14,-0.94,0.37
0.13,-0.94,0.38
0.13,-0.94,0.39
0.14,-0.94,0.39
0.13,-0.94,0.39
0.13,-0.94,0.38
0.13,-0.94,0.38
0.13,-0.94,0.38
0.13,-0.94,0.39
0.13,-0.94,0.39
0.12,-0.94,0.39
0.12,-0.94,0.39
0.13,-0.94,0.39
0.13,-0.94,0.38
0.13,-0.94,0.38
0.13,-0.94,0.38
0.13,-0.94,0.37
0.13,-0.94,0.38
0.13,-0.94,0.38
0.13,-0.94,0.38
0.13,-0.94,0.37
0.14,-0.94,0.37
0.15,-0.94,0.37
0.15,-0.94,0.37
0.15,-0.94,0.38
0.16,-0.94,0.38
0.16,-0.94,0.37
0.16,-0.94,0.37
0.16,-0.94,0.37
0.16,-0.94,0.36
0.17,-0.94,0.36
0.17,-0.93,0.36
0.18,-0.94,0.35
0.17,-0.94,0.36
0.17,-0.94,0.35
0.18,-0.94,0.35
0.18,-0.94,0.34
0.19,-0.94,0.34
0.19,-0.94,0.33
0.19,-0.94,0.33
0.18,-0.94,0.33
0.18,-0.94,0.32
0.18,-0.94,0.32
0.19,-0.94,0.32
0.19,-0.95,0.32
0.19,-0.95,0.32
0.2,-0.94,0.32
0.2,-0.94,0.32
0.2,-0.94,0.32
0.2,-0.94,0.32
0.19,-0.94,0.32
0.19,-0.95,0.32
0.19,-0.95,0.32
0.19,-0.95,0.32
0.2,-0.94,0.32
0.19,-0.94,0.32
0.19,-0.95,0.33
0.19,-0.95,0.33
0.19,-0.94,0.33
0.19,-0.94,0.33
0.19,-0.94,0.34
0.19,-0.94,0.34
0.19,-0.94,0.34
0.19,-0.94,0.34
0.19,-0.94,0.34
0.18,-0.94,0.34
0.18,-0.94,0.34
0.18,-0.94,0.34
0.18,-0.94,0.34
0.18,-0.94,0.34
0.18,-0.94,0.34
0.18,-0.94,0.34
0.18,-0.95,0.34
0.19,-0.94,0.34
0.18,-0.94,0.34
0.19,-0.94,0.34
0.19,-0.94,0.34
0.2,-0.94,0.34
0.2,-0.94,0.35
0.2,-0.93,0.35
0.2,-0.94,0.35
0.2,-0.94,0.34
0.2,-0.94,0.33
0.19,-0.93,0.34
0.19,-0.94,0.35
0.2,-0.94,0.35
0.19,-0.94,0.35
0.19,-0.94,0.35
0.19,-0.93,0.35
0.19,-0.93,0.35
0.19,-0.94,0.35
0.2,-0.94,0.34
0.2,-0.94,0.34
0.19,-0.94,0.34
0.19,-0.94,0.34
0.2,-0.94,0.34
0.2,-0.94,0.34
0.2,-0.94,0.34
0.2,-0.94,0.34
0.2,-0.94,0.35
0.2,-0.94,0.35
0.2,-0.94,0.34
0.2,-0.94,0.34
0.2,-0.94,0.34
0.2,-0.94,0.34
0.2,-0.94,0.34
0.2,-0.94,0.34
0.19,-0.93,0.34
0.2,-0.93,0.34
0.19,-0.94,0.34
0.19,-0.94,0.35
0.19,-0.94,0.35
0.19,-0.93,0.35
0.19,-0.93,0.35
0.19,-0.93,0.35
0.19,-0.93,0.35
0.19,-0.94,0.35
0.19,-0.94,0.35
0.19,-0.93,0.35
0.19,-0.93,0.35
0.19,-0.94,0.35
0.19,-0.94,0.35
0.19,-0.94,0.35
0.19,-0.94,0.35
0.19,-0.93,0.34
0.2,-0.94,0.35
0.2,-0.93,0.35
0.19,-0.93,0.35
0.19,-0.93,0.35
0.19,-0.94,0.35
0.19,-0.94,0.35
0.2,-0.94,0.35
0.2,-0.93,0.35
0.2,-0.94,0.35
0.2,-0.93,0.35
0.2,-0.93,0.35
0.2,-0.93,0.35
0.2,-0.93,0.35
0.2,-0.93,0.35
0.2,-0.93,0.35
0.2,-0.93,0.35
0.2,-0.93,0.35
0.19,-0.93,0.35
0.19,-0.93,0.35
0.2,-0.93,0.35
0.21,-0.93,0.35
0.21,-0.93,0.36
0.21,-0.93,0.36
0.21,-0.93,0.37
0.21,-0.93,0.36
0.21,-0.93,0.36
0.21,-0.93,0.35
0.21,-0.93,0.36
0.2,-0.93,0.36
0.2,-0.93,0.36
0.2,-0.93,0.36
0.2,-0.93,0.36
0.2,-0.93,0.35
0.21,-0.93,0.35
0.21,-0.93,0.35
0.2,-0.93,0.36
0.21,-0.93,0.36
0.21,-0.93,0.36
0.21,-0.93,0.36
0.21,-0.93,0.36
0.21,-0.93,0.36
0.21,-0.93,0.35
0.21,-0.93,0.35
0.21,-0.93,0.35
0.21,-0.93,0.36
0.22,-0.93,0.36
0.22,-0.93,0.36
0.22,-0.93,0.36
0.22,-0.93,0.36
0.22,-0.93,0.36
0.22,-0.93,0.36
0.22,-0.93,0.36
0.22,-0.93,0.36
0.22,-0.93,0.36
0.22,-0.93,0.37
0.21,-0.93,0.36
0.21,-0.93,0.36
0.21,-0.92,0.37
0.22,-0.93,0.37
0.22,-0.93,0.37
0.22,-0.93,0.36
0.22,-0.93,0.36
0.21,-0.93,0.36
0.22,-0.93,0.36
0.22,-0.93,0.36
0.22,-0.93,0.37
0.22,-0.93,0.37
0.22,-0.93,0.37
0.22,-0.92,0.37
0.22,-0.92,0.37
0.21,-0.92,0.37
0.21,-0.92,0.37
0.22,-0.92,0.37
0.22,-0.92,0.37
0.22,-0.92,0.37
0.21,-0.92,0.37
0.21,-0.92,0.37
0.21,-0.92,0.37
0.22,-0.92,0.37
0.22,-0.93,0.37
0.22,-0.93,0.37
0.22,-0.92,0.37
0.22,-0.92,0.37
0.22,-0.92,0.37
0.22,-0.92,0.37
0.22,-0.92,0.37
0.22,-0.92,0.37
0.22,-0.92,0.38
0.22,-0.92,0.38
0.22,-0.92,0.37
0.22,-0.92,0.37
0.21,-0.92,0.37
0.21,-0.92,0.37
0.22,-0.92,0.37
0.22,-0.92,0.38
0.22,-0.92,0.38
0.22,-0.92,0.38
0.22,-0.92,0.37
0.22,-0.92,0.37
0.22,-0.92,0.37
0.22,-0.92,0.37
0.22,-0.92,0.37
0.22,-0.92,0.37
0.22,-0.92,0.37
0.22,-0.92,0.37
0.22,-0.92,0.37
0.22,-0.92,0.37
0.22,-0.92,0.37
0.22,-0.92,0.38
0.22,-0.92,0.37
0.22,-0.92,0.37
0.22,-0.92,0.37
0.22,-0.92,0.37
0.22,-0.93,0.37
0.21,-0.93,0.37
0.22,-0.92,0.38
0.22,-0.92,0.38
0.22,-0.92,0.38
0.22,-0.92,0.38
0.22,-0.92,0.37
0.21,-0.92,0.37
0.22,-0.92,0.38
0.22,-0.92,0.38
0.22,-0.92,0.37
0.22,-0.92,0.37
0.22,-0.92,0.37
0.22,-0.92,0.37
0.22,-0.92,0.37
0.22,-0.92,0.37
0.22,-0.92,0.37
0.22,-0.93,0.37
0.22,-0.92,0.38
0.22,-0.92,0.37
0.22,-0.92,0.37
0.22,-0.92,0.37
0.22,-0.92,0.38
0.22,-0.92,0.38
0.22,-0.92,0.38
0.22,-0.92,0.38
0.22,-0.92,0.38
0.22,-0.92,0.38
0.22,-0.92,0.38
0.22,-0.92,0.38
0.22,-0.92,0.38
0.22,-0.92,0.38
0.22,-0.92,0.38
0.21,-0.92,0.38
0.22,-0.92,0.38
0.21,-0.92,0.38
0.22,-0.92,0.38
0.22,-0.92,0.38
0.22,-0.92,0.37
0.22,-0.92,0.38
0.22,-0.92,0.38
0.22,-0.92,0.38
0.22,-0.92,0.37
0.22,-0.92,0.38
0.22,-0.92,0.38
0.22,-0.92,0.37
0.22,-0.92,0.37
0.22,-0.92,0.37
0.22,-0.92,0.37
0.22,-0.92,0.37
0.22,-0.92,0.37
0.22,-0.92,0.37
0.22,-0.92,0.37
0.22,-0.92,0.37
0.22,-0.92,0.38
0.22,-0.92,0.38
0.22,-0.92,0.38
0.21,-0.92,0.38
0.22,-0.92,0.38
0.22,-0.92,0.38
0.22,-0.92,0.37
0.22,-0.92,0.37
0.22,-0.92,0.38
0.22,-0.92,0.38
0.22,-0.92,0.38
0.22,-0.92,0.37
0.23,-0.92,0.37
0.23,-0.92,0.38
0.22,-0.92,0.38
0.22,-0.92,0.38
0.22,-0.92,0.38
0.22,-0.92,0.38
0.22,-0.92,0.38
0.22,-0.92,0.38
0.22,-0.92,0.38
0.22,-0.92,0.38
0.22,-0.92,0.38
0.22,-0.92,0.38
0.22,-0.92,0.38
0.22,-0.92,0.38
0.22,-0.92,0.38
0.22,-0.92,0.38
0.22,-0.92,0.38
0.22,-0.92,0.38
0.22,-0.92,0.38
0.22,-0.92,0.38
0.22,-0.92,0.38
0.22,-0.92,0.38
0.22,-0.92,0.38
0.22,-0.92,0.38
0.22,-0.92,0.38
0.22,-0.92,0.38
0.22,-0.92,0.38
0.22,-0.92,0.38
0.22,-0.92,0.38
0.22,-0.92,0.38
0.22,-0.92,0.38
0.22,-0.92,0.38
0.22,-0.92,0.38
0.22,-0.92,0.38
0.22,-0.92,0.38
0.22,-0.91,0.38
0.23,-0.91,0.38
0.23,-0.92,0.38
0.23,-0.92,0.38
0.22,-0.92,0.38
0.22,-0.92,0.39
0.23,-0.92,0.39
0.23,-0.92,0.38
0.23,-0.92,0.38
0.23,-0.92,0.38
0.22,-0.92,0.38
0.22,-0.92,0.38
0.22,-0.91,0.39
0.22,-0.92,0.38
0.22,-0.92,0.38
0.23,-0.92,0.38
0.23,-0.92,0.38
0.22,-0.92,0.38
0.22,-0.92,0.38
0.22,-0.92,0.38
0.22,-0.91,0.38
0.23,-0.92,0.38
0.23,-0.91,0.38
0.23,-0.91,0.38
0.23,-0.91,0.38
0.23,-0.92,0.38
0.22,-0.92,0.38
0.22,-0.92,0.38
0.22,-0.91,0.38
0.22,-0.92,0.38
0.22,-0.92,0.38
0.22,-0.92,0.38
0.23,-0.92,0.38
0.23,-0.91,0.38
0.23,-0.92,0.38
0.23,-0.92,0.38
0.23,-0.92,0.38
0.23,-0.92,0.38
0.23,-0.92,0.38
0.22,-0.91,0.38
0.22,-0.92,0.38
0.22,-0.92,0.38
0.22,-0.92,0.38
0.22,-0.92,0.38
0.22,-0.92,0.38
0.22,-0.92,0.38
0.22,-0.92,0.38
0.22,-0.92,0.38
0.22,-0.92,0.38
0.22,-0.92,0.38
0.23,-0.91,0.38
0.23,-0.91,0.38
0.22,-0.92,0.38
0.22,-0.92,0.38
0.22,-0.92,0.38
0.22,-0.92,0.38
0.22,-0.92,0.38
0.23,-0.92,0.39
0.23,-0.92,0.39
0.22,-0.92,0.38
0.22,-0.92,0.38
0.22,-0.92,0.38
0.22,-0.92,0.38
0.22,-0.92,0.38
0.22,-0.92,0.38
0.22,-0.92,0.38
0.22,-0.92,0.38
0.22,-0.92,0.38
0.23,-0.92,0.38
0.22,-0.92,0.38
0.22,-0.91,0.38
0.22,-0.92,0.38
0.22,-0.91,0.38
0.22,-0.91,0.38
0.22,-0.92,0.38
0.22,-0.92,0.38
0.22,-0.92,0.38
0.22,-0.92,0.38
0.22,-0.92,0.38
0.22,-0.92,0.38
0.22,-0.91,0.38
0.22,-0.92,0.38
0.22,-0.92,0.38
0.22,-0.92,0.38
0.22,-0.92,0.38
0.22,-0.92,0.38
0.22,-0.92,0.38
0.22,-0.92,0.38
0.22,-0.92,0.38
0.22,-0.92,0.38
0.22,-0.92,0.38
0.22,-0.91,0.38
0.22,-0.92,0.38
0.22,-0.92,0.39
0.22,-0.91,0.39
0.22,-0.91,0.39
0.22,-0.91,0.39
0.22,-0.92,0.39
0.22,-0.92,0.39
0.22,-0.92,0.39
0.22,-0.92,0.39
0.22,-0.92,0.39
0.22,-0.92,0.39
0.22,-0.92,0.38
0.22,-0.92,0.38
0.22,-0.92,0.38
0.23,-0.92,0.38
0.23,-0.91,0.38
0.22,-0.92,0.38
0.22,-0.92,0.39
0.22,-0.92,0.38
0.22,-0.92,0.38
0.22,-0.92,0.38
0.22,-0.92,0.38
0.22,-0.92,0.38
0.22,-0.92,0.38
0.22,-0.92,0.38
0.22,-0.92,0.38
0.23,-0.92,0.38
0.22,-0.92,0.38
0.22,-0.91,0.38
0.23,-0.91,0.39
0.22,-0.92,0.39
0.22,-0.92,0.39
0.22,-0.92,0.39
0.22,-0.92,0.39
0.22,-0.92,0.38
0.22,-0.92,0.38
0.22,-0.92,0.38
0.22,-0.92,0.38
0.22,-0.92,0.38
0.22,-0.92,0.38
0.22,-0.92,0.38
0.22,-0.92,0.38
0.22,-0.92,0.37
0.22,-0.92,0.37
0.23,-0.92,0.37
0.23,-0.92,0.38
0.23,-0.92,0.37
0.23,-0.91,0.37
0.22,-0.92,0.38
0.22,-0.92,0.38
0.22,-0.92,0.38
0.22,-0.92,0.38
0.22,-0.92,0.38
0.22,-0.92,0.38
0.22,-0.92,0.38
0.22,-0.92,0.38
0.23,-0.92,0.38
0.23,-0.92,0.38
0.23,-0.92,0.38
0.23,-0.92,0.38
0.23,-0.92,0.38
0.23,-0.92,0.38
0.22,-0.92,0.38
0.22,-0.92,0.38
0.22,-0.92,0.38
0.21,-0.92,0.38
0.22,-0.92,0.38
0.22,-0.92,0.38
0.22,-0.92,0.38
0.22,-0.92,0.38
0.22,-0.92,0.38
0.22,-0.92,0.38
0.23,-0.92,0.38
0.23,-0.92,0.38
0.22,-0.92,0.38
0.22,-0.92,0.37
0.23,-0.92,0.37
0.22,-0.92,0.38
0.22,-0.92,0.38
0.22,-0.92,0.38
0.23,-0.92,0.38
0.22,-0.92,0.38
0.22,-0.92,0.38
0.22,-0.92,0.38
0.22,-0.92,0.38
0.22,-0.91,0.39
0.23,-0.92,0.38
0.23,-0.92,0.39
0.23,-0.92,0.39
0.23,-0.92,0.39
0.23,-0.92,0.39
0.23,-0.92,0.39
0.23,-0.92,0.39
0.23,-0.91,0.39
0.23,-0.91,0.38
0.23,-0.91,0.38
0.23,-0.91,0.39
0.23,-0.92,0.39
0.23,-0.92,0.38
0.22,-0.91,0.38
0.22,-0.91,0.38
0.22,-0.92,0.38
0.22,-0.92,0.38
0.22,-0.92,0.39
0.22,-0.92,0.38
0.22,-0.92,0.38
0.22,-0.92,0.38
0.23,-0.92,0.38
0.23,-0.92,0.38
0.23,-0.92,0.38
0.23,-0.92,0.38
0.23,-0.91,0.39
0.23,-0.91,0.39
0.23,-0.92,0.39
0.23,-0.92,0.39
0.23,-0.92,0.39
0.22,-0.91,0.39
0.22,-0.91,0.39
0.22,-0.91,0.39
0.22,-0.92,0.39
0.22,-0.92,0.38
0.22,-0.92,0.38
0.22,-0.92,0.39
0.23,-0.92,0.39
0.23,-0.92,0.38
0.23,-0.92,0.38
0.23,-0.92,0.38
0.23,-0.91,0.38
0.23,-0.91,0.38
0.23,-0.91,0.38
0.23,-0.92,0.38
0.23,-0.91,0.38
0.22,-0.91,0.38
0.22,-0.92,0.38
0.23,-0.92,0.38
0.23,-0.92,0.38
0.23,-0.92,0.38
0.23,-0.92,0.38
0.23,-0.92,0.38
0.23,-0.92,0.38
0.23,-0.92,0.38
0.23,-0.92,0.37
0.23,-0.92,0.37
0.23,-0.92,0.37
0.23,-0.92,0.38
0.23,-0.92,0.38
0.23,-0.92,0.38
0.23,-0.92,0.38
0.22,-0.92,0.38
0.22,-0.92,0.37
0.22,-0.92,0.37
0.23,-0.92,0.37
0.23,-0.92,0.37
0.23,-0.92,0.37
0.23,-0.92,0.37
0.23,-0.92,0.37
0.23,-0.92,0.37
0.23,-0.92,0.38
0.23,-0.92,0.38
0.23,-0.92,0.37
0.23,-0.92,0.38
0.23,-0.92,0.37
0.23,-0.92,0.37
0.23,-0.92,0.37
0.23,-0.92,0.37
0.23,-0.92,0.37
0.23,-0.92,0.37
0.23,-0.92,0.37
0.22,-0.92,0.37
0.23,-0.92,0.38
0.23,-0.92,0.38
0.23,-0.92,0.38
0.23,-0.92,0.37
0.23,-0.92,0.37
0.23,-0.92,0.38
0.23,-0.92,0.38
0.23,-0.92,0.38
0.23,-0.92,0.37
0.23,-0.92,0.37
0.22,-0.92,0.38
0.23,-0.92,0.38
0.23,-0.92,0.38
0.23,-0.92,0.38
0.23,-0.92,0.38
0.23,-0.92,0.38
0.23,-0.92,0.38
0.23,-0.92,0.37
0.23,-0.91,0.38
0.23,-0.92,0.38
0.23,-0.92,0.38
0.22,-0.92,0.37
0.23,-0.92,0.37
0.23,-0.92,0.37
0.23,-0.92,0.37
0.23,-0.92,0.37
0.23,-0.92,0.37
0.23,-0.92,0.37
0.23,-0.92,0.37
0.24,-0.92,0.37
0.23,-0.92,0.37
0.23,-0.92,0.37
0.23,-0.92,0.37
0.23,-0.92,0.37
0.23,-0.92,0.37
0.23,-0.92,0.37
0.23,-0.92,0.37
0.23,-0.92,0.37
0.23,-0.92,0.37
0.23,-0.92,0.37
0.23,-0.92,0.37
0.23,-0.92,0.37
0.23,-0.92,0.37
0.23,-0.92,0.37
0.23,-0.92,0.37
0.23,-0.92,0.37
0.23,-0.92,0.37
0.23,-0.92,0.37
0.23,-0.92,0.37
0.23,-0.92,0.37
0.23,-0.92,0.37
0.23,-0.92,0.37
0.23,-0.92,0.37
0.23,-0.92,0.37
0.23,-0.92,0.37
0.23,-0.92,0.37
0.23,-0.92,0.37
0.23,-0.92,0.37
0.23,-0.92,0.37
0.23,-0.92,0.37
0.23,-0.92,0.37
0.23,-0.92,0.37
0.23,-0.92,0.37
0.23,-0.92,0.37
0.23,-0.92,0.37
0.23,-0.92,0.37
0.23,-0.92,0.37
0.23,-0.92,0.37
0.23,-0.92,0.37
0.23,-0.92,0.37
0.24,-0.92,0.37
0.24,-0.92,0.37
0.24,-0.92,0.37
0.23,-0.92,0.37
0.23,-0.92,0.37
0.23,-0.92,0.37
0.23,-0.92,0.37
0.23,-0.92,0.37
0.23,-0.92,0.37
0.23,-0.92,0.37
0.23,-0.92,0.37
0.23,-0.92,0.37
0.23,-0.92,0.37
0.23,-0.92,0.37
0.23,-0.92,0.37
0.23,-0.92,0.37
0.23,-0.92,0.37
0.23,-0.92,0.37
0.23,-0.92,0.37
0.23,-0.92,0.37
0.23,-0.92,0.37
0.23,-0.92,0.37
0.23,-0.92,0.37
0.23,-0.92,0.37
0.23,-0.92,0.37
0.23,-0.92,0.37
0.23,-0.92,0.37
0.23,-0.92,0.37
0.23,-0.92,0.37
0.23,-0.92,0.37
0.23,-0.92,0.37
0.23,-0.92,0.37
0.23,-0.92,0.37
0.23,-0.92,0.37
0.23,-0.92,0.37
0.23,-0.92,0.37
0.23,-0.92,0.37
0.23,-0.92,0.37
0.22,-0.92,0.37
0.23,-0.92,0.37
0.23,-0.92,0.37
0.23,-0.92,0.37
0.23,-0.92,0.37
0.23,-0.92,0.37
0.23,-0.92,0.37
0.23,-0.92,0.37
0.23,-0.92,0.37
0.23,-0.92,0.37
0.23,-0.92,0.37
0.23,-0.92,0.37
0.23,-0.92,0.38
0.23,-0.91,0.38
0.23,-0.92,0.37
0.23,-0.92,0.37
0.23,-0.92,0.37
0.23,-0.93,0.37
0.24,-0.93,0.36
0.24,-0.92,0.36
0.23,-0.92,0.37
0.24,-0.92,0.37
0.23,-0.92,0.37
0.23,-0.92,0.37
0.23,-0.92,0.37
0.23,-0.92,0.37
0.23,-0.92,0.36
0.24,-0.92,0.36
0.24,-0.92,0.36
0.24,-0.92,0.36
0.24,-0.92,0.36
0.24,-0.92,0.37
0.24,-0.92,0.37
0.24,-0.92,0.37
0.25,-0.92,0.37
0.25,-0.92,0.37
0.24,-0.92,0.37
0.24,-0.92,0.37
0.23,-0.92,0.37
0.23,-0.92,0.37
0.23,-0.92,0.37
0.22,-0.92,0.37
0.21,-0.92,0.37
0.21,-0.92,0.37
0.23,-0.92,0.37
0.24,-0.92,0.37
0.24,-0.92,0.37
0.24,-0.92,0.36
0.24,-0.92,0.36
0.24,-0.92,0.36
0.24,-0.92,0.36
0.24,-0.92,0.36
0.24,-0.92,0.37
0.23,-0.92,0.36
0.23,-0.92,0.36
0.23,-0.92,0.36
0.23,-0.92,0.36
0.23,-0.92,0.36
0.23,-0.92,0.37
0.23,-0.92,0.37
0.23,-0.92,0.37
0.22,-0.92,0.37
0.22,-0.92,0.37
0.22,-0.92,0.37
0.21,-0.92,0.37
0.22,-0.92,0.38
0.22,-0.92,0.38
0.22,-0.92,0.38
0.23,-0.92,0.39
0.23,-0.92,0.39
0.23,-0.92,0.39
0.23,-0.92,0.39
0.23,-0.91,0.39
0.23,-0.92,0.39
0.23,-0.92,0.38
0.24,-0.92,0.37
0.25,-0.92,0.37
0.25,-0.91,0.38
0.26,-0.92,0.35
0.36,-0.9,0.33
0.37,-0.91,0.29
0.4,-0.92,0.22
0.38,-0.92,0.2
0.27,-0.91,0.27
0.12,-0.9,0.37
0.06,-0.93,0.42
0.09,-0.96,0.41
0.01,-0.94,0.42
-0.07,-0.91,0.43
-0.06,-0.93,0.44
-0.1,-0.93,0.5
-0.04,-0.91,0.5
0.04,-0.93,0.44
0,-0.92,0.43
-0.03,-0.92,0.41
0,-0.92,0.4
-0.01,-0.92,0.42
-0.02,-0.92,0.49
-0.03,-0.93,0.55
-0.05,-0.92,0.53
-0.03,-0.9,0.48
-0.01,-0.9,0.44
0.03,-0.91,0.43
0.05,-0.92,0.44
0.03,-0.92,0.48
0.01,-0.92,0.46
0.01,-0.92,0.44
0,-0.91,0.44
0,-0.91,0.47
0.01,-0.91,0.5
0.02,-0.91,0.5
0.01,-0.91,0.48
0,-0.91,0.46
0.01,-0.92,0.42
0.03,-0.92,0.4
0.03,-0.9,0.41
0.05,-0.91,0.43
0.08,-0.91,0.45
0.08,-0.91,0.46
0.07,-0.9,0.47
0.06,-0.9,0.47
0.04,-0.91,0.45
0.02,-0.92,0.41
0,-0.93,0.36
-0.01,-0.94,0.32
-0.01,-0.94,0.31
-0.03,-0.93,0.33
-0.04,-0.93,0.36
-0.04,-0.92,0.4
-0.02,-0.92,0.44
0,-0.91,0.49
0.02,-0.91,0.48
0.06,-0.9,0.45
0.07,-0.89,0.44
0.05,-0.89,0.47
0.04,-0.89,0.48
0.04,-0.89,0.49
0.04,-0.89,0.52
0.06,-0.89,0.52
0.06,-0.89,0.52
0.05,-0.88,0.52
0.05,-0.88,0.53
0.05,-0.89,0.52
0.07,-0.9,0.5
0.07,-0.89,0.5
0.08,-0.89,0.5
0.08,-0.89,0.51
0.08,-0.89,0.51
0.07,-0.9,0.5
0.06,-0.9,0.49
0.06,-0.9,0.48
0.06,-0.9,0.48
0.06,-0.89,0.48
0.06,-0.89,0.48
0.06,-0.89,0.48
0.06,-0.89,0.47
0.06,-0.9,0.45
0.1,-0.9,0.44
0.1,-0.9,0.45
0.09,-0.89,0.45
0.08,-0.9,0.46
0.08,-0.9,0.47
0.09,-0.9,0.46
0.1,-0.9,0.46
0.1,-0.9,0.46
0.1,-0.89,0.47
0.11,-0.89,0.47
0.11,-0.9,0.46
0.12,-0.9,0.46
0.13,-0.9,0.46
0.13,-0.9,0.45
0.13,-0.9,0.45
0.12,-0.9,0.45
0.11,-0.9,0.46
0.1,-0.9,0.46
0.11,-0.9,0.45
0.12,-0.9,0.45
0.11,-0.9,0.45
0.09,-0.9,0.46
0.09,-0.9,0.46
0.1,-0.91,0.46
0.09,-0.91,0.45
0.09,-0.9,0.46
0.11,-0.9,0.45
0.11,-0.9,0.45
0.12,-0.9,0.46
0.13,-0.9,0.46
0.12,-0.9,0.47
0.12,-0.9,0.47
0.12,-0.9,0.46
0.12,-0.9,0.46
0.13,-0.9,0.46
0.12,-0.9,0.46
0.12,-0.9,0.45
0.13,-0.9,0.45
0.13,-0.9,0.46
0.13,-0.9,0.46
0.13,-0.9,0.46
0.12,-0.9,0.46
0.12,-0.9,0.46
0.12,-0.9,0.46
0.13,-0.9,0.46
0.13,-0.9,0.45
0.13,-0.9,0.45
0.13,-0.9,0.45
0.13,-0.9,0.45
0.13,-0.9,0.46
0.12,-0.9,0.46
0.13,-0.9,0.46
0.13,-0.9,0.46
0.14,-0.9,0.46
0.14,-0.9,0.46
0.13,-0.9,0.46
0.13,-0.9,0.47
0.14,-0.9,0.47
0.15,-0.89,0.46
0.15,-0.89,0.46
0.15,-0.89,0.47
0.15,-0.89,0.49
0.15,-0.89,0.49
0.14,-0.89,0.49
0.14,-0.89,0.49
0.14,-0.89,0.49
0.13,-0.89,0.48
0.12,-0.89,0.47
0.12,-0.89,0.47
0.12,-0.89,0.47
0.12,-0.89,0.47
0.12,-0.89,0.47
0.12,-0.89,0.47
0.11,-0.89,0.47
0.11,-0.89,0.47
0.11,-0.89,0.47
0.12,-0.89,0.47
0.12,-0.89,0.47
0.12,-0.89,0.47
0.12,-0.89,0.47
0.12,-0.89,0.46
0.12,-0.89,0.46
0.12,-0.89,0.47
0.13,-0.89,0.47
0.13,-0.89,0.47
0.13,-0.89,0.47
0.14,-0.89,0.48
0.14,-0.89,0.48
0.13,-0.89,0.49
0.13,-0.89,0.49
0.13,-0.89,0.49
0.13,-0.89,0.48
0.13,-0.89,0.48
0.12,-0.89,0.47
0.12,-0.89,0.46
0.13,-0.89,0.47
0.13,-0.89,0.48
0.14,-0.89,0.5
0.14,-0.89,0.5
0.13,-0.89,0.5
0.12,-0.88,0.49
0.11,-0.88,0.49
0.1,-0.88,0.47
0.1,-0.88,0.47
0.1,-0.88,0.48
0.07,-0.88,0.48
0.08,-0.88,0.54
0.1,-0.9,0.58
0.1,-0.9,0.54
0.13,-0.88,0.51
0.18,-0.87,0.48
0.22,-0.86,0.49
0.21,-0.87,0.51
0.18,-0.89,0.54
0.16,-0.89,0.55
0.14,-0.88,0.55
0.12,-0.88,0.53
0.11,-0.88,0.51
0.09,-0.88,0.49
0.09,-0.89,0.47
0.08,-0.89,0.45
0.08,-0.89,0.43
0.08,-0.9,0.42
0.08,-0.9,0.42
0.09,-0.9,0.42
0.09,-0.9,0.43
0.09,-0.9,0.44
0.1,-0.9,0.44
0.11,-0.9,0.44
0.12,-0.9,0.44
0.13,-0.9,0.44
0.13,-0.9,0.44
0.14,-0.9,0.43
0.15,-0.91,0.43
0.15,-0.91,0.44
0.15,-0.91,0.44
0.15,-0.9,0.43
0.16,-0.91,0.43
0.17,-0.91,0.44
0.17,-0.91,0.44
0.17,-0.91,0.45
0.17,-0.9,0.45
0.16,-0.91,0.45
0.15,-0.9,0.44
0.14,-0.91,0.44
0.14,-0.91,0.44
0.13,-0.9,0.43
0.13,-0.9,0.44
0.12,-0.91,0.44
0.12,-0.91,0.43
0.11,-0.91,0.43
0.12,-0.91,0.44
0.14,-0.9,0.44
0.15,-0.9,0.45
0.15,-0.9,0.45
0.15,-0.9,0.46
0.14,-0.9,0.46
0.14,-0.9,0.46
0.15,-0.9,0.46
0.15,-0.9,0.45
0.13,-0.9,0.45
0.12,-0.9,0.45
0.13,-0.9,0.46
0.13,-0.91,0.46
0.12,-0.91,0.46
0.12,-0.9,0.45
0.15,-0.9,0.43
0.15,-0.9,0.44
0.14,-0.9,0.44
0.13,-0.9,0.43
0.13,-0.9,0.44
0.13,-0.9,0.45
0.13,-0.9,0.45
0.13,-0.9,0.46
0.13,-0.9,0.46
0.13,-0.9,0.46
0.13,-0.9,0.46
0.14,-0.9,0.46
0.13,-0.9,0.46
0.14,-0.9,0.45
0.15,-0.9,0.45
0.14,-0.9,0.45
0.13,-0.9,0.45
0.14,-0.9,0.45
0.13,-0.9,0.45
0.13,-0.9,0.46
0.14,-0.9,0.47
0.15,-0.9,0.45
0.16,-0.9,0.44
0.15,-0.9,0.45
0.13,-0.9,0.45
0.14,-0.9,0.45
0.14,-0.9,0.45
0.14,-0.9,0.45
0.14,-0.9,0.45
0.13,-0.9,0.45
0.13,-0.9,0.45
0.13,-0.9,0.45
0.15,-0.9,0.45
0.16,-0.9,0.44
0.15,-0.9,0.44
0.15,-0.9,0.44
0.16,-0.9,0.43
0.17,-0.91,0.43
0.16,-0.9,0.44
0.15,-0.9,0.44
0.15,-0.9,0.44
0.15,-0.9,0.44
0.15,-0.9,0.44
0.14,-0.9,0.45
0.14,-0.9,0.45
0.15,-0.9,0.45
0.15,-0.9,0.45
0.15,-0.9,0.44
0.14,-0.9,0.44
0.15,-0.9,0.44
0.15,-0.9,0.45
0.15,-0.9,0.45
0.15,-0.9,0.45
0.15,-0.9,0.45
0.15,-0.9,0.45
0.15,-0.9,0.45
0.15,-0.9,0.46
0.15,-0.9,0.46
0.16,-0.9,0.46
0.16,-0.9,0.45
0.15,-0.9,0.45
0.15,-0.9,0.45
0.15,-0.9,0.45
0.14,-0.9,0.45
0.14,-0.9,0.45
0.14,-0.9,0.45
0.14,-0.9,0.45
0.14,-0.9,0.45
0.14,-0.9,0.45
0.15,-0.9,0.45
0.15,-0.9,0.45
0.15,-0.9,0.45
0.15,-0.9,0.45
0.15,-0.9,0.44
0.15,-0.9,0.44
0.15,-0.9,0.44
0.15,-0.9,0.45
0.15,-0.9,0.45
0.15,-0.9,0.45
0.15,-0.9,0.45
0.15,-0.9,0.45
0.15,-0.9,0.45
0.15,-0.9,0.45
0.14,-0.9,0.45
0.14,-0.9,0.45
0.14,-0.9,0.45
0.14,-0.9,0.45
0.14,-0.9,0.45
0.14,-0.9,0.45
0.15,-0.9,0.45
0.15,-0.9,0.45
0.15,-0.9,0.45
0.15,-0.9,0.45
0.15,-0.9,0.45
0.15,-0.9,0.45
0.15,-0.9,0.45
0.15,-0.9,0.45
0.15,-0.9,0.45
0.14,-0.91,0.45
0.14,-0.9,0.45
0.15,-0.9,0.44
0.14,-0.9,0.44
0.14,-0.9,0.44
0.14,-0.91,0.45
0.14,-0.91,0.45
0.14,-0.9,0.44
0.15,-0.9,0.44
0.14,-0.9,0.44
0.15,-0.9,0.45
0.15,-0.9,0.44
0.15,-0.9,0.44
0.15,-0.9,0.44
0.15,-0.9,0.45
0.15,-0.9,0.45
0.15,-0.9,0.45
0.15,-0.9,0.44
0.15,-0.9,0.44
0.15,-0.9,0.45
0.15,-0.9,0.44
0.15,-0.9,0.44
0.15,-0.9,0.45
0.15,-0.9,0.45
0.15,-0.9,0.44
0.15,-0.9,0.44
0.15,-0.9,0.44
0.14,-0.9,0.44
0.14,-0.9,0.44
0.14,-0.9,0.44
0.14,-0.9,0.44
0.14,-0.91,0.44
0.14,-0.91,0.44
0.14,-0.9,0.44
0.15,-0.9,0.44
0.15,-0.9,0.44
0.15,-0.9,0.44
0.15,-0.91,0.45
0.15,-0.9,0.44
0.15,-0.9,0.44
0.15,-0.9,0.44
0.15,-0.9,0.44
0.15,-0.9,0.45
0.15,-0.9,0.45
0.15,-0.91,0.44
0.15,-0.91,0.44
0.15,-0.9,0.44
0.15,-0.9,0.44
0.15,-0.9,0.44
0.15,-0.9,0.44
0.15,-0.9,0.44
0.15,-0.9,0.44
0.15,-0.9,0.44
0.15,-0.9,0.44
0.15,-0.9,0.44
0.15,-0.91,0.44
0.15,-0.9,0.44
0.15,-0.9,0.44
0.14,-0.9,0.44
0.14,-0.9,0.44
0.14,-0.9,0.44
0.15,-0.9,0.45
0.15,-0.9,0.45
0.15,-0.9,0.44
0.15,-0.9,0.45
0.14,-0.9,0.45
0.14,-0.9,0.45
0.15,-0.9,0.45
0.16,-0.91,0.45
0.16,-0.9,0.45
0.15,-0.9,0.45
0.15,-0.9,0.45
0.15,-0.9,0.44
0.15,-0.9,0.44
0.15,-0.9,0.45
0.14,-0.9,0.45
0.14,-0.9,0.45
0.14,-0.9,0.45
0.14,-0.9,0.44
0.14,-0.9,0.44
0.14,-0.9,0.44
0.14,-0.9,0.44
0.15,-0.9,0.45
0.15,-0.9,0.45
0.15,-0.9,0.45
0.15,-0.9,0.45
0.15,-0.9,0.45
0.15,-0.9,0.45
0.16,-0.9,0.45
0.16,-0.9,0.45
0.16,-0.9,0.45
0.16,-0.9,0.45
0.16,-0.9,0.45
0.16,-0.9,0.45
0.15,-0.9,0.45
0.15,-0.9,0.46
0.15,-0.9,0.46
0.16,-0.9,0.46
0.17,-0.9,0.46
0.16,-0.9,0.46
0.16,-0.9,0.45
0.16,-0.9,0.45
0.15,-0.9,0.45
0.15,-0.9,0.45
0.14,-0.9,0.44
0.14,-0.9,0.44
0.14,-0.9,0.45
0.14,-0.9,0.45
0.15,-0.9,0.45
0.15,-0.9,0.45
0.15,-0.9,0.45
0.16,-0.9,0.45
0.16,-0.9,0.44
0.15,-0.9,0.44
0.15,-0.9,0.45
0.15,-0.9,0.44
0.15,-0.9,0.45
0.17,-0.9,0.47
0.19,-0.9,0.47
0.18,-0.9,0.46
0.16,-0.9,0.46
0.15,-0.9,0.45
0.15,-0.9,0.44
0.15,-0.9,0.45
0.15,-0.9,0.45
0.15,-0.9,0.45
0.15,-0.9,0.45
0.15,-0.9,0.45
0.15,-0.9,0.45
0.14,-0.9,0.45
0.14,-0.9,0.46
0.14,-0.9,0.46
0.14,-0.9,0.46
0.15,-0.9,0.46
0.15,-0.9,0.46
0.15,-0.9,0.46
0.15,-0.9,0.45
0.15,-0.89,0.45
0.14,-0.9,0.45
0.15,-0.9,0.45
0.15,-0.9,0.45
0.15,-0.9,0.45
0.15,-0.89,0.45
0.14,-0.9,0.46
0.14,-0.9,0.46
0.14,-0.9,0.46
0.15,-0.9,0.46
0.15,-0.9,0.45
0.15,-0.9,0.45
0.15,-0.9,0.45
0.15,-0.9,0.45
0.15,-0.9,0.45
0.14,-0.9,0.45
0.15,-0.9,0.46
0.15,-0.89,0.47
0.15,-0.89,0.47
0.16,-0.89,0.48
0.16,-0.89,0.48
0.16,-0.89,0.48
0.15,-0.89,0.48
0.15,-0.89,0.49
0.14,-0.89,0.49
0.14,-0.89,0.49
0.14,-0.89,0.49
0.14,-0.89,0.49
0.14,-0.89,0.49
0.14,-0.89,0.49
0.14,-0.88,0.49
0.14,-0.88,0.49
0.14,-0.88,0.48
0.14,-0.88,0.48
0.15,-0.83,0.45
0.16,-0.79,0.43
0.15,-0.84,0.47
0.13,-0.86,0.51
0.12,-0.83,0.53
0.11,-0.83,0.54
0.1,-0.82,0.54
0.1,-0.82,0.54
0.1,-0.82,0.54
0.11,-0.81,0.55
0.11,-0.81,0.55
0.12,-0.81,0.55
0.12,-0.8,0.56
0.13,-0.81,0.57
0.14,-0.81,0.56
0.16,-0.8,0.54
0.18,-0.81,0.54
0.2,-0.82,0.54
0.24,-0.81,0.53
0.26,-0.8,0.5
0.24,-0.78,0.5
0.22,-0.78,0.51
0.19,-0.78,0.51
0.17,-0.78,0.52
0.16,-0.77,0.54
0.16,-0.77,0.54
0.16,-0.75,0.54
0.15,-0.74,0.56
0.15,-0.73,0.56
0.15,-0.71,0.55
0.16,-0.69,0.55
0.16,-0.64,0.53
0.15,-0.57,0.5
0.16,-0.47,0.48
0.18,-0.56,0.47
0.19,-0.62,0.5
0.18,-0.61,0.55
0.15,-0.61,0.58
0.13,-0.65,0.59
0.13,-0.66,0.59
0.15,-0.65,0.59
0.17,-0.64,0.6
0.2,-0.63,0.62
0.23,-0.62,0.64
0.26,-0.62,0.65
0.28,-0.63,0.65
0.29,-0.63,0.65
0.29,-0.63,0.66
0.29,-0.62,0.67
0.32,-0.61,0.71
0.36,-0.59,0.74
0.41,-0.57,0.77
0.44,-0.55,0.79
0.46,-0.53,0.81
0.47,-0.51,0.82
0.49,-0.5,0.83
0.5,-0.48,0.85
0.51,-0.44,0.88
0.57,-0.41,0.92
0.64,-0.38,0.95
0.68,-0.36,0.94
0.68,-0.37,0.93
0.65,-0.37,0.94
0.63,-0.37,0.96
0.64,-0.35,0.98
0.64,-0.35,1
0.62,-0.36,1.01
0.61,-0.36,1.04
0.62,-0.36,1.04
0.63,-0.36,1.02
0.62,-0.34,1.02
0.6,-0.31,1
0.58,-0.29,0.98
0.56,-0.28,0.96
0.54,-0.27,0.95
0.53,-0.25,0.94
0.53,-0.23,0.93
0.53,-0.21,0.91
0.51,-0.06,0.85
0.51,-0.06,0.87
0.51,-0.07,0.86
0.51,-0.06,0.86
0.49,-0.06,0.88
0.48,-0.05,0.87
0.49,-0.04,0.88
0.5,-0.04,0.89
0.49,-0.04,0.89
0.52,-0.03,0.87
0.55,-0.04,0.87
0.53,-0.03,0.88
0.49,-0.02,0.88
0.48,-0.03,0.87
0.49,0,0.89
0.48,0.01,0.89
0.47,0,0.88
0.49,0.02,0.85
0.55,0.03,0.82
0.56,0.03,0.82
0.55,0.04,0.84
0.54,0.05,0.86
0.53,0.06,0.85
0.52,0.08,0.86
0.5,0.09,0.86
0.5,0.09,0.88
0.49,0.1,0.89
0.51,0.12,0.89
0.54,0.14,0.92
0.52,0.13,0.89
0.5,0.13,0.88
0.5,0.09,0.9
0.46,0.04,0.9
0.46,0.03,0.88
0.48,0.01,0.88
0.47,0,0.88
0.47,-0.01,0.88
0.48,-0.02,0.88
0.5,-0.02,0.87
0.52,-0.02,0.86
0.59,0.11,0.84
0.6,0.06,0.88
0.56,-0.1,0.88
0.61,-0.04,0.82
0.59,-0.04,0.83
0.58,-0.02,0.84
0.57,-0.02,0.84
0.55,-0.02,0.85
0.55,-0.02,0.85
0.54,-0.01,0.85
0.53,-0.01,0.85
0.52,-0.01,0.86
0.51,-0.01,0.87
0.51,0,0.88
0.51,0,0.88
0.5,0,0.87
0.5,0,0.87
0.51,-0.01,0.86
0.54,-0.01,0.85
0.54,-0.01,0.86
0.53,0,0.86
0.52,0,0.87
0.52,0.01,0.87
0.51,0,0.87
0.52,0,0.86
0.52,-0.01,0.86
0.53,-0.01,0.86
0.53,0,0.86
0.52,-0.01,0.86
0.53,0,0.86
0.52,-0.01,0.86
0.54,-0.01,0.86
0.55,-0.01,0.86
0.55,-0.01,0.85
0.55,-0.01,0.85
0.54,-0.01,0.85
0.53,-0.01,0.86
0.52,-0.01,0.86
0.53,0,0.86
0.53,0,0.86
0.54,0,0.86
0.54,0,0.86
0.55,0,0.85
0.56,-0.01,0.85
0.55,-0.01,0.85
0.54,-0.01,0.86
0.53,-0.01,0.86
0.52,-0.01,0.86
0.52,0,0.86
0.53,-0.01,0.86
0.52,-0.01,0.86
0.52,-0.01,0.86
0.52,0,0.86
0.52,0,0.86
0.53,0,0.86
0.53,0,0.86
0.53,-0.01,0.86
0.53,-0.01,0.86
0.52,-0.01,0.86
0.52,-0.01,0.87
0.51,-0.01,0.87
0.52,-0.01,0.87
0.52,-0.01,0.87
0.52,-0.01,0.86
0.52,-0.01,0.86
0.52,-0.01,0.86
0.52,-0.01,0.87
0.52,-0.01,0.87
0.52,-0.01,0.87
0.52,-0.01,0.86
0.53,-0.01,0.85
0.55,-0.01,0.85
0.55,-0.01,0.85
0.54,-0.01,0.86
0.52,-0.01,0.86
0.52,-0.01,0.86
0.51,-0.01,0.86
0.51,0,0.87
0.51,-0.01,0.87
0.51,-0.01,0.87
0.51,-0.01,0.88
0.51,-0.01,0.88
0.5,-0.01,0.88
0.52,-0.01,0.88
0.52,-0.01,0.87
0.52,-0.01,0.86
0.52,-0.01,0.86
0.52,-0.01,0.86
0.52,-0.01,0.87
0.53,-0.01,0.86
0.54,-0.01,0.86
0.54,-0.01,0.85
0.54,-0.01,0.85
0.55,-0.01,0.85
0.55,-0.02,0.85
0.55,-0.02,0.85
0.55,-0.02,0.84
0.55,-0.01,0.85
0.55,-0.02,0.85
0.55,-0.02,0.85
0.55,-0.02,0.85
0.55,-0.02,0.85
0.54,-0.02,0.85
0.54,-0.02,0.85
0.54,-0.02,0.86
0.54,-0.02,0.85
0.54,-0.02,0.85
0.54,-0.02,0.85
0.55,-0.02,0.86
0.54,-0.02,0.86
0.55,-0.02,0.85
0.54,-0.02,0.85
0.55,-0.02,0.85
0.55,-0.02,0.85
0.55,-0.02,0.85
0.55,-0.02,0.85
0.55,-0.02,0.85
0.55,-0.02,0.85
0.55,-0.02,0.85
0.55,-0.02,0.85
0.55,-0.01,0.85
0.54,-0.01,0.85
0.54,-0.02,0.85
0.54,-0.02,0.85
0.55,-0.02,0.85
0.55,-0.01,0.85
0.55,-0.01,0.85
0.55,-0.02,0.85
0.55,-0.01,0.85
0.55,-0.01,0.85
0.55,-0.02,0.85
0.55,-0.02,0.84
0.55,-0.02,0.84
0.55,-0.01,0.85
0.55,-0.02,0.85
0.55,-0.02,0.85
0.55,-0.02,0.85
0.55,-0.02,0.85
0.54,-0.02,0.85
0.54,-0.02,0.85
0.54,-0.02,0.85
0.55,-0.02,0.85
0.55,-0.02,0.85
0.54,-0.02,0.85
0.55,-0.02,0.85
0.55,-0.02,0.85
0.55,-0.02,0.85
0.55,-0.02,0.85
0.55,-0.02,0.85
0.55,-0.02,0.85
0.55,-0.02,0.85
0.55,-0.01,0.85
0.55,-0.01,0.85
0.55,-0.01,0.85
0.55,-0.01,0.85
0.55,-0.02,0.85
0.55,-0.02,0.85
0.55,-0.01,0.85
0.55,-0.02,0.85
0.55,-0.02,0.85
0.55,-0.02,0.85
0.54,-0.02,0.85
0.55,-0.02,0.85
0.54,-0.02,0.85
0.54,-0.02,0.85
0.55,-0.02,0.85
0.55,-0.02,0.85
0.55,-0.01,0.85
0.55,-0.02,0.85
0.55,-0.02,0.85
0.55,-0.01,0.85
0.55,-0.02,0.85
0.55,-0.02,0.85
0.55,-0.02,0.85
0.55,-0.01,0.84
0.55,-0.01,0.85
0.55,-0.01,0.85
0.55,-0.01,0.85
0.55,-0.02,0.85
0.55,-0.01,0.85
0.54,-0.01,0.85
0.54,-0.02,0.85
0.54,-0.02,0.85
0.54,-0.02,0.85
0.54,-0.02,0.85
0.55,-0.02,0.85
0.55,-0.02,0.85
0.54,-0.02,0.85
0.54,-0.02,0.85
0.54,-0.02,0.85
0.55,-0.01,0.85
0.55,-0.01,0.85
0.55,-0.01,0.85
0.55,-0.01,0.85
0.55,-0.01,0.85
0.55,-0.01,0.85
0.55,-0.01,0.85
0.55,-0.01,0.85
0.55,-0.01,0.85
0.55,-0.01,0.85
0.55,-0.01,0.85
0.55,-0.01,0.85
0.55,-0.01,0.85
0.55,-0.02,0.85
0.55,-0.02,0.85
0.54,-0.02,0.85
0.54,-0.02,0.86
0.54,-0.01,0.86
0.54,-0.02,0.85
0.54,-0.02,0.85
0.54,-0.02,0.85
0.55,-0.02,0.85
0.55,-0.02,0.85
0.55,-0.02,0.85
0.55,-0.02,0.85
0.55,-0.02,0.85
0.55,-0.02,0.85
0.55,-0.02,0.85
0.54,-0.02,0.85
0.54,-0.02,0.85
0.54,-0.01,0.85
0.54,-0.01,0.85
0.55,-0.01,0.85
0.55,-0.01,0.85
0.55,-0.02,0.85
0.55,-0.02,0.85
0.54,-0.02,0.85
0.54,-0.02,0.85
0.54,-0.02,0.85
0.54,-0.02,0.85
0.55,-0.02,0.85
0.56,-0.02,0.85
0.56,-0.02,0.85
0.56,-0.02,0.84
0.57,-0.02,0.84
0.57,-0.02,0.84
0.56,-0.02,0.84
0.56,-0.02,0.84
0.56,-0.02,0.84
0.55,-0.02,0.85
0.55,-0.02,0.85
0.55,-0.02,0.84
0.56,-0.02,0.84
0.56,-0.01,0.84
0.56,-0.02,0.84
0.56,-0.02,0.84
0.56,-0.02,0.84
0.56,-0.02,0.84
0.56,-0.03,0.84
0.56,-0.02,0.84
0.55,-0.02,0.85
0.54,-0.02,0.85
0.54,-0.02,0.85
0.54,-0.02,0.85
0.55,-0.02,0.85
0.55,-0.02,0.85
0.55,-0.03,0.84
0.55,-0.02,0.85
0.54,-0.02,0.86
0.55,-0.02,0.85
0.56,-0.03,0.84
0.57,-0.03,0.83
0.56,-0.02,0.84
0.56,-0.02,0.84
0.55,-0.02,0.85
0.53,-0.02,0.85
0.53,-0.02,0.85
0.53,-0.01,0.86
0.54,-0.01,0.86
0.55,-0.01,0.86
0.55,-0.01,0.85
0.55,-0.01,0.84
0.54,-0.01,0.85
0.54,-0.01,0.85
0.53,-0.01,0.86
0.53,-0.02,0.85
0.54,-0.03,0.84
0.57,-0.03,0.84
0.57,-0.02,0.85
0.55,-0.02,0.85
0.54,-0.02,0.85
0.54,-0.02,0.85
0.55,-0.02,0.85
0.55,-0.02,0.85
0.54,-0.01,0.85
0.54,-0.01,0.86
0.53,-0.01,0.86
0.53,0,0.86
0.53,0,0.86
0.53,0,0.86
0.54,-0.01,0.85
0.56,-0.01,0.84
0.56,-0.01,0.84
0.56,-0.02,0.84
0.55,-0.02,0.85
0.54,-0.01,0.85
0.54,-0.02,0.85
0.53,-0.01,0.86
0.53,-0.02,0.86
0.54,-0.02,0.86
0.54,-0.01,0.85
0.54,-0.01,0.85
0.54,-0.02,0.85
0.54,-0.01,0.86
0.53,-0.01,0.86
0.52,-0.02,0.86
0.52,-0.01,0.86
0.53,-0.01,0.87
0.53,-0.01,0.86
0.53,-0.01,0.86
0.53,-0.01,0.86
0.54,-0.01,0.85
0.54,-0.01,0.85
0.54,-0.01,0.86
0.54,-0.01,0.86
0.54,-0.01,0.86
0.54,-0.01,0.86
0.54,-0.01,0.86
0.53,-0.01,0.86
0.53,-0.01,0.86
0.53,-0.01,0.86
0.53,-0.01,0.86
0.53,-0.01,0.86
0.54,-0.01,0.86
0.54,-0.01,0.86
0.54,0,0.86
0.54,0,0.86
0.53,-0.01,0.86
0.52,-0.01,0.85
0.52,-0.01,0.86
0.51,-0.01,0.86
0.51,-0.01,0.87
0.52,-0.01,0.87
0.52,-0.01,0.87
0.52,-0.01,0.86
0.53,-0.01,0.86
0.54,-0.01,0.86
0.54,-0.01,0.86
0.54,-0.01,0.86
0.54,-0.01,0.86
0.53,-0.01,0.86
0.52,-0.01,0.86
0.53,-0.01,0.86
0.52,-0.01,0.86
0.53,-0.01,0.87
0.54,-0.01,0.87
0.54,-0.01,0.86
0.53,-0.01,0.86
0.53,-0.01,0.86
0.53,0,0.86
0.52,0,0.86
0.53,-0.01,0.86
0.54,-0.01,0.86
0.54,-0.01,0.85
0.54,-0.01,0.85
0.53,-0.01,0.86
0.53,-0.01,0.86
0.52,-0.01,0.86
0.52,-0.01,0.86
0.53,-0.01,0.86
0.53,-0.01,0.86
0.53,-0.01,0.86
0.53,-0.01,0.86
0.54,-0.01,0.86
0.54,-0.01,0.86
