Acc_x,Acc_y,Acc_z
0.55,-0.15,0.78
0.55,-0.18,0.8
0.57,-0.19,0.8
0.58,-0.21,0.77
0.56,-0.23,0.75
0.52,-0.25,0.74
0.5,-0.27,0.72
0.52,-0.28,0.69
0.53,-0.3,0.67
0.53,-0.3,0.67
0.53,-0.31,0.67
0.55,-0.31,0.67
0.59,-0.32,0.66
0.64,-0.33,0.66
0.69,-0.32,0.67
0.69,-0.3,0.68
0.65,-0.28,0.69
0.65,-0.28,0.69
0.71,-0.27,0.68
0.76,-0.26,0.68
0.76,-0.24,0.7
0.74,-0.23,0.73
0.73,-0.22,0.77
0.72,-0.22,0.77
0.7,-0.23,0.75
0.69,-0.24,0.75
0.68,-0.25,0.76
0.66,-0.24,0.78
0.66,-0.26,0.79
0.65,-0.27,0.79
0.64,-0.29,0.77
0.62,-0.3,0.77
0.61,-0.3,0.8
0.61,-0.29,0.83
0.62,-0.28,0.86
0.63,-0.27,0.89
0.65,-0.27,0.91
0.67,-0.27,0.92
0.66,-0.27,0.92
0.64,-0.26,0.89
0.63,-0.25,0.88
0.66,-0.23,0.87
0.7,-0.2,0.87
0.71,-0.18,0.88
0.7,-0.18,0.88
0.66,-0.18,0.85
0.62,-0.18,0.82
0.62,-0.17,0.79
0.67,-0.17,0.78
0.72,-0.15,0.77
0.7,-0.14,0.76
0.66,-0.14,0.78
0.65,-0.14,0.79
0.61,-0.14,0.76
0.52,-0.15,0.73
0.46,-0.17,0.7
0.41,-0.17,0.68
0.42,-0.16,0.67
0.46,-0.17,0.68
0.49,-0.16,0.7
0.5,-0.16,0.73
0.56,-0.14,0.74
0.67,-0.12,0.73
0.7,-0.12,0.74
0.68,-0.12,0.75
0.67,-0.11,0.75
0.67,-0.09,0.74
0.67,-0.08,0.73
0.69,-0.07,0.71
0.72,-0.04,0.71
0.75,-0.01,0.68
0.69,-0.01,0.69
0.61,0.01,0.82
0.58,0.04,0.98
0.58,0.06,1.08
0.62,0.03,1.06
0.62,0.01,1.01
0.58,0.03,0.97
0.55,0.03,0.9
0.53,0.05,0.76
0.56,0.12,0.72
0.58,0.16,0.7
0.69,0.19,0.7
0.76,0.21,0.69
0.72,0.24,0.79
0.68,0.29,0.99
0.7,0.36,1.14
0.75,0.42,1.17
0.82,0.44,1.14
0.85,0.44,1.08
0.78,0.47,0.98
0.74,0.53,0.83
0.67,0.53,0.72
0.54,0.54,0.69
0.5,0.63,0.71
0.46,0.71,0.78
0.45,0.75,0.8
0.53,0.74,0.8
0.58,0.76,0.86
0.55,0.79,0.87
0.42,0.82,0.78
0.36,0.83,0.67
0.4,0.81,0.59
0.45,0.78,0.5
0.5,0.76,0.39
0.59,0.78,0.3
0.62,0.61,0.32
0.62,0.62,0.33
0.57,0.76,0.38
0.5,0.69,0.42
0.5,0.59,0.41
0.51,0.58,0.4
0.49,0.6,0.4
0.46,0.61,0.4
0.46,0.62,0.4
0.48,0.63,0.4
0.5,0.64,0.42
0.52,0.64,0.41
0.53,0.64,0.36
0.54,0.63,0.34
0.56,0.61,0.34
0.57,0.61,0.33
0.57,0.6,0.3
0.54,0.59,0.29
0.48,0.59,0.3
0.48,0.58,0.31
0.56,0.58,0.28
0.62,0.56,0.27
0.65,0.55,0.28
0.69,0.56,0.28
0.74,0.56,0.26
0.76,0.57,0.3
0.69,0.57,0.33
0.69,0.56,0.31
0.7,0.55,0.28
0.76,0.56,0.23
0.82,0.55,0.22
0.84,0.53,0.25
0.84,0.52,0.29
0.83,0.5,0.31
0.81,0.48,0.33
0.77,0.46,0.33
0.75,0.45,0.33
0.76,0.44,0.3
0.78,0.44,0.26
0.82,0.44,0.24
0.84,0.43,0.22
0.87,0.42,0.19
0.89,0.42,0.17
0.89,0.41,0.19
0.86,0.39,0.23
0.85,0.39,0.25
0.87,0.39,0.23
0.88,0.38,0.2
0.87,0.36,0.16
0.86,0.33,0.13
0.86,0.32,0.1
0.9,0.33,0.09
0.9,0.31,0.09
0.94,0.31,0.08
0.95,0.31,0.05
0.94,0.3,0.03
0.94,0.29,0.01
0.94,0.27,0
0.96,0.27,-0.02
0.99,0.26,-0.06
1,0.25,-0.07
0.99,0.23,-0.06
0.99,0.22,-0.06
0.97,0.2,-0.06
0.94,0.19,-0.06
0.95,0.19,-0.07
0.95,0.18,-0.08
0.95,0.17,-0.1
0.94,0.16,-0.1
0.92,0.15,-0.12
0.93,0.15,-0.13
0.95,0.14,-0.14
0.95,0.14,-0.13
0.95,0.13,-0.12
0.97,0.12,-0.12
0.98,0.12,-0.12
0.95,0.11,-0.11
0.93,0.1,-0.1
0.94,0.09,-0.1
0.99,0.1,-0.13
1,0.1,-0.14
0.98,0.09,-0.14
0.96,0.09,-0.16
0.97,0.08,-0.18
0.98,0.07,-0.17
0.97,0.09,-0.15
0.97,0.11,-0.15
0.99,0.13,-0.16
1.01,0.16,-0.19
1.04,0.19,-0.22
1.06,0.22,-0.26
1.07,0.23,-0.27
1.07,0.22,-0.23
1.07,0.2,-0.16
1.04,0.16,-0.12
0.96,0.13,-0.1
0.88,0.11,-0.09
0.88,0.11,-0.11
0.91,0.12,-0.15
0.93,0.14,-0.16
0.95,0.17,-0.14
0.98,0.19,-0.13
1.02,0.22,-0.13
1.06,0.25,-0.11
1.08,0.28,-0.09
1.08,0.28,-0.04
1.1,0.27,-0.02
1.11,0.26,-0.04
1.05,0.24,-0.06
1.01,0.22,-0.05
1.05,0.2,-0.07
1.09,0.18,-0.11
1.11,0.17,-0.12
1.13,0.17,-0.12
1.12,0.16,-0.12
1.09,0.17,-0.12
1.07,0.17,-0.12
1.05,0.17,-0.12
1.04,0.16,-0.13
1.02,0.15,-0.12
1,0.15,-0.11
0.98,0.15,-0.1
0.98,0.15,-0.1
0.99,0.14,-0.11
0.98,0.12,-0.12
0.95,0.12,-0.14
0.94,0.12,-0.15
0.91,0.12,-0.14
0.87,0.12,-0.1
0.87,0.13,-0.11
0.88,0.13,-0.15
0.92,0.13,-0.15
0.94,0.13,-0.11
0.95,0.15,-0.09
0.96,0.16,-0.09
0.98,0.17,-0.1
1,0.18,-0.11
1.01,0.19,-0.12
1.02,0.18,-0.12
1.04,0.17,-0.13
1.03,0.16,-0.13
1.02,0.15,-0.13
1.03,0.13,-0.14
1.05,0.1,-0.16
1.07,0.09,-0.17
1.08,0.08,-0.17
1.09,0.07,-0.15
1.1,0.07,-0.13
1.12,0.07,-0.12
1.12,0.06,-0.15
1.13,0.05,-0.18
1.14,0.04,-0.21
1.16,0.03,-0.25
1.16,0.02,-0.24
1.14,0,-0.21
1.11,-0.01,-0.19
1.11,0,-0.21
1.13,-0.01,-0.23
1.13,-0.01,-0.28
1.16,-0.01,-0.29
1.13,-0.02,-0.27
1.08,-0.02,-0.26
1.08,-0.01,-0.26
1.09,-0.02,-0.27
1.11,-0.03,-0.28
1.1,-0.04,-0.28
1.06,-0.05,-0.28
1.05,-0.05,-0.28
1.07,-0.06,-0.27
1.09,-0.07,-0.25
1.07,-0.09,-0.23
1.03,-0.1,-0.22
0.97,-0.1,-0.22
0.93,-0.11,-0.25
0.93,-0.14,-0.28
0.93,-0.17,-0.28
0.94,-0.18,-0.29
0.97,-0.22,-0.27
0.99,-0.25,-0.24
1.04,-0.25,-0.22
1.09,-0.25,-0.21
1.1,-0.27,-0.22
1.14,-0.31,-0.2
1.16,-0.33,-0.2
1.22,-0.32,-0.22
1.28,-0.29,-0.27
1.31,-0.25,-0.29
1.32,-0.24,-0.29
1.32,-0.25,-0.25
1.3,-0.31,-0.2
1.29,-0.4,-0.17
1.34,-0.47,-0.14
1.39,-0.53,-0.11
1.42,-0.56,-0.09
1.45,-0.57,-0.08
1.44,-0.56,-0.09
1.41,-0.55,-0.1
1.37,-0.54,-0.07
1.32,-0.51,-0.02
1.27,-0.49,0.02
1.24,-0.47,0.05
1.24,-0.42,0.1
1.26,-0.36,0.12
1.26,-0.32,0.16
1.24,-0.3,0.19
1.2,-0.3,0.2
1.18,-0.31,0.23
1.17,-0.32,0.27
1.11,-0.37,0.32
1.01,-0.4,0.29
0.98,-0.45,0.29
0.93,-0.48,0.32
0.83,-0.51,0.35
0.76,-0.53,0.35
0.72,-0.56,0.34
0.67,-0.57,0.35
0.62,-0.58,0.35
0.57,-0.61,0.36
0.56,-0.63,0.38
0.5,-0.62,0.39
0.45,-0.64,0.39
0.44,-0.66,0.38
0.38,-0.65,0.35
0.34,-0.66,0.36
0.35,-0.65,0.39
0.35,-0.59,0.45
0.34,-0.59,0.45
0.32,-0.61,0.42
0.3,-0.58,0.44
0.28,-0.56,0.43
0.27,-0.53,0.44
0.25,-0.49,0.44
0.22,-0.48,0.44
0.17,-0.51,0.41
0.11,-0.56,0.37
0.05,-0.54,0.38
0.02,-0.53,0.42
0,-0.52,0.42
-0.05,-0.57,0.39
0.35,-0.49,0.36
0.14,-0.3,0.36
-0.29,-0.36,0.42
-0.09,-0.56,0.41
-0.16,-0.57,0.4
-0.28,-0.44,0.48
-0.31,-0.42,0.49
-0.32,-0.43,0.48
-0.35,-0.39,0.49
-0.38,-0.36,0.51
-0.41,-0.35,0.52
-0.46,-0.34,0.53
-0.5,-0.3,0.55
-0.55,-0.28,0.57
-0.6,-0.28,0.58
-0.65,-0.28,0.61
-0.7,-0.28,0.64
-0.75,-0.29,0.62
-0.77,-0.29,0.61
-0.76,-0.28,0.61
-0.74,-0.28,0.62
-0.72,-0.22,0.68
-0.72,-0.22,0.66
-0.7,-0.18,0.66
-0.69,-0.15,0.66
-0.71,-0.16,0.64
-0.72,-0.16,0.63
-0.71,-0.16,0.65
-0.7,-0.16,0.67
-0.72,-0.16,0.67
-0.72,-0.16,0.65
-0.69,-0.16,0.64
-0.66,-0.16,0.65
-0.64,-0.16,0.66
-0.63,-0.18,0.67
-0.61,-0.2,0.67
-0.6,-0.21,0.67
-0.58,-0.23,0.68
-0.55,-0.25,0.69
-0.53,-0.26,0.69
-0.51,-0.26,0.68
-0.49,-0.26,0.67
-0.47,-0.25,0.65
-0.45,-0.24,0.64
-0.41,-0.25,0.65
-0.37,-0.28,0.67
-0.34,-0.31,0.67
-0.3,-0.34,0.67
-0.24,-0.34,0.66
-0.21,-0.31,0.65
-0.19,-0.29,0.63
-0.17,-0.28,0.63
-0.15,-0.28,0.64
-0.13,-0.3,0.63
-0.1,-0.32,0.61
-0.05,-0.33,0.59
-0.01,-0.32,0.58
0.05,-0.3,0.57
0.1,-0.26,0.56
0.16,-0.25,0.55
0.22,-0.28,0.55
0.27,-0.3,0.56
0.32,-0.33,0.56
0.39,-0.34,0.55
0.45,-0.31,0.54
0.5,-0.26,0.53
0.52,-0.22,0.51
0.53,-0.22,0.49
0.52,-0.24,0.48
0.56,-0.27,0.48
0.64,-0.28,0.48
0.7,-0.24,0.47
0.74,-0.16,0.48
0.79,0.01,0.46
0.86,0.05,0.44
0.88,0.04,0.43
0.89,0.03,0.44
0.91,0.03,0.45
0.92,0.03,0.45
0.95,0.04,0.43
0.99,0.09,0.42
1.03,0.13,0.42
1.07,0.17,0.42
1.1,0.18,0.41
1.11,0.14,0.39
1.14,0.09,0.37
1.17,0.09,0.34
1.19,0.13,0.31
1.21,0.18,0.3
1.24,0.25,0.28
1.26,0.3,0.27
1.29,0.33,0.29
1.37,0.34,0.32
1.45,0.33,0.32
1.47,0.34,0.32
1.45,0.34,0.32
1.41,0.35,0.32
1.37,0.38,0.32
1.33,0.44,0.29
1.28,0.54,0.24
1.27,0.53,0.23
1.33,0.52,0.22
1.37,0.52,0.2
1.38,0.54,0.18
1.37,0.55,0.17
1.36,0.56,0.16
1.32,0.57,0.12
1.27,0.58,0.09
1.25,0.59,0.07
1.25,0.59,0.04
1.24,0.56,0.04
1.25,0.55,0.06
1.25,0.55,0.07
1.24,0.55,0.06
1.22,0.55,0.05
1.19,0.55,0.04
1.17,0.56,0.02
1.17,0.57,0.02
1.16,0.58,0.03
1.16,0.59,0.05
1.17,0.6,0.06
1.15,0.59,0.07
1.13,0.58,0.09
1.12,0.59,0.09
1.1,0.6,0.08
1.06,0.63,0.06
1.04,0.78,0.07
1.02,0.86,0.07
0.98,0.87,0.07
0.95,0.84,0.06
0.94,0.8,0.05
0.95,0.75,0.06
0.99,0.72,0.07
1,0.7,0.09
1,0.66,0.1
1,0.59,0.12
1.01,0.54,0.13
0.99,0.52,0.15
0.94,0.54,0.18
0.9,0.57,0.19
0.86,0.59,0.19
0.83,0.61,0.19
0.82,0.67,0.22
0.81,0.69,0.25
0.77,0.67,0.24
0.73,0.72,0.24
0.69,0.74,0.24
0.66,0.73,0.24
0.63,0.73,0.23
0.61,0.74,0.21
0.6,0.75,0.19
0.61,0.75,0.23
0.66,0.73,0.26
0.67,0.71,0.28
0.68,0.67,0.29
0.69,0.64,0.31
0.68,0.62,0.34
0.68,0.6,0.35
0.68,0.59,0.34
0.68,0.58,0.33
0.67,0.58,0.33
0.66,0.59,0.34
0.64,0.61,0.35
0.63,0.64,0.35
0.61,0.66,0.34
0.6,0.67,0.34
0.57,0.68,0.33
0.54,0.69,0.32
0.52,0.7,0.3
0.51,0.7,0.28
0.51,0.7,0.27
0.51,0.7,0.26
0.52,0.71,0.26
0.54,0.72,0.25
0.55,0.72,0.23
0.56,0.72,0.22
0.57,0.71,0.22
0.58,0.72,0.2
0.55,0.72,0.21
0.54,0.73,0.2
0.53,0.74,0.2
0.52,0.75,0.2
0.51,0.76,0.19
0.51,0.77,0.19
0.51,0.78,0.2
0.5,0.79,0.2
0.5,0.8,0.2
0.49,0.8,0.21
0.5,0.8,0.21
0.51,0.81,0.2
0.52,0.8,0.2
0.53,0.8,0.19
0.53,0.81,0.2
0.54,0.81,0.2
0.53,0.81,0.2
0.5,0.81,0.22
0.49,0.82,0.23
0.51,0.84,0.22
0.51,0.87,0.2
0.52,0.9,0.18
0.52,0.9,0.18
0.52,0.9,0.16
0.54,0.89,0.13
0.54,0.87,0.13
0.52,0.81,0.15
0.5,0.78,0.15
0.5,0.75,0.14
0.49,0.73,0.14
0.47,0.73,0.14
0.46,0.75,0.15
0.45,0.78,0.13
0.44,0.81,0.1
0.43,0.83,0.1
0.42,0.85,0.09
0.41,0.87,0.1
0.39,0.91,0.11
0.38,0.93,0.1
0.36,0.94,0.09
0.34,0.94,0.07
0.36,0.95,0.05
0.39,0.98,0.03
0.42,1,0.01
0.44,1.03,0
0.44,1.05,-0.01
0.42,1.06,-0.02
0.39,1.09,-0.03
0.36,1.11,-0.03
0.33,1.11,-0.01
0.31,1.1,0.01
0.28,1.09,0.1
0.3,1.01,0.03
0.32,1,0.04
0.33,0.99,0.07
0.34,0.98,0.08
0.35,0.97,0.08
0.36,0.96,0.08
0.35,0.95,0.08
0.34,0.95,0.07
0.33,0.95,0.06
0.32,0.95,0.06
0.32,0.94,0.05
0.31,0.94,0.04
0.3,0.93,0.03
0.29,0.93,0.03
0.27,0.93,0.03
0.26,0.93,0.03
0.27,0.93,0.04
0.28,0.93,0.04
0.28,0.93,0.05
0.29,0.93,0.05
0.29,0.93,0.04
0.3,0.93,0.03
0.31,0.92,0.02
0.31,0.92,0.02
0.32,0.91,0.02
0.33,0.9,0.01
0.35,0.91,0
0.34,0.92,0
0.33,0.93,0
0.33,0.94,0
0.33,0.97,0
0.33,0.99,0
0.34,1.02,0
0.35,1.05,0
0.34,1.04,0
0.33,1.01,0.02
0.32,0.99,0.03
0.33,0.96,0.02
0.34,0.95,0.03
0.34,0.94,0.05
0.35,0.93,0.05
0.36,0.91,0.06
0.36,0.91,0.08
0.38,0.92,0.1
0.4,0.92,0.11
0.4,0.93,0.12
0.38,0.93,0.14
0.35,0.93,0.15
0.32,0.94,0.15
0.29,0.95,0.16
0.25,0.95,0.18
0.23,0.96,0.21
0.22,0.95,0.22
0.2,0.95,0.22
0.18,0.95,0.23
0.16,0.95,0.24
0.16,0.95,0.24
0.16,0.95,0.22
0.17,0.95,0.22
0.17,0.95,0.21
0.16,0.95,0.18
0.15,0.96,0.15
0.16,0.98,0.12
0.17,0.99,0.09
0.18,1,0.07
0.21,1.03,0.08
0.24,1.02,0.12
0.26,1.01,0.12
0.26,1.01,0.11
0.26,1,0.12
0.25,0.99,0.11
0.26,0.97,0.12
0.27,0.95,0.13
0.28,0.94,0.13
0.29,0.92,0.14
0.28,0.92,0.14
0.29,0.91,0.15
0.28,0.9,0.18
0.25,0.92,0.18
0.27,0.93,0.18
0.26,0.93,0.18
0.25,0.93,0.19
0.24,0.93,0.19
0.24,0.94,0.19
0.24,0.94,0.19
0.23,0.93,0.19
0.23,0.93,0.2
0.22,0.92,0.21
0.21,0.92,0.21
0.19,0.92,0.2
0.14,0.92,0.18
0.11,0.93,0.16
0.17,0.95,0.15
0.24,0.94,0.14
0.25,0.94,0.15
0.24,0.93,0.17
0.24,0.93,0.19
0.24,0.92,0.21
0.19,0.91,0.24
0.16,0.9,0.26
0.16,0.9,0.27
0.14,0.91,0.28
0.14,0.92,0.26
0.19,0.92,0.27
0.37,0.92,0.34
0.43,0.92,0.42
0.45,0.93,0.49
0.45,0.94,0.55
0.44,0.94,0.55
0.46,0.94,0.52
0.5,0.94,0.5
0.59,0.93,0.51
0.69,0.92,0.54
0.76,0.92,0.57
0.81,0.92,0.58
0.83,0.93,0.58
0.84,0.94,0.6
0.85,0.95,0.6
0.87,0.97,0.59
0.87,1,0.56
0.86,1.02,0.52
0.86,1.02,0.49
0.87,1.02,0.47
0.88,1.02,0.47
0.92,1.02,0.45
0.99,1.02,0.43
1.02,1.03,0.42
0.98,1.04,0.43
0.96,1.03,0.42
0.97,1.02,0.41
1,1.02,0.38
1.01,1,0.36
1.03,0.98,0.35
1.06,0.98,0.34
1.09,0.99,0.34
1.07,1,0.37
1.04,0.99,0.4
1.02,0.96,0.4
1.03,0.93,0.38
1.02,0.9,0.38
1.01,0.89,0.4
1.02,0.88,0.41
1.03,0.86,0.4
1.06,0.84,0.38
1.08,0.81,0.38
1.06,0.78,0.39
1.05,0.75,0.39
1.05,0.72,0.4
1.04,0.68,0.41
1.02,0.65,0.43
1.01,0.64,0.43
1,0.63,0.42
0.98,0.59,0.4
0.98,0.55,0.39
0.97,0.5,0.4
0.97,0.46,0.42
0.98,0.39,0.44
0.97,0.36,0.45
0.93,0.34,0.44
0.91,0.32,0.44
0.92,0.29,0.43
0.92,0.25,0.43
0.89,0.21,0.43
0.85,0.19,0.45
0.82,0.15,0.48
0.79,0.11,0.48
0.76,0.11,0.48
0.72,0.09,0.47
0.69,0.05,0.46
0.66,0.02,0.47
0.64,0.02,0.5
0.63,-0.03,0.49
0.61,-0.1,0.45
0.59,-0.12,0.47
0.58,-0.08,0.5
0.54,-0.06,0.5
0.51,-0.14,0.48
0.49,-0.2,0.48
0.46,-0.19,0.5
0.41,-0.18,0.52
0.37,-0.24,0.49
0.31,-0.24,0.47
0.27,-0.24,0.52
0.19,-0.29,0.5
0.22,-0.42,0.48
0.17,-0.36,0.51
0.08,-0.23,0.54
0.05,-0.3,0.53
0.03,-0.33,0.51
-0.01,-0.33,0.51
-0.03,-0.35,0.53
-0.03,-0.35,0.53
-0.05,-0.36,0.52
-0.07,-0.39,0.51
-0.08,-0.38,0.52
-0.11,-0.34,0.55
-0.12,-0.35,0.56
-0.13,-0.36,0.57
-0.14,-0.36,0.58
-0.14,-0.35,0.6
-0.15,-0.35,0.61
-0.18,-0.35,0.61
-0.22,-0.35,0.63
-0.24,-0.34,0.65
-0.27,-0.33,0.67
-0.28,-0.34,0.68
-0.3,-0.34,0.7
-0.32,-0.32,0.72
-0.34,-0.31,0.76
-0.38,-0.31,0.77
-0.41,-0.29,0.77
-0.44,-0.28,0.78
-0.45,-0.27,0.79
-0.46,-0.24,0.81
-0.47,-0.25,0.81
-0.49,-0.27,0.82
-0.53,-0.3,0.8
-0.55,-0.29,0.8
-0.52,-0.41,0.8
-0.57,-0.26,0.82
-0.67,-0.07,0.93
-0.61,-0.22,0.92
-0.57,-0.22,0.87
-0.61,-0.2,0.9
-0.62,-0.2,0.92
-0.63,-0.19,0.94
-0.66,-0.18,0.94
-0.68,-0.19,0.93
-0.69,-0.19,0.94
-0.69,-0.19,0.95
-0.7,-0.17,0.94
-0.7,-0.17,0.94
-0.7,-0.16,0.92
-0.69,-0.16,0.92
-0.65,-0.17,0.92
-0.65,-0.17,0.92
-0.63,-0.18,0.91
-0.61,-0.17,0.9
-0.6,-0.17,0.89
-0.58,-0.17,0.88
-0.57,-0.17,0.88
-0.57,-0.17,0.87
-0.55,-0.17,0.87
-0.53,-0.17,0.87
-0.52,-0.17,0.87
-0.52,-0.16,0.87
-0.52,-0.16,0.87
-0.52,-0.16,0.87
-0.52,-0.16,0.86
-0.5,-0.16,0.85
-0.47,-0.15,0.84
-0.44,-0.14,0.83
-0.42,-0.13,0.83
-0.4,-0.13,0.83
-0.39,-0.13,0.84
-0.38,-0.14,0.84
-0.37,-0.15,0.84
-0.34,-0.15,0.82
-0.32,-0.14,0.82
-0.3,-0.14,0.82
-0.28,-0.13,0.81
-0.2,-0.11,0.8
-0.16,-0.11,0.8
-0.13,-0.11,0.79
-0.1,-0.11,0.78
-0.07,-0.11,0.78
-0.05,-0.12,0.78
-0.04,-0.12,0.77
-0.01,-0.12,0.76
0,-0.12,0.76
0.01,-0.11,0.75
0.03,-0.11,0.74
0.06,-0.13,0.74
0.1,-0.16,0.75
0.14,-0.19,0.75
0.19,-0.2,0.75
0.24,-0.19,0.74
0.26,-0.18,0.72
0.27,-0.17,0.7
0.28,-0.18,0.68
0.3,-0.23,0.67
0.34,-0.29,0.67
0.41,-0.31,0.67
0.47,-0.3,0.67
0.5,-0.28,0.68
0.54,-0.26,0.68
0.59,-0.24,0.69
0.66,-0.28,0.7
0.69,-0.3,0.69
0.7,-0.32,0.69
0.7,-0.31,0.68
0.7,-0.29,0.68
0.71,-0.26,0.69
0.73,-0.24,0.71
0.76,-0.24,0.73
0.79,-0.25,0.75
0.82,-0.26,0.76
0.84,-0.26,0.77
0.86,-0.22,0.76
0.88,-0.19,0.76
0.89,-0.17,0.77
0.9,-0.17,0.78
0.91,-0.16,0.8
0.91,-0.16,0.8
0.9,-0.16,0.8
0.91,-0.15,0.79
0.93,-0.13,0.79
0.94,-0.11,0.79
0.92,-0.1,0.78
0.92,-0.1,0.76
0.92,-0.09,0.74
0.9,-0.1,0.73
0.87,-0.08,0.7
0.84,-0.07,0.7
0.83,-0.09,0.71
0.85,-0.09,0.72
0.87,-0.06,0.71
0.88,-0.05,0.71
0.9,-0.05,0.72
0.93,-0.05,0.72
0.93,-0.04,0.73
0.92,-0.04,0.75
0.93,-0.06,0.77
0.96,-0.06,0.82
0.99,-0.05,0.85
1.01,-0.03,0.86
1.04,-0.01,0.85
1.05,0.01,0.83
1.04,0.03,0.82
1.02,0.05,0.8
1,0.07,0.79
0.99,0.08,0.8
0.98,0.09,0.83
1,0.1,0.83
1.01,0.11,0.82
1.01,0.12,0.8
0.99,0.13,0.79
0.98,0.13,0.76
0.95,0.13,0.74
0.92,0.11,0.74
0.91,0.1,0.75
0.9,0.09,0.75
0.89,0.09,0.74
0.88,0.07,0.73
0.86,0.05,0.72
0.85,0.04,0.72
0.85,0.03,0.71
0.83,0.04,0.7
0.82,0.04,0.7
0.8,0.03,0.69
0.79,0.03,0.7
0.78,0.02,0.69
0.77,0.02,0.69
0.77,0.02,0.68
0.77,0.02,0.67
0.77,0.02,0.66
0.79,0.02,0.67
0.79,0.02,0.67
0.78,0.01,0.67
0.77,0,0.68
0.76,-0.01,0.7
0.76,-0.01,0.71
0.76,-0.01,0.72
0.76,-0.01,0.72
0.77,-0.01,0.72
0.77,-0.01,0.71
0.76,-0.01,0.71
0.76,-0.02,0.72
0.76,-0.03,0.73
0.76,-0.03,0.74
0.75,-0.04,0.74
0.74,-0.04,0.75
0.74,-0.05,0.75
0.74,-0.05,0.75
0.73,-0.06,0.74
0.71,-0.06,0.74
0.68,-0.07,0.75
0.67,-0.06,0.76
0.68,-0.06,0.76
0.68,-0.06,0.76
0.68,-0.06,0.76
0.67,-0.06,0.76
0.65,-0.06,0.76
0.62,-0.07,0.77
0.61,-0.08,0.77
0.61,-0.09,0.78
0.62,-0.08,0.79
0.63,-0.07,0.79
0.62,-0.04,0.78
0.6,-0.02,0.75
0.56,-0.03,0.75
0.52,-0.08,0.77
0.54,-0.08,0.79
0.56,-0.06,0.77
0.54,-0.02,0.76
0.51,0,0.74
0.48,0.01,0.72
0.49,0.01,0.71
0.53,0.01,0.74
0.56,0.03,0.8
0.58,0.05,0.86
0.57,0.08,0.87
0.55,0.11,0.87
0.54,0.13,0.85
0.52,0.14,0.83
0.53,0.16,0.82
0.53,0.18,0.78
0.51,0.19,0.77
0.46,0.21,0.76
0.43,0.18,0.75
0.51,0.26,0.62
0.54,0.27,0.64
0.49,0.14,0.81
0.49,0.1,0.8
0.51,0.06,0.79
0.53,0.02,0.78
0.55,0,0.76
0.52,-0.04,0.74
0.53,-0.04,0.73
0.55,-0.05,0.75
0.55,-0.04,0.76
0.57,-0.03,0.79
0.57,-0.01,0.79
0.56,0,0.79
0.57,0.02,0.8
0.58,0.02,0.8
0.58,0.02,0.79
0.56,0.02,0.79
0.54,0.03,0.78
0.54,0.04,0.77
0.52,0.04,0.78
0.5,0.03,0.78
0.51,0.02,0.78
0.55,0.01,0.79
0.6,0,0.78
0.65,0.01,0.77
0.66,0.04,0.77
0.64,0.08,0.76
0.61,0.11,0.76
0.59,0.15,0.76
0.58,0.17,0.77
0.59,0.18,0.76
0.63,0.19,0.77
0.6,0.17,0.81
0.59,0.16,0.82
0.58,0.15,0.83
0.62,0.16,0.81
0.65,0.19,0.8
0.65,0.2,0.81
0.63,0.22,0.81
0.58,0.24,0.84
0.52,0.24,0.86
0.48,0.24,0.86
0.46,0.24,0.84
0.45,0.24,0.84
0.49,0.25,0.92
0.63,0.25,0.98
0.72,0.24,0.98
0.74,0.25,1.01
0.81,0.23,1.01
0.74,0.19,0.99
0.61,0.17,1.01
0.58,0.17,1
0.57,0.15,0.94
0.55,0.12,0.88
0.52,0.11,0.84
0.49,0.11,0.81
0.5,0.08,0.78
0.58,0.08,0.85
0.68,0.09,0.89
0.61,0.08,0.91
0.47,0.07,0.91
0.39,0.06,0.87
0.42,0.09,0.87
0.43,0.07,0.88
0.43,0.03,0.9
0.51,0.02,0.92
0.55,0.01,0.94
0.55,0.01,0.97
0.51,0,0.95
0.44,-0.03,0.88
0.39,-0.03,0.83
0.37,0.01,0.88
0.37,0.02,0.92
0.4,0,0.93
0.42,-0.02,0.95
0.46,-0.01,0.94
0.48,0.01,0.96
0.44,0.03,0.99
0.41,0.03,0.99
0.39,0.03,1
0.37,0.01,1.01
0.35,0,1
0.36,0.02,1.01
0.39,0.05,1.07
0.4,0.1,1.08
0.41,0.1,1.05
0.38,0.08,1.02
0.34,0.11,0.99
0.31,0.12,0.98
0.3,0.12,0.97
0.31,0.1,0.96
0.32,0.09,0.96
0.34,0.09,0.95
0.38,0.1,0.94
0.4,0.11,0.95
0.43,0.1,0.94
0.45,0.06,0.92
0.47,0.02,0.9
0.47,0.01,0.89
0.43,0,0.88
0.41,0.01,0.87
0.4,0.03,0.86
0.4,0.05,0.85
0.4,0.06,0.83
0.38,0.05,0.8
0.36,0.01,0.73
0.37,-0.04,0.66
0.4,-0.08,0.62
0.42,-0.1,0.62
0.42,-0.1,0.68
0.36,-0.14,0.75
0.32,-0.18,0.82
0.31,-0.23,0.88
0.35,-0.25,0.9
0.33,-0.25,0.83
0.26,-0.23,0.75
0.27,-0.19,0.72
0.34,-0.18,0.72
0.4,-0.21,0.72
0.42,-0.27,0.72
0.41,-0.31,0.74
0.39,-0.32,0.75
0.33,-0.34,0.74
0.29,-0.28,0.7
0.37,-0.17,0.66
0.51,-0.14,0.66
0.6,-0.15,0.69
0.61,-0.18,0.7
0.58,-0.19,0.67
0.54,-0.18,0.61
0.48,-0.17,0.56
0.39,-0.17,0.5
0.32,-0.17,0.46
0.33,-0.17,0.44
0.38,-0.19,0.42
0.42,-0.2,0.4
0.42,-0.19,0.4
0.35,-0.18,0.37
0.32,-0.17,0.37
0.31,-0.18,0.37
0.32,-0.2,0.34
0.34,-0.21,0.33
0.38,-0.21,0.34
0.43,-0.18,0.37
0.49,-0.13,0.41
0.53,-0.06,0.42
0.56,0.03,0.4
0.61,0.1,0.38
0.67,0.17,0.39
0.73,0.24,0.38
0.79,0.31,0.34
0.84,0.33,0.3
0.91,0.34,0.28
0.95,0.37,0.32
0.94,0.46,0.38
0.96,0.53,0.44
0.95,0.57,0.46
0.93,0.64,0.44
0.91,0.68,0.42
0.9,0.7,0.42
0.91,0.76,0.41
0.94,0.83,0.42
0.93,0.95,0.44
0.89,1.05,0.42
0.88,1.13,0.4
0.84,1.17,0.38
0.74,1.09,0.36
0.79,1.24,0.37
0.84,1.52,0.4
0.84,1.55,0.42
0.89,1.46,0.43
0.88,1.37,0.43
0.86,1.33,0.42
0.86,1.31,0.4
0.85,1.29,0.4
0.86,1.27,0.42
0.89,1.22,0.41
0.89,1.17,0.4
0.83,1.13,0.41
0.77,1.09,0.41
0.74,1.05,0.39
0.75,1.02,0.33
0.75,0.99,0.27
0.71,0.96,0.22
0.66,0.92,0.22
0.56,0.94,0.43
0.37,1,0.58
0.3,1.01,0.48
0.61,0.92,0.2
0.65,0.89,0.17
0.57,0.88,0.2
0.46,0.88,0.23
0.38,0.9,0.23
0.35,0.92,0.2
0.33,0.92,0.17
0.3,0.92,0.15
0.26,0.93,0.13
0.23,0.94,0.1
0.22,0.95,0.06
0.21,0.96,0.02
0.21,0.96,-0.01
0.2,0.97,-0.03
0.2,0.97,-0.05
0.2,0.98,-0.05
0.2,0.98,-0.04
0.2,0.97,-0.04
0.18,0.97,-0.05
0.16,0.97,-0.06
0.16,0.96,-0.07
0.18,0.95,-0.07
0.19,0.95,-0.07
0.19,0.94,-0.06
0.17,0.94,-0.05
0.18,0.94,-0.03
0.19,0.95,-0.01
0.19,0.95,-0.01
0.17,0.95,0.01
0.16,0.96,0.05
0.15,0.98,0.09
0.15,0.99,0.14
0.14,1,0.2
0.12,1,0.23
0.11,1,0.22
0.15,0.99,0.17
0.2,0.99,0.12
0.26,0.97,0.1
0.28,0.96,0.08
0.28,0.95,0.05
0.28,0.94,0.05
0.3,0.94,0.04
0.3,0.93,0.02
0.29,0.94,0
0.27,0.94,-0.01
0.25,0.94,-0.01
0.25,0.94,-0.01
0.25,0.94,-0.01
0.24,0.93,-0.01
0.25,0.93,-0.01
0.26,0.93,0
0.27,0.92,0.01
0.28,0.94,0.02
0.3,0.95,0.03
0.3,0.96,0.03
0.29,0.96,0.03
0.29,0.96,0.04
0.3,0.95,0.04
0.32,0.95,0.05
0.32,0.94,0.06
0.31,0.95,0.06
0.31,0.95,0.07
0.31,0.95,0.07
0.32,0.96,0.06
0.32,0.96,0.05
0.32,0.96,0.05
0.32,0.94,0.06
0.3,0.93,0.05
0.29,0.93,0.04
0.29,0.93,0.04
0.29,0.93,0.04
0.29,0.93,0.05
0.27,0.93,0.04
0.26,0.94,0.03
0.26,0.94,0.02
0.26,0.95,0.02
0.27,0.94,0.02
0.28,0.94,0.02
0.28,0.95,0.03
0.27,0.95,0.02
0.28,0.94,0.02
0.29,0.94,0.02
0.29,0.94,0.02
0.3,0.94,0.02
0.31,0.94,0.03
0.32,0.94,0.04
0.31,0.93,0.04
0.27,0.94,0.03
0.28,0.96,0.02
0.36,0.97,0.04
0.44,0.96,0.05
0.47,0.95,0.07
0.5,0.96,0.11
0.55,0.99,0.13
0.62,1,0.11
0.7,1.01,0.1
0.75,1,0.1
0.71,0.97,0.13
0.81,0.97,0.19
0.9,1.02,0.18
0.83,1.06,0.16
0.85,1.09,0.22
0.91,1.1,0.26
0.97,1.04,0.23
1.03,1.06,0.29
1.03,1.03,0.27
1.05,0.99,0.26
1.11,0.97,0.27
1.17,0.98,0.28
1.19,0.99,0.29
1.2,0.99,0.29
1.24,0.97,0.29
1.26,0.95,0.3
1.23,0.93,0.3
1.18,0.9,0.29
1.15,0.84,0.32
1.17,0.76,0.35
1.17,0.69,0.37
1.11,0.63,0.37
1.02,0.55,0.35
0.95,0.46,0.32
0.94,0.39,0.3
0.93,0.33,0.3
0.9,0.29,0.29
0.87,0.24,0.27
0.85,0.2,0.25
0.82,0.15,0.25
0.79,0.1,0.27
0.75,0.02,0.28
0.72,-0.06,0.24
0.71,-0.09,0.28
0.72,-0.08,0.29
0.77,-0.06,0.29
0.83,-0.03,0.27
0.86,-0.03,0.26
0.82,-0.08,0.27
0.75,-0.13,0.29
0.69,-0.16,0.32
0.69,-0.17,0.31
0.71,-0.17,0.31
0.72,-0.18,0.33
0.7,-0.19,0.36
0.62,-0.22,0.39
0.57,-0.25,0.37
0.55,-0.26,0.32
0.51,-0.28,0.31
0.45,-0.3,0.34
0.42,-0.31,0.34
0.42,-0.32,0.34
0.4,-0.29,0.37
0.37,-0.28,0.39
0.33,-0.27,0.41
0.34,-0.27,0.45
0.37,-0.24,0.48
0.41,-0.21,0.5
0.41,-0.19,0.51
0.41,-0.13,0.55
0.46,-0.09,0.58
0.48,-0.06,0.61
0.46,-0.05,0.64
0.44,-0.02,0.67
0.43,0.01,0.69
0.41,0,0.69
0.38,0,0.7
0.39,0.03,0.73
0.44,0.06,0.73
0.5,0.07,0.73
0.53,0.07,0.75
0.53,0.07,0.79
0.51,0.09,0.84
0.47,0.12,0.88
0.45,0.13,0.9
0.46,0.13,0.89
0.48,0.13,0.87
0.6,0.16,0.89
0.72,0.2,0.97
0.66,0.16,1.04
0.58,0.15,1.09
0.56,0.16,1.08
0.59,0.13,0.99
0.64,0.1,0.91
0.68,0.06,0.89
0.68,0.01,0.83
0.61,-0.02,0.83
0.55,-0.01,0.85
0.5,-0.01,0.88
0.46,-0.01,0.89
0.39,-0.04,0.92
0.39,-0.05,0.94
0.44,-0.06,0.91
0.47,-0.06,0.88
0.48,-0.06,0.85
0.46,-0.05,0.83
0.46,-0.04,0.81
0.47,-0.05,0.81
0.49,-0.06,0.84
0.48,-0.07,0.87
0.49,-0.06,0.88
0.56,-0.05,0.87
0.61,-0.04,0.86
0.63,-0.04,0.88
0.65,-0.05,0.9
0.64,-0.05,0.93
0.55,-0.04,1
0.51,-0.04,1.02
0.48,-0.04,0.95
0.46,-0.05,0.85
0.56,-0.04,0.76
0.65,0,0.82
0.63,0.02,0.88
0.53,0.04,0.95
0.43,0.05,0.98
0.45,0.07,0.97
0.55,0.06,0.94
0.65,0.06,0.93
0.71,0.08,0.98
0.74,0.08,1.07
0.75,0.09,1.12
0.75,0.1,1.14
0.78,0.11,1.15
0.84,0.1,1.15
0.9,0.07,1.12
0.93,0.05,1.1
0.94,0.03,1.07
0.92,0.01,1.07
0.89,-0.02,1.06
0.89,-0.06,1.05
0.91,-0.09,1.07
0.89,-0.09,1.07
0.85,-0.09,1.06
0.81,-0.1,1.04
0.78,-0.11,1
0.76,-0.12,0.94
0.75,-0.14,0.9
0.76,-0.16,0.83
0.77,-0.19,0.82
0.76,-0.2,0.8
0.74,-0.21,0.78
0.72,-0.23,0.75
0.7,-0.25,0.71
0.71,-0.26,0.67
0.72,-0.28,0.64
0.72,-0.31,0.61
0.71,-0.32,0.57
0.66,-0.4,0.55
0.68,-0.36,0.51
0.74,-0.28,0.47
0.72,-0.36,0.46
0.7,-0.38,0.46
0.69,-0.38,0.45
0.65,-0.41,0.46
0.62,-0.42,0.47
0.62,-0.42,0.43
0.61,-0.43,0.4
0.59,-0.46,0.37
0.58,-0.48,0.32
0.55,-0.49,0.27
0.51,-0.5,0.27
0.5,-0.51,0.27
0.49,-0.53,0.28
0.5,-0.54,0.23
0.43,-0.59,0.2
0.4,-0.6,0.19
0.42,-0.6,0.18
0.42,-0.6,0.17
0.41,-0.6,0.15
0.41,-0.61,0.15
0.42,-0.6,0.15
0.45,-0.59,0.15
0.45,-0.58,0.17
0.42,-0.59,0.19
0.38,-0.6,0.2
0.36,-0.6,0.21
0.37,-0.6,0.23
0.39,-0.61,0.22
0.37,-0.62,0.22
0.38,-0.62,0.21
0.41,-0.64,0.19
0.41,-0.65,0.19
0.43,-0.64,0.19
0.47,-0.64,0.2
0.47,-0.66,0.23
0.44,-0.67,0.25
0.41,-0.67,0.26
0.4,-0.67,0.28
0.41,-0.69,0.29
0.43,-0.72,0.33
0.41,-0.78,0.35
0.39,-0.78,0.37
0.38,-0.78,0.38
0.36,-0.77,0.4
0.34,-0.77,0.42
0.35,-0.79,0.44
0.38,-0.82,0.45
0.4,-0.84,0.46
0.43,-0.85,0.47
0.43,-0.84,0.51
0.41,-0.83,0.53
0.39,-0.82,0.54
0.39,-0.81,0.56
0.41,-0.8,0.55
0.4,-0.8,0.55
0.39,-0.8,0.55
0.41,-0.81,0.55
0.44,-0.81,0.54
0.46,-0.8,0.54
0.45,-0.8,0.55
0.44,-0.79,0.56
0.44,-0.79,0.57
0.46,-0.79,0.59
0.47,-0.79,0.58
0.46,-0.79,0.57
0.45,-0.79,0.56
0.45,-0.77,0.55
0.46,-0.75,0.54
0.46,-0.75,0.54
0.47,-0.75,0.54
0.48,-0.76,0.54
0.49,-0.76,0.54
0.5,-0.76,0.53
0.49,-0.74,0.5
0.48,-0.72,0.48
0.48,-0.71,0.46
0.47,-0.71,0.43
0.47,-0.71,0.42
0.46,-0.71,0.43
0.45,-0.7,0.41
0.43,-0.7,0.39
0.43,-0.68,0.39
0.43,-0.66,0.37
0.42,-0.65,0.36
0.44,-0.63,0.26
0.46,-0.63,0.2
0.48,-0.64,0.21
0.52,-0.66,0.17
0.55,-0.69,0.15
0.59,-0.69,0.13
0.64,-0.68,0.11
0.68,-0.67,0.09
0.72,-0.71,0.08
0.74,-0.72,0.05
0.77,-0.7,0.05
0.8,-0.68,0.05
0.83,-0.67,0.06
0.84,-0.67,0.07
0.84,-0.68,0.09
0.85,-0.7,0.13
0.86,-0.72,0.17
0.85,-0.73,0.2
0.87,-0.73,0.23
0.9,-0.74,0.25
0.92,-0.74,0.25
0.94,-0.75,0.25
0.98,-0.76,0.25
1.01,-0.78,0.24
1,-0.79,0.26
0.96,-0.79,0.26
0.92,-0.79,0.27
0.89,-0.78,0.27
0.88,-0.78,0.27
0.88,-0.78,0.26
0.87,-0.77,0.26
0.85,-0.76,0.26
0.84,-0.74,0.25
0.85,-0.74,0.21
0.89,-0.72,0.19
0.9,-0.72,0.17
0.88,-0.72,0.17
0.87,-0.71,0.19
0.87,-0.72,0.2
0.84,-0.73,0.23
0.83,-0.72,0.25
0.82,-0.72,0.23
0.8,-0.72,0.23
0.75,-0.71,0.23
0.72,-0.7,0.22
0.71,-0.71,0.21
0.69,-0.71,0.2
0.69,-0.72,0.2
0.7,-0.73,0.21
0.69,-0.71,0.23
0.66,-0.7,0.23
0.62,-0.7,0.22
0.6,-0.69,0.21
0.59,-0.7,0.18
0.6,-0.7,0.15
0.62,-0.69,0.14
0.63,-0.69,0.13
0.63,-0.68,0.12
0.62,-0.67,0.12
0.62,-0.66,0.1
0.63,-0.61,0.1
0.64,-0.6,0.11
0.65,-0.6,0.13
0.64,-0.58,0.14
0.63,-0.58,0.15
0.63,-0.59,0.15
0.64,-0.59,0.14
0.65,-0.59,0.13
0.69,-0.59,0.13
0.74,-0.59,0.15
0.76,-0.59,0.17
0.78,-0.6,0.18
0.79,-0.6,0.19
0.82,-0.57,0.19
0.84,-0.56,0.18
0.84,-0.54,0.18
0.84,-0.52,0.19
0.83,-0.51,0.2
0.82,-0.51,0.22
0.81,-0.51,0.25
0.81,-0.5,0.28
0.8,-0.5,0.29
0.8,-0.5,0.3
0.81,-0.49,0.28
0.84,-0.49,0.25
0.85,-0.49,0.22
0.84,-0.49,0.17
0.83,-0.5,0.17
0.82,-0.52,0.18
0.8,-0.52,0.21
0.79,-0.53,0.22
0.79,-0.52,0.22
0.78,-0.51,0.21
0.79,-0.52,0.18
0.79,-0.51,0.15
0.81,-0.5,0.13
0.83,-0.52,0.13
0.85,-0.52,0.12
0.86,-0.52,0.11
0.88,-0.52,0.11
0.89,-0.53,0.11
0.9,-0.53,0.07
0.9,-0.52,0.04
0.89,-0.52,0.03
0.92,-0.52,0
0.94,-0.54,0.01
0.93,-0.55,0.02
0.91,-0.56,0.05
0.93,-0.55,0.01
0.93,-0.56,-0.01
0.93,-0.57,0.01
0.94,-0.57,-0.02
0.93,-0.57,-0.07
0.95,-0.59,-0.07
0.97,-0.61,-0.08
0.98,-0.62,-0.09
1,-0.62,-0.09
1,-0.62,-0.09
0.98,-0.62,-0.13
0.99,-0.63,-0.14
1,-0.65,-0.12
0.96,-0.67,-0.13
0.96,-0.67,-0.14
0.97,-0.67,-0.14
0.97,-0.67,-0.14
0.96,-0.68,-0.15
0.95,-0.69,-0.17
0.96,-0.69,-0.2
0.98,-0.7,-0.22
1,-0.69,-0.23
1.02,-0.69,-0.24
1.02,-0.69,-0.24
1,-0.7,-0.24
0.97,-0.71,-0.24
0.95,-0.71,-0.24
0.95,-0.73,-0.23
0.95,-0.74,-0.23
0.95,-0.74,-0.31
0.95,-0.73,-0.33
0.95,-0.72,-0.34
0.95,-0.73,-0.37
0.93,-0.72,-0.38
0.93,-0.71,-0.37
0.92,-0.69,-0.36
0.9,-0.68,-0.35
0.87,-0.66,-0.34
0.83,-0.64,-0.33
0.78,-0.63,-0.32
0.74,-0.63,-0.29
0.7,-0.65,-0.29
0.68,-0.66,-0.29
0.69,-0.67,-0.31
0.7,-0.68,-0.34
0.73,-0.68,-0.38
0.76,-0.68,-0.43
0.8,-0.68,-0.47
0.82,-0.66,-0.48
0.83,-0.64,-0.47
0.82,-0.61,-0.44
0.81,-0.58,-0.38
0.8,-0.54,-0.32
0.78,-0.5,-0.28
0.78,-0.47,-0.26
0.78,-0.46,-0.25
0.78,-0.43,-0.25
0.76,-0.42,-0.25
0.74,-0.42,-0.24
0.73,-0.41,-0.23
0.72,-0.41,-0.21
0.7,-0.4,-0.18
0.68,-0.39,-0.16
0.68,-0.39,-0.14
0.68,-0.38,-0.14
0.68,-0.38,-0.15
0.7,-0.37,-0.16
0.71,-0.37,-0.17
0.72,-0.37,-0.17
0.73,-0.37,-0.17
0.75,-0.36,-0.17
0.76,-0.36,-0.15
0.75,-0.35,-0.13
0.76,-0.35,-0.1
0.77,-0.35,-0.09
0.79,-0.35,-0.09
0.81,-0.35,-0.09
0.83,-0.35,-0.09
0.84,-0.35,-0.08
0.84,-0.35,-0.08
0.84,-0.36,-0.07
0.85,-0.37,-0.05
0.85,-0.37,-0.01
0.86,-0.37,0
0.86,-0.38,0
0.88,-0.4,0
0.91,-0.43,0
0.96,-0.46,0
1.03,-0.49,-0.02
1.12,-0.49,-0.06
1.19,-0.48,-0.1
1.24,-0.46,-0.12
1.26,-0.44,-0.13
1.27,-0.44,-0.13
1.29,-0.45,-0.11
1.28,-0.44,-0.08
1.25,-0.43,-0.04
1.2,-0.43,-0.01
1.14,-0.43,0.01
1.1,-0.44,0.01
1.09,-0.43,0.01
1.11,-0.43,0.02
1.15,-0.42,0.03
1.2,-0.39,0.03
1.23,-0.37,0.02
1.25,-0.35,0.01
1.27,-0.34,-0.01
1.26,-0.32,-0.03
1.24,-0.31,-0.03
1.09,-0.32,0
0.99,-0.33,0.05
0.92,-0.36,0.09
0.87,-0.38,0.13
0.83,-0.42,0.15
0.81,-0.44,0.14
0.8,-0.47,0.12
0.81,-0.49,0.08
0.84,-0.5,0.04
0.85,-0.51,0.01
0.86,-0.52,0
0.85,-0.53,0.01
0.84,-0.53,0.02
0.83,-0.54,0.03
0.83,-0.55,0.04
0.83,-0.56,0.04
0.83,-0.56,0.02
0.84,-0.55,0
0.86,-0.55,-0.03
0.87,-0.55,-0.05
0.87,-0.55,-0.06
0.87,-0.55,-0.07
0.86,-0.55,-0.07
0.85,-0.57,-0.06
0.83,-0.58,-0.06
0.8,-0.61,-0.07
0.75,-0.62,-0.09
0.76,-0.62,-0.1
0.78,-0.62,-0.11
0.8,-0.62,-0.12
0.82,-0.62,-0.11
0.83,-0.62,-0.1
0.82,-0.62,-0.09
0.8,-0.63,-0.1
0.77,-0.62,-0.11
0.75,-0.62,-0.12
0.73,-0.62,-0.13
0.73,-0.62,-0.13
0.74,-0.62,-0.14
0.76,-0.63,-0.15
0.79,-0.63,-0.17
0.81,-0.65,-0.19
0.81,-0.66,-0.22
0.79,-0.67,-0.23
0.78,-0.69,-0.24
0.79,-0.7,-0.24
0.84,-0.69,-0.26
0.87,-0.66,-0.28
0.86,-0.61,-0.29
0.84,-0.57,-0.28
0.82,-0.55,-0.26
0.8,-0.55,-0.23
0.8,-0.57,-0.25
0.8,-0.58,-0.27
0.82,-0.59,-0.29
0.82,-0.6,-0.32
0.84,-0.61,-0.34
0.88,-0.62,-0.36
0.9,-0.62,-0.36
0.92,-0.61,-0.35
0.92,-0.6,-0.34
0.9,-0.59,-0.32
0.86,-0.58,-0.3
0.84,-0.59,-0.29
0.81,-0.59,-0.29
0.77,-0.6,-0.29
0.75,-0.61,-0.27
0.74,-0.62,-0.25
0.76,-0.62,-0.23
0.77,-0.63,-0.21
0.78,-0.63,-0.19
0.78,-0.63,-0.17
0.79,-0.63,-0.16
0.79,-0.64,-0.15
0.8,-0.66,-0.14
0.81,-0.67,-0.13
0.81,-0.67,-0.12
0.8,-0.67,-0.11
0.81,-0.67,-0.11
0.84,-0.67,-0.1
0.86,-0.66,-0.1
0.87,-0.65,-0.1
0.87,-0.64,-0.09
0.86,-0.65,-0.08
0.83,-0.65,-0.06
0.79,-0.66,-0.04
0.75,-0.66,-0.05
0.72,-0.67,-0.05
0.69,-0.67,-0.06
0.68,-0.67,-0.06
0.69,-0.67,-0.07
0.69,-0.67,-0.06
0.7,-0.67,-0.05
0.71,-0.68,-0.03
0.69,-0.68,0
0.67,-0.69,-0.01
0.66,-0.72,-0.03
0.67,-0.74,-0.04
0.69,-0.76,-0.05
0.72,-0.76,-0.05
0.75,-0.75,-0.05
0.77,-0.74,-0.04
0.78,-0.73,-0.01
0.78,-0.72,0.07
0.77,-0.74,0.11
0.78,-0.74,0.14
0.8,-0.74,0.17
0.82,-0.74,0.16
0.86,-0.73,0.14
0.9,-0.71,0.13
0.92,-0.69,0.13
0.93,-0.67,0.15
0.93,-0.67,0.16
0.92,-0.66,0.18
0.89,-0.66,0.2
0.86,-0.66,0.21
0.83,-0.66,0.2
0.81,-0.66,0.19
0.8,-0.66,0.18
0.78,-0.66,0.19
0.76,-0.66,0.19
0.73,-0.66,0.21
0.71,-0.67,0.22
0.69,-0.67,0.24
0.68,-0.69,0.25
0.66,-0.7,0.26
0.65,-0.7,0.26
0.64,-0.71,0.24
0.65,-0.71,0.22
0.65,-0.71,0.19
0.65,-0.72,0.19
0.64,-0.73,0.2
0.63,-0.73,0.2
0.63,-0.73,0.21
0.62,-0.74,0.22
0.6,-0.74,0.22
0.58,-0.73,0.22
0.58,-0.73,0.21
0.58,-0.72,0.2
0.58,-0.72,0.18
0.59,-0.71,0.17
0.59,-0.71,0.16
0.58,-0.71,0.16
0.57,-0.71,0.17
0.55,-0.71,0.18
0.54,-0.71,0.19
0.54,-0.72,0.2
0.54,-0.71,0.2
0.54,-0.72,0.19
0.55,-0.72,0.17
0.56,-0.73,0.15
0.56,-0.74,0.15
0.56,-0.74,0.16
0.57,-0.75,0.18
0.56,-0.76,0.2
0.57,-0.78,0.24
0.58,-0.81,0.25
0.59,-0.82,0.24
0.62,-0.83,0.23
0.64,-0.83,0.22
0.67,-0.83,0.23
0.68,-0.83,0.23
0.69,-0.84,0.25
0.68,-0.85,0.26
0.67,-0.86,0.27
0.64,-0.87,0.27
0.63,-0.91,0.26
0.63,-0.94,0.24
0.66,-0.96,0.21
0.7,-0.98,0.17
0.72,-0.97,0.13
0.73,-0.95,0.11
0.73,-0.94,0.1
0.72,-0.93,0.11
0.72,-0.93,0.14
0.69,-0.91,0.17
0.66,-0.9,0.2
0.62,-0.9,0.21
0.6,-0.9,0.19
0.6,-0.9,0.18
0.6,-0.9,0.17
0.61,-0.89,0.17
0.61,-0.88,0.16
0.61,-0.87,0.15
0.6,-0.87,0.12
0.6,-0.87,0.09
0.62,-0.86,0.05
0.64,-0.85,0.02
0.67,-0.83,-0.01
0.69,-0.8,-0.02
0.71,-0.78,-0.01
0.72,-0.77,0.01
0.72,-0.76,0.05
0.71,-0.75,0.08
0.69,-0.73,0.11
0.67,-0.72,0.13
0.64,-0.71,0.14
0.63,-0.7,0.14
0.63,-0.7,0.14
0.63,-0.7,0.14
0.64,-0.69,0.13
0.65,-0.69,0.13
0.64,-0.69,0.14
0.61,-0.69,0.15
0.58,-0.69,0.16
0.54,-0.68,0.16
0.52,-0.68,0.16
0.51,-0.68,0.16
0.54,-0.69,0.15
0.58,-0.69,0.14
0.61,-0.69,0.13
0.64,-0.7,0.12
0.65,-0.71,0.13
0.65,-0.71,0.13
0.64,-0.72,0.14
0.62,-0.72,0.16
0.61,-0.72,0.2
0.6,-0.72,0.24
0.59,-0.73,0.27
0.59,-0.73,0.28
0.61,-0.72,0.28
0.63,-0.71,0.27
0.65,-0.72,0.25
0.66,-0.73,0.25
0.67,-0.74,0.25
0.68,-0.75,0.27
0.68,-0.75,0.29
0.68,-0.75,0.31
0.68,-0.74,0.33
0.67,-0.75,0.35
0.68,-0.76,0.36
0.7,-0.76,0.36
0.73,-0.76,0.36
0.73,-0.76,0.33
0.71,-0.75,0.33
0.73,-0.75,0.34
0.76,-0.76,0.36
0.79,-0.76,0.39
0.79,-0.77,0.44
0.79,-0.78,0.47
0.8,-0.8,0.5
0.8,-0.82,0.51
0.79,-0.83,0.51
0.75,-0.84,0.49
0.72,-0.84,0.49
0.7,-0.82,0.5
0.69,-0.8,0.49
0.67,-0.75,0.46
0.66,-0.69,0.44
0.65,-0.64,0.43
0.65,-0.58,0.43
0.66,-0.53,0.43
0.64,-0.51,0.43
0.63,-0.49,0.45
0.63,-0.49,0.47
0.6,-0.5,0.47
0.56,-0.53,0.48
0.55,-0.54,0.49
0.56,-0.54,0.51
0.58,-0.54,0.56
0.6,-0.53,0.56
0.59,-0.56,0.57
0.58,-0.58,0.56
0.57,-0.59,0.56
0.53,-0.61,0.55
0.5,-0.61,0.55
0.51,-0.59,0.54
0.52,-0.58,0.52
0.52,-0.55,0.51
0.51,-0.53,0.51
0.52,-0.51,0.52
0.51,-0.49,0.52
0.49,-0.49,0.52
0.5,-0.5,0.51
0.51,-0.51,0.52
0.51,-0.49,0.53
0.5,-0.46,0.55
0.5,-0.45,0.55
0.51,-0.41,0.55
0.51,-0.39,0.56
0.48,-0.37,0.55
0.45,-0.34,0.54
0.46,-0.29,0.56
0.49,-0.24,0.56
0.5,-0.19,0.55
0.52,-0.15,0.55
0.57,-0.07,0.57
0.58,-0.06,0.6
0.58,-0.09,0.65
0.58,-0.13,0.69
0.58,-0.17,0.72
0.6,-0.17,0.73
0.62,-0.15,0.73
0.65,-0.11,0.7
0.67,-0.07,0.66
0.68,-0.05,0.64
0.68,-0.02,0.65
0.68,0,0.66
0.66,0.02,0.67
0.66,0.04,0.67
0.66,0.05,0.68
0.68,0.07,0.68
0.7,0.09,0.69
0.71,0.11,0.71
0.73,0.12,0.74
0.78,0.14,0.78
0.8,0.14,0.81
0.82,0.13,0.81
0.84,0.12,0.8
0.84,0.11,0.81
0.82,0.09,0.86
0.82,0.07,0.91
0.78,0.03,0.9
0.77,0.03,0.88
0.77,0.03,0.86
0.77,0.04,0.84
0.75,0.06,0.83
0.73,0.08,0.81
0.73,0.08,0.83
0.72,0.07,0.88
0.72,0.08,0.88
0.7,0.08,0.87
0.66,0.08,0.91
0.66,0.1,0.94
0.66,0.12,0.94
0.79,0.15,1.19
0.85,0.15,1.39
0.88,0.08,1.15
0.91,0.02,0.83
0.74,-0.03,0.71
0.58,-0.05,0.76
0.54,-0.05,0.8
0.57,-0.06,0.8
0.59,-0.08,0.83
0.56,-0.1,0.88
0.57,-0.11,0.93
0.64,-0.13,0.92
0.69,-0.15,0.9
0.66,-0.17,0.83
0.6,-0.16,0.8
0.61,-0.15,0.78
0.62,-0.16,0.77
0.65,-0.16,0.78
0.68,-0.15,0.79
0.68,-0.15,0.78
0.67,-0.13,0.78
0.67,-0.11,0.77
0.64,-0.12,0.8
0.56,-0.11,0.84
0.52,-0.1,0.85
0.52,-0.08,0.85
0.52,-0.07,0.87
0.54,-0.07,0.87
0.57,-0.05,0.88
0.61,-0.04,0.9
0.64,-0.03,0.9
0.66,-0.01,0.89
0.61,0,0.87
0.57,0,0.85
0.56,0.03,0.85
0.55,0.06,0.86
0.53,0.08,0.88
0.52,0.1,0.88
0.53,0.14,0.85
0.53,0.16,0.81
0.55,0.18,0.82
0.54,0.19,0.83
0.55,0.18,0.83
0.54,0.17,0.81
0.53,0.17,0.79
0.51,0.16,0.8
0.51,0.14,0.79
0.5,0.13,0.78
0.47,0.11,0.77
0.46,0.1,0.74
0.46,0.07,0.72
0.47,0.05,0.71
0.49,0.04,0.7
0.5,0.03,0.71
0.49,0.03,0.73
0.47,0.02,0.74
0.46,0.02,0.72
0.48,0.03,0.69
0.5,0.03,0.68
0.51,0.04,0.69
0.52,0.03,0.71
0.52,-0.01,0.74
0.49,-0.07,0.76
0.45,-0.15,0.78
0.45,-0.22,0.8
0.43,-0.41,0.87
0.38,-0.49,0.9
0.39,-0.52,0.89
0.42,-0.5,0.88
0.44,-0.46,0.88
0.44,-0.4,0.93
0.42,-0.33,1
0.41,-0.29,1.04
0.42,-0.25,1.05
0.42,-0.21,1.03
0.42,-0.17,1.01
0.44,-0.12,0.98
0.46,-0.09,0.96
0.49,-0.06,0.97
0.52,-0.04,0.97
0.53,-0.04,0.98
0.52,-0.05,0.98
0.49,-0.05,0.98
0.46,-0.06,0.97
0.43,-0.06,0.94
0.41,-0.06,0.89
0.39,-0.05,0.84
0.38,-0.04,0.77
0.36,-0.03,0.71
0.34,-0.02,0.67
0.33,-0.01,0.65
0.33,0.03,0.65
0.35,0.04,0.64
0.37,0.06,0.61
0.38,0.08,0.59
0.38,0.09,0.58
0.38,0.1,0.58
0.37,0.11,0.59
0.37,0.11,0.6
0.38,0.12,0.6
0.4,0.16,0.59
0.44,0.21,0.57
0.49,0.26,0.55
0.52,0.31,0.53
0.53,0.35,0.54
0.51,0.35,0.56
0.47,0.33,0.6
0.47,0.32,0.62
0.51,0.35,0.63
0.54,0.37,0.62
0.55,0.4,0.6
0.55,0.43,0.56
0.57,0.46,0.53
0.58,0.49,0.54
0.54,0.48,0.56
0.52,0.47,0.6
0.52,0.49,0.6
0.56,0.54,0.59
0.59,0.58,0.58
0.62,0.62,0.54
0.62,0.65,0.52
0.62,0.72,0.53
0.68,0.78,0.55
0.65,0.83,0.6
0.55,0.79,0.64
0.58,0.74,0.66
0.61,0.78,0.62
0.63,0.82,0.57
0.65,0.83,0.56
0.69,0.83,0.53
0.7,0.84,0.52
0.68,0.85,0.52
0.65,0.86,0.53
0.65,0.86,0.54
0.66,0.87,0.52
0.68,0.89,0.49
0.68,0.91,0.47
0.67,0.93,0.44
0.67,0.95,0.42
0.67,0.96,0.41
0.67,0.97,0.41
0.67,0.98,0.42
0.66,0.97,0.43
0.66,0.93,0.43
0.67,0.91,0.42
0.66,0.89,0.42
0.66,0.9,0.42
0.65,0.94,0.41
0.66,1,0.41
0.65,1.04,0.4
0.66,1.08,0.38
0.66,1.13,0.37
0.64,1.15,0.34
0.63,1.17,0.3
0.62,1.17,0.26
0.61,1.17,0.22
0.6,1.16,0.17
0.58,1.14,0.14
0.57,1.09,0.12
0.56,1.04,0.12
0.55,0.99,0.12
0.55,0.94,0.12
0.54,0.9,0.12
0.53,0.88,0.11
0.53,0.86,0.11
0.52,0.85,0.11
0.51,0.84,0.12
0.48,0.84,0.12
0.45,0.85,0.11
0.42,0.86,0.09
0.36,0.9,0.08
0.33,0.92,0.07
0.32,0.95,0.06
0.31,0.98,0.05
0.31,1,0.04
0.3,1,0.03
0.3,1,0.02
0.29,0.99,0.01
0.28,0.99,0
0.27,0.98,0
0.25,0.97,-0.01
0.23,0.98,-0.02
0.23,0.99,-0.02
0.23,1,-0.02
0.23,0.99,-0.01
0.23,0.98,-0.01
0.23,0.96,-0.02
0.24,0.96,-0.03
0.25,0.97,-0.03
0.25,0.97,-0.04
0.26,0.96,-0.04
0.26,0.96,-0.05
0.24,0.97,-0.05
0.23,0.97,-0.05
0.22,0.96,-0.05
0.22,0.94,-0.04
0.21,0.91,-0.02
0.22,0.89,-0.02
0.22,0.88,-0.02
0.22,0.87,-0.03
0.23,0.86,-0.03
0.22,0.85,-0.04
0.23,0.85,-0.04
0.24,0.86,-0.04
0.26,0.85,-0.03
0.28,0.87,-0.02
0.28,0.87,0
0.27,0.88,0.01
0.26,0.89,0.03
0.27,0.91,0.05
0.27,0.95,0.08
0.28,0.99,0.12
0.29,1.01,0.16
0.27,1.03,0.18
0.25,1.06,0.17
0.26,1.12,0.15
0.3,1.19,0.14
0.31,1.24,0.14
0.29,1.26,0.17
0.32,1.33,0.18
0.37,1.42,0.16
0.39,1.45,0.23
0.34,1.24,0.29
0.31,1.03,0.35
0.32,0.84,0.38
0.4,0.71,0.4
0.46,0.65,0.43
0.48,0.68,0.45
0.45,0.74,0.47
0.38,0.79,0.48
0.33,0.85,0.48
0.31,0.9,0.46
0.27,0.91,0.44
0.22,0.9,0.42
0.15,0.87,0.42
0.11,0.83,0.42
0.1,0.8,0.42
0.11,0.76,0.42
0.14,0.73,0.41
0.17,0.71,0.4
0.2,0.7,0.38
0.22,0.69,0.36
0.24,0.7,0.34
0.25,0.69,0.33
0.26,0.7,0.31
0.26,0.71,0.3
0.26,0.71,0.29
0.28,0.72,0.29
0.28,0.7,0.3
0.28,0.69,0.3
0.28,0.67,0.29
0.27,0.65,0.28
0.27,0.63,0.27
0.27,0.63,0.27
0.27,0.62,0.26
0.25,0.62,0.27
0.21,0.61,0.28
0.21,0.6,0.27
0.25,0.61,0.25
0.24,0.61,0.24
0.22,0.61,0.24
0.25,0.62,0.23
0.26,0.63,0.23
0.24,0.63,0.24
0.23,0.64,0.25
0.26,0.66,0.24
0.26,0.68,0.24
0.25,0.7,0.23
0.24,0.7,0.23
0.26,0.71,0.22
0.29,0.73,0.19
0.29,0.74,0.18
0.29,0.75,0.17
0.31,0.78,0.19
0.37,0.85,0.2
0.37,0.89,0.2
0.37,0.91,0.21
0.35,0.93,0.22
0.37,0.96,0.22
0.42,1,0.19
0.44,1.01,0.17
0.45,1.01,0.16
0.48,1.01,0.14
0.5,0.99,0.14
0.53,0.97,0.14
0.54,0.95,0.14
0.53,0.94,0.15
0.52,0.93,0.15
0.52,0.92,0.15
0.54,0.9,0.16
0.56,0.91,0.15
0.58,0.92,0.15
0.58,0.93,0.15
0.59,0.95,0.14
0.64,0.96,0.13
0.7,0.96,0.13
0.74,0.95,0.15
0.74,0.94,0.19
0.73,0.94,0.22
0.73,0.94,0.21
0.68,0.94,0.21
0.67,0.94,0.23
0.67,0.95,0.24
0.68,0.96,0.25
0.7,0.96,0.25
0.74,0.96,0.26
0.78,0.97,0.27
0.81,0.98,0.29
0.82,0.99,0.31
0.83,1.02,0.34
0.86,1.04,0.37
0.91,1.07,0.39
0.93,1.09,0.39
0.96,1.09,0.38
1.01,1.07,0.37
1.1,1.01,0.34
1.16,0.91,0.29
1.12,0.8,0.28
1.04,0.71,0.31
0.97,0.62,0.32
0.92,0.53,0.31
0.88,0.47,0.33
0.83,0.45,0.37
0.8,0.43,0.39
0.82,0.37,0.34
0.8,0.37,0.3
0.9,0.36,0.26
0.94,0.39,0.3
0.97,0.4,0.35
1,0.4,0.38
1.03,0.38,0.39
0.99,0.37,0.42
0.92,0.34,0.46
0.92,0.29,0.47
0.95,0.3,0.52
0.89,0.31,0.58
0.89,0.28,0.61
0.95,0.26,0.61
0.96,0.26,0.63
0.96,0.25,0.65
0.98,0.21,0.66
0.95,0.19,0.68
0.9,0.15,0.68
0.92,0.13,0.64
0.89,0.13,0.62
0.83,0.09,0.65
0.84,0.05,0.67
0.87,0.03,0.69
0.91,0.02,0.7
0.93,-0.01,0.67
0.94,-0.03,0.62
0.94,-0.04,0.56
0.99,-0.04,0.54
1.01,-0.03,0.53
1.01,-0.03,0.53
1,-0.03,0.53
0.98,-0.02,0.55
0.97,-0.02,0.57
0.96,-0.03,0.61
0.94,-0.05,0.67
0.9,-0.07,0.73
0.86,-0.1,0.78
0.84,-0.13,0.8
0.8,-0.16,0.79
0.78,-0.19,0.77
0.74,-0.22,0.74
0.68,-0.26,0.71
0.66,-0.28,0.7
0.67,-0.28,0.7
0.68,-0.27,0.71
0.68,-0.26,0.73
0.67,-0.26,0.75
0.66,-0.26,0.76
0.65,-0.27,0.75
0.65,-0.29,0.75
0.6,-0.3,0.75
0.51,-0.3,0.73
0.45,-0.31,0.68
0.41,-0.34,0.68
0.43,-0.33,0.7
0.49,-0.32,0.72
0.54,-0.31,0.73
0.57,-0.31,0.72
0.58,-0.32,0.68
0.57,-0.31,0.64
0.52,-0.31,0.62
0.44,-0.31,0.62
0.4,-0.26,0.65
0.42,-0.2,0.69
0.46,-0.17,0.73
0.49,-0.16,0.73
0.52,-0.14,0.73
0.52,-0.11,0.74
0.51,-0.08,0.7
0.46,-0.08,0.67
0.43,-0.1,0.68
0.44,-0.04,0.71
0.38,0.05,0.76
0.35,0.08,0.76
0.31,0.05,0.74
0.29,0.07,0.76
0.33,0.12,0.78
0.34,0.12,0.82
0.32,0.14,0.84
0.31,0.1,0.84
0.28,0.14,0.84
0.24,0.14,0.84
0.2,0.19,0.85
0.18,0.24,0.88
0.18,0.23,0.89
0.18,0.21,0.89
0.16,0.18,0.86
0.14,0.18,0.86
0.1,0.21,0.88
0.06,0.22,0.9
0.11,0.2,0.95
0.16,0.19,0.96
0.18,0.21,0.97
0.17,0.24,0.99
0.13,0.28,1
0.05,0.28,0.99
0,0.27,1
-0.01,0.28,1.02
-0.01,0.27,1.01
0.01,0.25,0.99
0.04,0.23,0.98
0.05,0.21,0.97
0.06,0.2,0.98
0.06,0.18,0.99
0.07,0.18,0.99
0.1,0.2,0.99
0.09,0.21,0.98
0.1,0.21,0.97
0.11,0.21,0.96
0.12,0.2,0.94
0.13,0.2,0.94
0.14,0.2,0.96
0.16,0.2,0.98
0.14,0.21,1.01
0.12,0.22,1.07
0.09,0.21,1.06
0.05,0.21,1.03
0.06,0.22,1.05
0.05,0.21,1.04
0.03,0.22,1.04
0,0.23,1.05
0,0.24,1.03
0.01,0.24,1.01
0.02,0.24,0.99
0.05,0.24,1
0.09,0.24,1.02
0.15,0.25,1.04
0.21,0.25,1.09
0.22,0.24,1.14
0.2,0.24,1.17
0.17,0.24,1.17
0.13,0.24,1.11
0.09,0.25,1.08
0.09,0.24,1.06
0.1,0.24,1.06
0.15,0.23,1.07
0.2,0.22,1.1
0.21,0.21,1.13
0.21,0.21,1.13
0.21,0.21,1.11
0.17,0.2,1.08
0.14,0.18,1.06
0.13,0.16,1.05
0.14,0.14,1.04
0.16,0.11,1.04
0.17,0.09,1.03
0.17,0.07,1.02
0.18,0.05,1.01
0.17,0.04,1.02
0.15,0.03,1.02
0.12,0.03,1.02
0.12,0.01,1.02
0.13,-0.01,1.02
0.13,-0.04,1.02
0.14,-0.07,1.01
0.15,-0.08,1
0.15,-0.09,1
0.15,-0.08,1
0.13,-0.07,0.99
0.12,-0.09,0.99
0.11,-0.12,0.98
0.11,-0.15,0.98
0.11,-0.17,0.96
0.12,-0.18,0.95
0.12,-0.19,0.94
0.1,-0.19,0.93
0.07,-0.2,0.92
0.04,-0.21,0.91
0.02,-0.22,0.91
0,-0.24,0.91
-0.01,-0.25,0.9
-0.02,-0.26,0.88
0.01,-0.26,0.86
0.04,-0.26,0.86
0.03,-0.27,0.87
-0.01,-0.28,0.87
-0.03,-0.29,0.87
-0.05,-0.29,0.87
-0.09,-0.3,0.86
-0.13,-0.31,0.85
-0.13,-0.32,0.84
-0.07,-0.32,0.84
-0.08,-0.33,0.83
-0.16,-0.35,0.87
-0.19,-0.36,0.86
-0.17,-0.36,0.86
-0.15,-0.37,0.85
-0.12,-0.36,0.85
-0.08,-0.36,0.85
-0.1,-0.37,0.86
-0.14,-0.37,0.86
-0.15,-0.37,0.87
-0.18,-0.36,0.89
-0.2,-0.35,0.9
-0.21,-0.34,0.89
-0.21,-0.32,0.9
-0.21,-0.32,0.91
-0.22,-0.32,0.9
-0.21,-0.31,0.91
-0.21,-0.3,0.93
-0.23,-0.3,0.94
-0.21,-0.31,0.94
-0.17,-0.32,0.94
-0.15,-0.33,0.94
-0.14,-0.35,0.93
-0.1,-0.37,0.93
-0.07,-0.39,0.94
-0.05,-0.4,0.93
-0.03,-0.4,0.91
0,-0.43,0.87
0.07,-0.48,0.83
0.11,-0.5,0.8
0.14,-0.52,0.78
0.17,-0.52,0.75
0.22,-0.52,0.75
0.29,-0.51,0.77
0.39,-0.47,0.81
0.49,-0.48,0.79
0.56,-0.49,0.78
0.55,-0.43,0.81
0.51,-0.45,0.78
0.47,-0.46,0.82
0.43,-0.47,0.79
0.46,-0.49,0.73
0.51,-0.45,0.69
0.54,-0.45,0.65
0.58,-0.49,0.65
0.65,-0.5,0.63
0.64,-0.51,0.63
0.58,-0.53,0.67
0.54,-0.58,0.71
0.68,-0.5,0.66
0.81,-0.42,0.62
0.76,-0.48,0.64
0.7,-0.52,0.64
0.68,-0.53,0.68
0.68,-0.55,0.66
0.71,-0.54,0.62
0.76,-0.55,0.59
0.77,-0.56,0.56
0.77,-0.55,0.52
0.75,-0.56,0.51
0.72,-0.57,0.52
0.7,-0.57,0.52
0.7,-0.57,0.51
0.69,-0.57,0.5
0.66,-0.57,0.51
0.66,-0.57,0.53
0.7,-0.58,0.53
0.69,-0.59,0.51
0.68,-0.58,0.5
0.69,-0.56,0.52
0.69,-0.56,0.52
0.71,-0.57,0.52
0.71,-0.57,0.54
0.66,-0.57,0.52
0.6,-0.57,0.49
0.6,-0.57,0.51
0.64,-0.59,0.54
0.65,-0.62,0.59
0.66,-0.63,0.62
0.68,-0.65,0.55
0.67,-0.69,0.53
0.69,-0.69,0.52
0.75,-0.68,0.61
0.78,-0.7,0.59
0.76,-0.72,0.48
0.72,-0.75,0.48
0.69,-0.74,0.48
0.66,-0.73,0.5
0.63,-0.75,0.49
0.64,-0.76,0.52
0.65,-0.77,0.56
0.63,-0.77,0.58
0.61,-0.76,0.56
0.6,-0.75,0.52
0.6,-0.75,0.51
0.63,-0.76,0.53
0.64,-0.76,0.54
0.67,-0.77,0.53
0.68,-0.79,0.48
0.68,-0.8,0.44
0.66,-0.8,0.44
0.6,-0.79,0.47
0.52,-0.79,0.52
0.46,-0.79,0.55
0.44,-0.8,0.54
0.44,-0.81,0.56
0.48,-0.79,0.59
0.49,-0.78,0.56
0.47,-0.78,0.52
0.42,-0.78,0.51
0.35,-0.78,0.51
0.29,-0.78,0.52
0.25,-0.78,0.52
0.22,-0.78,0.51
0.22,-0.79,0.51
0.24,-0.79,0.52
0.29,-0.78,0.53
0.33,-0.78,0.56
0.35,-0.77,0.56
0.32,-0.76,0.55
0.28,-0.76,0.55
0.24,-0.75,0.56
0.21,-0.75,0.59
0.17,-0.76,0.62
0.15,-0.76,0.64
0.14,-0.77,0.66
0.14,-0.78,0.65
0.17,-0.79,0.62
0.2,-0.8,0.59
0.22,-0.8,0.57
0.23,-0.81,0.54
0.22,-0.82,0.52
0.16,-0.81,0.55
0.1,-0.81,0.57
0.06,-0.79,0.58
-0.01,-0.77,0.62
-0.07,-0.77,0.62
-0.06,-0.78,0.6
-0.05,-0.77,0.58
-0.09,-0.74,0.58
-0.08,-0.76,0.59
-0.05,-0.77,0.6
-0.05,-0.77,0.57
-0.04,-0.81,0.5
-0.05,-0.79,0.51
-0.05,-0.8,0.54
-0.05,-0.77,0.55
-0.18,-0.7,0.59
-0.33,-0.74,0.61
-0.37,-0.77,0.6
-0.39,-0.74,0.59
-0.37,-0.75,0.57
-0.33,-0.76,0.53
-0.28,-0.77,0.5
-0.24,-0.77,0.5
-0.2,-0.77,0.51
-0.19,-0.78,0.51
-0.19,-0.78,0.5
-0.29,-0.78,0.48
-0.27,-0.77,0.49
-0.22,-0.78,0.5
-0.17,-0.8,0.51
-0.22,-0.76,0.54
-0.28,-0.75,0.54
-0.25,-0.79,0.51
-0.25,-0.78,0.49
-0.28,-0.77,0.5
-0.31,-0.77,0.48
-0.33,-0.77,0.46
-0.34,-0.77,0.45
-0.35,-0.77,0.45
-0.34,-0.77,0.43
-0.33,-0.77,0.42
-0.39,-0.73,0.45
-0.45,-0.73,0.47
-0.37,-0.8,0.46
-0.39,-0.78,0.47
-0.47,-0.75,0.42
-0.47,-0.77,0.4
-0.47,-0.76,0.4
-0.45,-0.78,0.4
-0.45,-0.77,0.42
-0.46,-0.76,0.4
-0.45,-0.79,0.36
-0.45,-0.77,0.4
-0.44,-0.78,0.4
-0.42,-0.78,0.41
-0.42,-0.8,0.39
-0.46,-0.79,0.39
-0.47,-0.78,0.39
-0.46,-0.79,0.36
-0.48,-0.8,0.36
-0.49,-0.8,0.36
-0.49,-0.81,0.35
-0.49,-0.8,0.36
-0.48,-0.8,0.38
-0.48,-0.8,0.38
-0.48,-0.8,0.38
-0.49,-0.81,0.37
-0.53,-0.79,0.36
-0.55,-0.79,0.36
-0.5,-0.81,0.36
-0.51,-0.8,0.37
-0.55,-0.79,0.38
-0.55,-0.79,0.37
-0.52,-0.79,0.37
-0.5,-0.77,0.38
-0.51,-0.78,0.37
-0.52,-0.78,0.33
-0.53,-0.78,0.32
-0.52,-0.78,0.31
-0.5,-0.79,0.3
-0.47,-0.8,0.31
-0.47,-0.79,0.33
-0.51,-0.79,0.34
-0.52,-0.8,0.33
-0.52,-0.79,0.31
-0.54,-0.79,0.32
-0.54,-0.79,0.32
-0.54,-0.79,0.32
-0.54,-0.8,0.33
-0.54,-0.79,0.33
-0.54,-0.79,0.34
-0.54,-0.79,0.35
-0.55,-0.78,0.36
-0.56,-0.78,0.36
-0.57,-0.77,0.36
-0.58,-0.78,0.35
-0.59,-0.79,0.34
-0.59,-0.79,0.34
-0.59,-0.78,0.33
-0.59,-0.78,0.34
-0.59,-0.78,0.34
-0.58,-0.77,0.35
-0.59,-0.77,0.35
-0.59,-0.77,0.35
-0.59,-0.76,0.35
-0.59,-0.75,0.35
-0.59,-0.74,0.35
-0.58,-0.73,0.35
-0.58,-0.72,0.36
-0.59,-0.72,0.35
-0.6,-0.72,0.33
-0.61,-0.72,0.33
-0.61,-0.72,0.34
-0.61,-0.73,0.35
-0.6,-0.73,0.34
-0.59,-0.74,0.34
-0.58,-0.75,0.35
-0.58,-0.75,0.36
-0.59,-0.76,0.35
-0.6,-0.75,0.35
-0.62,-0.74,0.35
-0.63,-0.74,0.34
-0.63,-0.74,0.33
-0.63,-0.74,0.33
-0.64,-0.74,0.33
-0.63,-0.74,0.33
-0.61,-0.74,0.34
-0.6,-0.73,0.34
-0.59,-0.73,0.34
-0.58,-0.73,0.35
-0.56,-0.7,0.37
-0.55,-0.69,0.37
-0.55,-0.69,0.37
-0.55,-0.68,0.37
-0.55,-0.68,0.37
-0.54,-0.67,0.35
-0.53,-0.67,0.31
-0.51,-0.67,0.29
-0.5,-0.66,0.28
-0.5,-0.65,0.28
-0.49,-0.63,0.29
-0.47,-0.6,0.29
-0.44,-0.57,0.3
-0.41,-0.55,0.33
-0.38,-0.54,0.35
-0.37,-0.54,0.35
-0.37,-0.54,0.33
-0.35,-0.54,0.31
-0.33,-0.53,0.28
-0.31,-0.52,0.25
-0.29,-0.51,0.21
-0.27,-0.52,0.18
-0.25,-0.54,0.18
-0.23,-0.56,0.22
-0.2,-0.57,0.29
-0.15,-0.57,0.4
-0.07,-0.56,0.41
-0.05,-0.57,0.37
-0.02,-0.58,0.3
0.01,-0.6,0.24
0.04,-0.61,0.2
0.07,-0.59,0.2
0.13,-0.57,0.24
0.22,-0.53,0.31
0.35,-0.48,0.4
0.48,-0.44,0.48
0.62,-0.42,0.52
0.73,-0.42,0.52
0.84,-0.41,0.49
0.95,-0.4,0.47
1.02,-0.39,0.49
1.02,-0.4,0.52
0.95,-0.4,0.55
0.92,-0.38,0.6
0.96,-0.34,0.67
1.07,-0.29,0.73
1.18,-0.25,0.77
1.23,-0.24,0.8
1.23,-0.24,0.8
1.18,-0.25,0.77
1.14,-0.24,0.76
1.14,-0.23,0.78
1.22,-0.17,0.86
1.23,-0.14,0.89
1.23,-0.12,0.89
1.2,-0.11,0.87
1.17,-0.12,0.86
1.14,-0.12,0.86
1.12,-0.12,0.85
1.09,-0.11,0.84
1.05,-0.1,0.83
1.01,-0.09,0.81
0.99,-0.07,0.81
1.03,-0.07,0.8
1.02,-0.06,0.79
0.97,-0.06,0.81
0.93,-0.05,0.81
0.89,-0.04,0.8
0.84,-0.03,0.79
0.8,-0.02,0.76
0.78,-0.02,0.75
0.76,-0.03,0.73
0.74,-0.02,0.73
0.72,-0.02,0.72
0.71,-0.03,0.71
0.72,-0.02,0.73
0.74,0.05,0.79
0.77,0.04,0.8
0.95,0.17,1.03
0.78,0.16,1.11
0.73,0.07,0.97
0.72,0.08,0.85
0.68,0.06,0.79
0.68,0.04,0.78
0.7,0.04,0.74
0.69,0.04,0.71
0.66,0.04,0.67
0.63,0.03,0.66
0.62,0.04,0.69
0.63,0.04,0.76
0.65,0.05,0.8
0.68,0.06,0.79
0.67,0.06,0.78
0.66,0.06,0.79
0.65,0.05,0.77
0.64,0.04,0.74
0.65,0.04,0.73
0.67,0.05,0.76
0.68,0.07,0.8
0.66,0.06,0.83
0.63,0.03,0.83
0.6,0.03,0.81
0.6,0.02,0.82
0.58,0.02,0.8
0.56,0.03,0.78
0.56,0.03,0.76
0.57,0.04,0.8
0.6,0.07,0.86
0.62,0.07,0.86
0.61,0.06,0.85
0.6,0.05,0.81
0.57,0.05,0.79
0.56,0.06,0.78
0.61,0.09,0.79
0.65,0.09,0.82
0.62,0.08,0.79
0.59,0.1,0.78
0.6,0.1,0.81
0.6,0.1,0.83
0.57,0.11,0.81
0.57,0.1,0.8
0.61,0.11,0.83
0.61,0.13,0.82
0.59,0.12,0.8
0.57,0.13,0.8
0.55,0.14,0.79
0.55,0.14,0.81
0.56,0.15,0.83
0.58,0.16,0.84
0.56,0.17,0.83
0.56,0.18,0.82
0.59,0.16,0.82
0.56,0.16,0.8
0.56,0.15,0.82
0.57,0.14,0.84
0.55,0.13,0.84
0.56,0.12,0.84
0.57,0.11,0.83
0.59,0.1,0.82
0.6,0.09,0.82
0.61,0.09,0.81
0.61,0.09,0.81
0.6,0.08,0.81
0.6,0.08,0.81
0.59,0.09,0.82
0.58,0.09,0.82
0.58,0.09,0.81
0.58,0.09,0.81
0.6,0.09,0.81
0.6,0.09,0.81
0.59,0.09,0.81
0.58,0.09,0.82
0.57,0.09,0.82
0.57,0.09,0.82
0.57,0.09,0.82
0.57,0.09,0.83
0.58,0.09,0.82
0.58,0.09,0.82
0.58,0.09,0.82
0.58,0.09,0.83
0.58,0.09,0.82
0.58,0.09,0.82
0.58,0.09,0.82
0.58,0.09,0.82
0.58,0.09,0.82
0.58,0.09,0.82
0.58,0.09,0.82
0.58,0.09,0.82
0.59,0.09,0.82
0.58,0.09,0.81
0.58,0.09,0.82
0.58,0.09,0.82
0.58,0.09,0.81
0.58,0.09,0.82
0.58,0.09,0.82
0.58,0.09,0.82
0.58,0.09,0.82
0.58,0.09,0.82
0.58,0.09,0.82
0.58,0.09,0.82
0.58,0.09,0.82
0.58,0.09,0.82
0.58,0.09,0.82
0.58,0.09,0.82
