Acc_x,Acc_y,Acc_z
0.96,1.2,0.27
0.96,1.22,0.27
0.98,1.22,0.26
0.99,1.22,0.25
0.99,1.22,0.24
0.97,1.23,0.24
0.95,1.23,0.22
0.94,1.22,0.2
0.92,1.22,0.18
0.92,1.22,0.17
0.92,1.23,0.15
0.92,1.22,0.14
0.91,1.21,0.17
0.89,1.22,0.17
0.88,1.21,0.15
0.84,1.2,0.13
0.79,1.18,0.11
0.77,1.16,0.09
0.75,1.14,0.09
0.73,1.1,0.1
0.72,1.07,0.11
0.71,1.04,0.11
0.69,1.02,0.1
0.66,1.01,0.09
0.6,0.98,0.08
0.54,0.95,0.07
0.53,0.9,0.02
0.51,0.88,0.01
0.47,0.85,0.02
0.45,0.83,0.02
0.44,0.81,0.01
0.41,0.78,0.02
0.36,0.74,0.04
0.32,0.7,0.07
0.33,0.69,0.05
0.33,0.67,0.01
0.31,0.62,0.02
0.28,0.6,0.04
0.27,0.59,0.03
0.24,0.55,0.03
0.24,0.52,0.01
0.22,0.53,-0.01
0.18,0.53,0
0.15,0.51,0
0.13,0.46,0
0.12,0.45,0
0.13,0.47,0
0.13,0.46,0
0.12,0.45,-0.01
0.12,0.45,-0.01
0.12,0.46,-0.02
0.13,0.47,-0.03
0.14,0.51,-0.04
0.14,0.52,-0.04
0.15,0.53,-0.04
0.17,0.54,-0.04
0.18,0.55,-0.03
0.2,0.55,-0.03
0.21,0.56,-0.03
0.22,0.58,-0.03
0.22,0.6,-0.03
0.24,0.61,-0.02
0.26,0.65,-0.01
0.29,0.72,0
0.3,0.79,0
0.31,0.87,-0.01
0.32,0.97,-0.02
0.32,1.08,-0.02
0.33,1.19,-0.03
0.35,1.27,-0.02
0.38,1.33,-0.01
0.43,1.39,0
0.48,1.45,0.02
0.52,1.5,0.05
0.58,1.56,0.06
0.63,1.62,0.07
0.67,1.69,0.08
0.69,1.73,0.07
0.69,1.72,0.05
0.69,1.69,0.04
0.7,1.74,0.03
0.73,1.85,0.03
0.77,1.96,0.06
0.79,2.02,0.04
0.8,2.04,-0.03
0.8,1.99,-0.04
0.81,1.85,-0.03
0.85,1.68,-0.02
0.85,1.52,0
0.83,1.38,0.01
0.81,1.26,0.03
0.8,1.18,0.05
0.8,1.14,0.06
0.77,1.11,0.06
0.75,1.07,0.06
0.72,1.03,0.05
0.69,1,0.05
0.67,0.96,0.07
0.66,0.93,0.09
0.66,0.92,0.1
0.67,0.93,0.09
0.66,0.92,0.1
0.66,0.88,0.11
0.67,0.85,0.11
0.7,0.82,0.1
0.73,0.77,0.1
0.73,0.75,0.1
0.74,0.74,0.11
0.76,0.74,0.1
0.78,0.75,0.1
0.8,0.77,0.09
0.82,0.8,0.09
0.85,0.81,0.08
0.88,0.82,0.09
0.89,0.83,0.09
0.88,0.86,0.1
0.89,0.89,0.1
0.9,0.91,0.1
0.89,0.92,0.11
0.88,0.92,0.12
0.87,0.91,0.12
0.84,0.91,0.15
0.85,0.91,0.17
0.9,0.94,0.17
0.94,0.98,0.17
0.96,1.02,0.14
1.01,1.05,0.09
1.06,1.11,0.02
1.09,1.19,-0.03
1.09,1.29,-0.08
1.06,1.39,-0.14
0.96,1.61,-0.17
0.9,1.72,-0.18
0.86,1.82,-0.18
0.84,1.9,-0.18
0.82,1.95,-0.19
0.81,1.99,-0.21
0.81,2.01,-0.23
0.84,2.06,-0.28
0.86,2.13,-0.32
0.85,2.15,-0.34
0.82,2.13,-0.35
0.79,2.05,-0.34
0.77,1.96,-0.33
0.77,1.87,-0.33
0.76,1.78,-0.3
0.76,1.69,-0.26
0.76,1.62,-0.24
0.74,1.61,-0.23
0.68,1.62,-0.23
0.61,1.62,-0.23
0.53,1.57,-0.23
0.44,1.5,-0.23
0.35,1.42,-0.21
0.26,1.3,-0.18
0.23,1.17,-0.17
0.23,1.07,-0.09
0.23,0.9,-0.08
0.2,0.83,-0.05
0.19,0.77,-0.05
0.16,0.75,-0.06
0.1,0.71,-0.09
0.05,0.6,-0.09
0.02,0.54,-0.05
0.01,0.55,-0.07
0.02,0.54,-0.07
0.04,0.52,-0.07
0.06,0.5,-0.1
0.05,0.5,-0.1
0.04,0.5,-0.09
0.02,0.48,-0.08
0.01,0.45,-0.1
0.01,0.43,-0.11
0.01,0.45,-0.12
0.01,0.45,-0.11
0.01,0.44,-0.11
0.02,0.45,-0.1
0.03,0.46,-0.09
0.04,0.46,-0.07
0.04,0.47,-0.06
0.05,0.48,-0.04
0.07,0.48,-0.03
0.07,0.5,-0.05
0.07,0.52,-0.04
0.09,0.53,-0.02
0.12,0.57,-0.01
0.16,0.62,-0.01
0.18,0.67,-0.01
0.21,0.72,0.01
0.25,0.75,0.02
0.3,0.79,0.02
0.34,0.85,0.03
0.35,0.93,0.02
0.38,1,-0.01
0.41,1.08,-0.01
0.45,1.15,0.01
0.52,1.18,0.04
0.62,1.2,0.04
0.69,1.27,0.05
0.73,1.36,0.06
0.73,1.47,0.07
0.71,1.54,0.08
0.69,1.56,0.09
0.69,1.61,0.09
0.67,1.7,0.08
0.65,1.8,0.05
0.65,1.91,0.05
0.66,1.98,0.04
0.68,2.02,0.04
0.77,2.02,0.02
0.79,2,0.01
0.81,1.96,0
0.83,1.88,-0.01
0.84,1.82,-0.02
0.84,1.76,-0.03
0.83,1.71,-0.04
0.84,1.66,-0.04
0.83,1.62,-0.03
0.81,1.56,-0.02
0.79,1.49,-0.03
0.77,1.44,-0.04
0.74,1.4,-0.05
0.73,1.36,-0.04
0.73,1.32,-0.03
0.73,1.29,-0.02
0.72,1.25,-0.02
0.72,1.22,-0.03
0.72,1.18,-0.02
0.73,1.12,-0.01
0.76,1.06,0
0.8,1,0
0.84,0.95,0
0.85,0.89,0.02
0.86,0.85,0.04
0.86,0.82,0.04
0.87,0.8,0.06
0.88,0.8,0.06
0.89,0.8,0.07
0.9,0.8,0.09
0.92,0.8,0.09
0.94,0.8,0.1
0.94,0.81,0.11
0.93,0.8,0.11
0.94,0.8,0.12
0.95,0.81,0.12
0.96,0.81,0.13
0.96,0.82,0.13
0.94,0.83,0.13
0.92,0.85,0.12
0.91,0.89,0.11
0.9,0.93,0.09
0.91,0.98,0.08
0.91,1.04,0.05
0.9,1.11,0.03
0.88,1.19,0
0.86,1.27,-0.03
0.84,1.35,-0.05
0.82,1.44,-0.09
0.78,1.53,-0.11
0.74,1.61,-0.12
0.71,1.69,-0.13
0.7,1.79,-0.16
0.76,1.83,-0.18
0.77,1.89,-0.19
0.78,1.95,-0.18
0.79,2,-0.2
0.77,2.03,-0.2
0.7,2.04,-0.17
0.66,2,-0.18
0.68,1.92,-0.15
0.65,1.91,-0.11
0.57,1.94,-0.14
0.51,1.9,-0.16
0.53,1.79,-0.14
0.58,1.68,-0.12
0.58,1.62,-0.13
0.55,1.57,-0.14
0.56,1.52,-0.13
0.56,1.55,-0.13
0.51,1.62,-0.15
0.45,1.67,-0.15
0.37,1.69,-0.15
0.28,1.65,-0.14
0.18,1.52,-0.13
0.14,1.33,-0.14
0.13,1.15,-0.14
0.14,0.97,-0.15
0.16,0.73,-0.11
0.18,0.68,-0.13
0.15,0.55,-0.08
0.12,0.37,-0.06
0.14,0.35,-0.1
0.14,0.41,-0.11
0.08,0.43,-0.08
0.05,0.4,-0.05
0.04,0.36,-0.04
0.02,0.37,-0.03
0,0.41,-0.04
-0.02,0.44,-0.05
-0.03,0.46,-0.05
-0.04,0.5,-0.07
-0.05,0.56,-0.08
-0.05,0.6,-0.08
-0.04,0.63,-0.09
-0.05,0.65,-0.09
-0.04,0.67,-0.1
-0.03,0.68,-0.11
-0.01,0.69,-0.11
0.01,0.69,-0.11
0.02,0.69,-0.12
0.04,0.69,-0.13
0.07,0.69,-0.12
0.09,0.7,-0.1
0.11,0.74,-0.08
0.18,0.77,-0.06
0.22,0.81,-0.05
0.26,0.87,-0.05
0.28,0.93,-0.03
0.28,0.98,-0.02
0.3,1.02,0.01
0.36,1.08,0.03
0.41,1.17,0.05
0.44,1.28,0.05
0.46,1.42,0.05
0.44,1.57,0.04
0.43,1.68,0.04
0.43,1.77,0.04
0.45,1.85,0.04
0.47,1.91,0.03
0.52,1.94,0.01
0.55,1.97,0
0.55,1.99,-0.01
0.59,1.98,-0.02
0.67,1.95,-0.04
0.72,1.98,-0.04
0.73,2,-0.03
0.74,1.98,-0.01
0.75,1.94,0
0.76,1.87,-0.02
0.77,1.75,-0.07
0.72,1.59,-0.05
0.7,1.52,-0.04
0.69,1.44,-0.04
0.68,1.37,-0.05
0.69,1.32,-0.06
0.69,1.29,-0.06
0.68,1.28,-0.06
0.67,1.25,-0.07
0.67,1.22,-0.08
0.69,1.19,-0.1
0.71,1.16,-0.11
0.72,1.13,-0.11
0.73,1.11,-0.11
0.73,1.09,-0.13
0.74,1.08,-0.14
0.77,1.07,-0.14
0.8,1.04,-0.15
0.82,1,-0.15
0.84,0.94,-0.14
0.88,0.88,-0.12
0.92,0.84,-0.1
0.95,0.79,-0.07
0.97,0.75,-0.05
0.99,0.73,-0.03
1.01,0.71,-0.01
1.02,0.7,0.03
0.99,0.72,0.06
0.96,0.76,0.08
0.94,0.8,0.09
0.92,0.85,0.11
0.9,0.9,0.11
0.89,0.95,0.11
0.87,1.01,0.11
0.85,1.06,0.1
0.82,1.11,0.1
0.81,1.16,0.1
0.8,1.21,0.09
0.79,1.28,0.1
0.78,1.34,0.09
0.78,1.4,0.08
0.77,1.44,0.06
0.76,1.49,0.04
0.74,1.55,0.02
0.71,1.62,0.01
0.69,1.7,-0.01
0.67,1.77,-0.03
0.65,1.85,-0.05
0.61,1.92,-0.06
0.58,2,-0.06
0.55,2.06,-0.07
0.56,2.11,-0.07
0.56,2.17,-0.07
0.53,2.13,-0.07
0.51,2.03,-0.04
0.44,1.92,-0.01
0.36,1.78,-0.03
0.35,1.62,-0.05
0.37,1.52,-0.03
0.39,1.5,0.01
0.41,1.52,0.02
0.42,1.56,0.01
0.41,1.57,0
0.37,1.56,-0.01
0.31,1.52,-0.02
0.26,1.44,-0.03
0.2,1.31,-0.04
0.15,1.16,-0.05
0.1,1.06,-0.05
0.03,0.97,-0.06
0,0.84,-0.07
-0.03,0.75,-0.06
-0.07,0.68,-0.07
-0.04,0.62,-0.05
0,0.58,-0.05
0.02,0.54,-0.07
0.03,0.5,-0.08
0.03,0.47,-0.1
0.04,0.49,-0.14
0.02,0.57,-0.16
0,0.61,-0.18
-0.02,0.64,-0.19
-0.03,0.65,-0.2
-0.04,0.65,-0.21
-0.06,0.65,-0.21
-0.06,0.63,-0.2
-0.06,0.62,-0.2
-0.05,0.62,-0.19
-0.04,0.61,-0.19
-0.02,0.61,-0.19
0.01,0.63,-0.19
0.03,0.64,-0.18
0.04,0.66,-0.17
0.06,0.69,-0.17
0.09,0.72,-0.17
0.13,0.75,-0.17
0.16,0.79,-0.17
0.2,0.85,-0.16
0.24,0.92,-0.15
0.29,0.97,-0.12
0.35,1.03,-0.09
0.37,1.12,-0.06
0.36,1.22,-0.04
0.37,1.32,-0.01
0.38,1.41,0.02
0.43,1.56,0.04
0.45,1.61,0.05
0.48,1.69,0.07
0.49,1.81,0.07
0.5,1.93,0.06
0.53,2.04,0.04
0.53,2.13,0.02
0.54,2.16,0
0.57,2.15,-0.02
0.62,2.1,-0.05
0.72,2.01,-0.07
0.76,1.92,-0.05
0.82,1.8,-0.04
0.88,1.69,-0.04
0.88,1.6,-0.03
0.84,1.51,0
0.79,1.44,0.02
0.76,1.37,0.03
0.74,1.3,0.02
0.71,1.25,0.02
0.68,1.21,0.03
0.66,1.17,0.04
0.66,1.14,0.04
0.65,1.1,0.05
0.65,1.08,0.05
0.66,1.08,0.05
0.67,1.08,0.04
0.68,1.08,0.03
0.71,1.08,0.01
0.73,1.08,0
0.74,1.05,-0.02
0.77,1.02,-0.04
0.79,0.96,-0.04
0.79,0.91,-0.03
0.79,0.87,-0.02
0.8,0.82,-0.01
0.8,0.77,0
0.82,0.75,0.01
0.82,0.74,0.02
0.8,0.73,0.04
0.77,0.74,0.05
0.73,0.75,0.07
0.69,0.77,0.1
0.65,0.81,0.1
0.62,0.85,0.1
0.6,0.89,0.11
0.6,0.92,0.13
0.6,0.96,0.14
0.61,1.01,0.14
0.62,1.05,0.14
0.63,1.08,0.16
0.64,1.08,0.21
0.64,1.09,0.25
0.64,1.12,0.27
0.63,1.14,0.28
0.64,1.16,0.3
0.64,1.17,0.3
0.66,1.18,0.31
0.68,1.2,0.33
0.69,1.22,0.34
0.69,1.27,0.35
0.69,1.34,0.36
0.74,1.44,0.35
0.8,1.6,0.35
0.82,1.76,0.34
0.81,1.88,0.33
0.78,1.93,0.31
0.73,1.9,0.3
0.71,1.79,0.29
0.73,1.62,0.26
0.74,1.46,0.29
0.67,1.36,0.34
0.62,1.29,0.34
0.67,1.26,0.26
0.71,1.31,0.19
0.69,1.4,0.19
0.65,1.51,0.18
0.58,1.57,0.16
0.53,1.5,0.12
0.45,1.42,0.1
0.42,1.3,0.08
0.41,1.17,0.07
0.41,1.07,0.05
0.42,0.99,0.04
0.43,0.92,0.02
0.43,0.85,0.02
0.44,0.77,0.04
0.43,0.71,0.05
0.4,0.67,0.04
0.37,0.64,0.02
0.32,0.59,0.02
0.28,0.55,0.02
0.24,0.52,0.01
0.23,0.49,0
0.22,0.45,-0.02
0.21,0.43,-0.01
0.21,0.43,-0.01
0.24,0.43,-0.01
0.25,0.45,-0.02
0.23,0.44,-0.03
0.2,0.44,-0.04
0.19,0.44,-0.05
0.19,0.44,-0.04
0.19,0.44,-0.04
0.18,0.38,-0.03
0.19,0.38,-0.03
0.22,0.4,-0.03
0.24,0.4,-0.02
0.25,0.41,-0.01
0.25,0.42,-0.01
0.26,0.43,-0.01
0.27,0.44,0.01
0.29,0.44,0.04
0.3,0.47,0.04
0.29,0.5,0.02
0.27,0.54,0
0.25,0.58,0.01
0.26,0.62,0.03
0.28,0.7,0.02
0.29,0.82,0
0.29,0.95,-0.02
0.28,1.06,-0.04
0.28,1.12,-0.05
0.29,1.19,-0.07
0.32,1.27,-0.08
0.35,1.36,-0.09
0.37,1.46,-0.1
0.39,1.56,-0.11
0.41,1.66,-0.11
0.44,1.74,-0.1
0.46,1.76,-0.08
0.53,1.75,-0.08
0.54,1.77,-0.09
0.55,1.81,-0.09
0.57,1.84,-0.09
0.6,1.86,-0.08
0.61,1.84,-0.06
0.63,1.79,-0.05
0.64,1.72,-0.04
0.64,1.65,-0.06
0.65,1.58,-0.08
0.65,1.54,-0.1
0.64,1.52,-0.09
0.62,1.47,-0.09
0.61,1.42,-0.1
0.59,1.37,-0.11
0.56,1.32,-0.11
0.54,1.26,-0.1
0.55,1.22,-0.1
0.55,1.19,-0.1
0.54,1.18,-0.1
0.53,1.17,-0.1
0.54,1.16,-0.1
0.54,1.14,-0.1
0.55,1.12,-0.11
0.56,1.11,-0.12
0.59,1.08,-0.13
0.61,1.07,-0.13
0.63,1.05,-0.14
0.65,1.02,-0.15
0.67,0.99,-0.15
0.7,0.96,-0.15
0.73,0.92,-0.16
0.76,0.87,-0.16
0.79,0.82,-0.14
0.82,0.77,-0.13
0.85,0.73,-0.11
0.88,0.71,-0.09
0.91,0.69,-0.07
0.92,0.7,-0.06
0.91,0.72,-0.04
0.9,0.77,-0.01
0.87,0.84,0.01
0.85,0.92,0.03
0.82,0.99,0.05
0.79,1.07,0.05
0.76,1.14,0.05
0.73,1.2,0.06
0.73,1.27,0.08
0.75,1.36,0.1
0.76,1.44,0.11
0.76,1.48,0.11
0.74,1.49,0.14
0.72,1.46,0.16
0.72,1.46,0.18
0.7,1.46,0.2
0.69,1.45,0.21
0.68,1.44,0.19
0.67,1.42,0.17
0.65,1.4,0.15
0.62,1.37,0.14
0.6,1.35,0.13
0.59,1.35,0.1
0.58,1.38,0.06
0.56,1.44,0.03
0.53,1.52,0.01
0.55,1.61,-0.06
0.53,1.71,-0.05
0.37,1.76,-0.04
0.26,1.83,-0.1
0.31,1.85,-0.14
0.29,1.77,-0.17
0.2,1.77,-0.12
0.24,1.72,-0.1
0.32,1.6,-0.11
0.33,1.5,-0.09
0.28,1.42,-0.06
0.25,1.35,-0.04
0.26,1.27,-0.04
0.26,1.18,-0.03
0.01,1.3,-0.47
0.16,1.05,-0.42
0.41,0.8,0.06
0.19,1.05,-0.03
0.11,1.09,-0.04
0.13,1.02,0
0.09,0.99,0.01
0.07,0.92,0.02
0.01,0.84,0.02
-0.09,0.76,0.04
-0.12,0.69,0.07
-0.1,0.64,0.07
-0.08,0.6,0.09
-0.07,0.54,0.09
-0.06,0.5,0.08
-0.05,0.47,0.09
-0.03,0.45,0.08
-0.03,0.45,0.06
-0.02,0.48,0.05
0.01,0.54,0.03
0.02,0.61,0.02
0.02,0.67,0.01
0.03,0.72,0
0.04,0.75,0
0.03,0.75,-0.01
0.08,0.77,-0.03
0.13,0.88,-0.07
0.17,1.07,-0.11
0.18,1.27,-0.13
0.17,1.45,-0.17
0.15,1.57,-0.2
0.13,1.72,-0.22
0.12,1.78,-0.23
0.17,1.66,-0.25
0.24,1.51,-0.25
0.33,1.44,-0.27
0.42,1.44,-0.28
0.48,1.47,-0.26
0.51,1.51,-0.21
0.57,1.54,-0.15
0.63,1.55,-0.1
0.69,1.52,-0.06
0.69,1.54,-0.03
0.63,1.56,0
0.56,1.54,0.01
0.5,1.5,0
0.43,1.43,-0.01
0.37,1.4,0.01
0.37,1.39,0.03
0.39,1.33,0.03
0.43,1.29,-0.02
0.46,1.3,-0.05
0.46,1.27,-0.09
0.46,1.24,-0.12
0.46,1.22,-0.14
0.48,1.22,-0.16
0.5,1.21,-0.2
0.52,1.2,-0.23
0.53,1.19,-0.25
0.55,1.17,-0.26
0.57,1.15,-0.27
0.6,1.12,-0.28
0.62,1.09,-0.28
0.63,1.07,-0.28
0.64,1.03,-0.27
0.64,0.99,-0.25
0.64,0.94,-0.24
0.64,0.88,-0.23
0.63,0.84,-0.22
0.63,0.81,-0.2
0.63,0.78,-0.2
0.65,0.76,-0.19
0.66,0.76,-0.18
0.66,0.77,-0.18
0.68,0.8,-0.19
0.69,0.82,-0.18
0.68,0.84,-0.15
0.69,0.89,-0.14
0.7,0.93,-0.13
0.7,0.96,-0.12
0.71,0.98,-0.1
0.72,0.99,-0.08
0.73,1,-0.05
0.75,1.02,-0.02
0.79,1.09,0
0.85,1.2,0.03
0.87,1.31,0.06
0.85,1.38,0.1
0.83,1.4,0.14
0.82,1.39,0.18
0.83,1.36,0.22
0.86,1.35,0.27
0.9,1.35,0.32
0.91,1.32,0.38
0.92,1.26,0.43
0.95,1.23,0.45
0.97,1.23,0.45
0.96,1.28,0.44
0.93,1.37,0.46
0.94,1.42,0.44
0.96,1.56,0.4
0.82,1.73,0.37
0.66,1.8,0.32
0.56,1.78,0.35
0.45,1.81,0.34
0.42,1.68,0.27
0.45,1.48,0.23
0.46,1.35,0.21
0.45,1.26,0.21
0.41,1.16,0.21
0.39,1.05,0.2
0.37,0.96,0.2
0.33,0.88,0.19
0.3,0.82,0.19
0.29,0.75,0.18
0.28,0.68,0.17
0.29,0.65,0.14
0.3,0.64,0.12
0.32,0.66,0.12
0.33,0.68,0.12
0.35,0.69,0.1
0.37,0.69,0.09
0.37,0.68,0.08
0.38,0.67,0.07
0.4,0.65,0.06
0.41,0.64,0.06
0.42,0.63,0.05
0.43,0.62,0.03
0.43,0.61,0.01
0.41,0.57,0.01
0.39,0.54,0.01
0.37,0.52,0.01
0.36,0.5,0
0.36,0.47,-0.01
0.35,0.45,-0.01
0.33,0.44,-0.01
0.33,0.43,-0.02
0.33,0.44,-0.01
0.32,0.45,0
0.3,0.45,0.01
0.3,0.45,0.01
0.3,0.47,0.01
0.31,0.49,0.01
0.33,0.52,0.02
0.33,0.55,0.03
0.33,0.6,0.04
0.34,0.66,0.05
0.35,0.74,0.05
0.35,0.83,0.05
0.33,0.96,0.03
0.31,1.15,0
0.3,1.35,-0.02
0.29,1.54,-0.05
0.29,1.64,-0.08
0.33,1.63,-0.13
0.38,1.56,-0.15
0.49,1.5,-0.15
0.56,1.42,-0.13
0.61,1.32,-0.09
0.67,1.25,-0.04
0.73,1.19,0
0.79,1.17,0.02
0.81,1.18,0.04
0.77,1.2,0.06
0.7,1.23,0.08
0.61,1.25,0.07
0.51,1.28,0.06
0.44,1.3,0.06
0.46,1.33,0.08
0.55,1.33,0.06
0.59,1.27,0.04
0.45,1.27,0.04
0.34,1.3,0
0.46,1.32,-0.06
0.65,1.29,-0.12
0.68,1.24,-0.14
0.58,1.19,-0.11
0.52,1.14,-0.08
0.54,1.09,-0.11
0.56,1.03,-0.11
0.51,0.96,-0.09
0.46,0.86,-0.05
0.46,0.8,-0.04
0.46,0.74,-0.03
0.46,0.71,-0.03
0.48,0.69,-0.04
0.48,0.68,-0.03
0.5,0.67,-0.03
0.51,0.65,-0.03
0.51,0.64,-0.02
0.5,0.64,-0.02
0.5,0.64,-0.01
0.5,0.65,-0.01
0.51,0.66,-0.01
0.53,0.68,-0.02
0.56,0.7,-0.02
0.59,0.74,-0.01
0.61,0.77,-0.01
0.64,0.81,-0.01
0.65,0.84,-0.01
0.67,0.88,-0.01
0.69,0.91,-0.01
0.7,0.95,-0.01
0.72,1,0
0.72,1.03,0.02
0.73,1.06,0.02
0.73,1.08,0.02
0.74,1.17,0.04
0.78,1.28,0.07
0.78,1.39,0.08
0.75,1.45,0.09
0.71,1.47,0.08
0.67,1.46,0.08
0.64,1.43,0.1
0.62,1.37,0.11
0.6,1.29,0.11
0.6,1.21,0.1
0.59,1.15,0.1
0.59,1.08,0.09
0.59,1.02,0.08
0.6,0.97,0.07
0.6,0.96,0.05
0.6,0.99,0.04
0.58,1.04,0.02
0.56,1.09,0.01
0.54,1.13,-0.03
0.55,1.17,-0.07
0.5,1.24,-0.04
0.53,1.27,-0.16
0.62,1.35,-0.13
0.25,1.44,0.04
-0.04,1.41,0.04
0.1,1.38,0.03
0.34,1.29,-0.16
0.39,1.18,-0.1
0.27,1.18,-0.03
0.28,1.15,-0.03
0.36,1.08,-0.08
0.4,1.02,-0.09
0.39,0.99,-0.07
0.37,0.97,-0.06
0.35,0.93,-0.07
0.33,0.89,-0.08
0.29,0.86,-0.08
0.24,0.84,-0.07
0.22,0.81,-0.08
0.21,0.8,-0.08
0.21,0.78,-0.08
0.2,0.76,-0.08
0.19,0.74,-0.09
0.19,0.72,-0.09
0.18,0.7,-0.07
0.17,0.68,-0.06
0.16,0.66,-0.06
0.15,0.64,-0.06
0.14,0.61,-0.06
0.12,0.59,-0.05
0.11,0.59,-0.04
0.11,0.6,-0.05
0.13,0.62,-0.05
0.14,0.68,-0.04
0.14,0.74,-0.03
0.15,0.79,-0.04
0.16,0.83,-0.04
0.16,0.85,-0.02
0.16,0.87,-0.01
0.18,0.92,-0.02
0.22,1.04,-0.03
0.23,1.23,-0.04
0.22,1.41,-0.04
0.21,1.33,-0.05
0.18,1.38,-0.08
0.17,1.64,-0.08
0.21,1.64,-0.07
0.25,1.52,-0.08
0.28,1.38,-0.08
0.31,1.22,-0.08
0.33,1.08,-0.06
0.4,0.96,-0.03
0.49,0.9,-0.01
0.55,0.92,0.03
0.58,0.98,0.07
0.6,1.06,0.1
0.57,1.14,0.1
0.49,1.2,0.08
0.35,1.25,0.07
0.16,1.24,0.09
0.15,1.24,0.1
0.18,1.26,0.08
0.22,1.27,0.05
0.28,1.22,0.01
0.35,1.19,-0.02
0.4,1.17,-0.04
0.43,1.16,-0.06
0.44,1.13,-0.06
0.46,1.09,-0.07
0.47,1.07,-0.08
0.46,1.07,-0.06
0.43,1.07,-0.06
0.41,1.05,-0.07
0.4,1.03,-0.06
0.4,1.01,-0.05
0.41,0.99,-0.05
0.44,0.97,-0.04
0.47,0.94,-0.05
0.49,0.9,-0.04
0.5,0.87,-0.03
0.51,0.83,-0.02
0.52,0.8,-0.01
0.54,0.77,0
0.55,0.74,0
0.57,0.73,-0.01
0.62,0.73,-0.02
0.64,0.75,-0.02
0.64,0.78,-0.03
0.64,0.83,-0.04
0.66,0.88,-0.06
0.66,0.93,-0.06
0.66,0.97,-0.08
0.66,1,-0.09
0.66,1.03,-0.11
0.65,1.07,-0.11
0.64,1.1,-0.11
0.65,1.12,-0.12
0.68,1.17,-0.12
0.7,1.26,-0.1
0.69,1.34,-0.07
0.67,1.39,-0.05
0.63,1.4,-0.03
0.57,1.37,0.01
0.53,1.32,0.04
0.53,1.26,0.07
0.53,1.19,0.12
0.51,1.12,0.16
0.51,1.09,0.18
0.52,1.11,0.19
0.52,1.15,0.22
0.53,1.22,0.24
0.56,1.34,0.24
0.57,1.41,0.23
0.55,1.47,0.22
0.53,1.53,0.22
0.49,1.58,0.22
0.45,1.58,0.2
0.4,1.53,0.18
0.35,1.47,0.17
0.29,1.41,0.16
0.2,1.39,0.15
0.12,1.38,0.15
0.09,1.34,0.14
0.16,1.33,0.1
0.24,1.33,0.05
0.18,1.21,0.04
0.09,1.19,0.07
0.05,1.24,0.07
0.02,1.14,0.05
0.01,1.01,0.05
-0.01,0.93,0.06
-0.03,0.86,0.07
-0.02,0.8,0.07
0,0.74,0.06
0.01,0.72,0.05
0,0.71,0.05
0.01,0.71,0.02
-0.03,0.72,0.01
-0.05,0.71,0
-0.04,0.69,0
-0.04,0.66,0
-0.02,0.64,-0.01
0.01,0.63,-0.03
0.04,0.63,-0.04
0.04,0.64,-0.04
0.04,0.66,-0.05
0.05,0.68,-0.05
0.05,0.7,-0.05
0.04,0.72,-0.06
0.04,0.74,-0.08
0.03,0.76,-0.1
0.03,0.77,-0.11
0.02,0.79,-0.12
0.01,0.81,-0.13
0.02,0.84,-0.16
0.03,0.9,-0.19
0.04,1.03,-0.22
0.03,1.22,-0.27
0.02,1.42,-0.31
0.02,1.61,-0.35
0.03,1.77,-0.4
0.06,1.85,-0.44
0.08,1.81,-0.46
0.2,1.47,-0.42
0.28,1.37,-0.41
0.38,1.37,-0.4
0.47,1.42,-0.34
0.53,1.48,-0.28
0.57,1.52,-0.23
0.6,1.53,-0.21
0.6,1.52,-0.19
0.55,1.51,-0.18
0.48,1.51,-0.18
0.42,1.49,-0.16
0.37,1.43,-0.13
0.38,1.37,-0.12
0.42,1.33,-0.1
0.48,1.26,-0.1
0.54,1.16,-0.09
0.58,1.1,-0.08
0.57,1.07,-0.06
0.54,1.06,-0.04
0.51,1.06,-0.01
0.49,1.05,-0.01
0.46,1.04,-0.03
0.43,1.03,-0.05
0.41,1.02,-0.05
0.39,1,-0.06
0.4,0.99,-0.07
0.41,0.96,-0.1
0.44,0.94,-0.11
0.45,0.91,-0.12
0.46,0.88,-0.13
0.46,0.85,-0.13
0.46,0.82,-0.12
0.46,0.8,-0.11
0.49,0.77,-0.1
0.51,0.74,-0.09
0.53,0.72,-0.08
0.54,0.71,-0.07
0.55,0.7,-0.06
0.57,0.7,-0.05
0.59,0.72,-0.05
0.6,0.74,-0.05
0.61,0.79,-0.04
0.61,0.84,-0.01
0.61,0.89,0.01
0.62,0.94,0.01
0.63,0.98,0.03
0.65,1,0.06
0.65,1.01,0.08
0.66,1,0.11
0.68,1.01,0.14
0.73,1.07,0.17
0.8,1.17,0.22
0.87,1.45,0.27
0.89,1.53,0.28
0.82,1.53,0.3
0.75,1.47,0.33
0.7,1.4,0.36
0.67,1.31,0.42
0.67,1.2,0.45
0.72,1.1,0.45
0.78,1.05,0.44
0.8,1.06,0.44
0.81,1.12,0.42
0.82,1.21,0.39
0.79,1.33,0.36
0.75,1.45,0.31
0.69,1.54,0.28
0.6,1.63,0.3
0.48,1.73,0.33
0.4,1.79,0.35
0.4,1.75,0.3
0.42,1.65,0.25
0.41,1.54,0.22
0.38,1.47,0.22
0.38,1.4,0.21
0.39,1.31,0.18
0.4,1.23,0.16
0.4,1.16,0.14
0.39,1.07,0.1
0.35,1.03,0.08
0.33,0.99,0.06
0.29,0.96,0.04
0.25,0.92,0.03
0.23,0.89,0.02
0.22,0.84,0.01
0.19,0.8,0
0.17,0.78,-0.01
0.16,0.77,-0.02
0.15,0.75,-0.03
0.12,0.72,-0.04
0.1,0.71,-0.03
0.08,0.69,-0.03
0.06,0.67,-0.04
0.05,0.66,-0.05
0.05,0.65,-0.05
0.04,0.64,-0.05
0.03,0.62,-0.05
0.03,0.61,-0.06
0.03,0.59,-0.07
0.02,0.58,-0.07
0.03,0.57,-0.06
0.03,0.57,-0.06
0.04,0.57,-0.07
0.05,0.58,-0.07
0.06,0.64,-0.05
0.1,0.69,-0.06
0.12,0.81,-0.08
0.14,1.01,-0.11
0.14,1.23,-0.11
0.12,1.39,-0.13
0.08,1.27,-0.2
0.08,1.33,-0.25
0.12,1.63,-0.21
0.15,1.61,-0.18
0.22,1.45,-0.19
0.27,1.31,-0.17
0.32,1.21,-0.16
0.39,1.15,-0.13
0.47,1.12,-0.08
0.54,1.13,-0.02
0.61,1.22,0.03
0.64,1.36,0.07
0.63,1.52,0.1
0.55,1.65,0.08
0.46,1.7,0.07
0.41,1.64,0.06
0.36,1.57,0.05
0.33,1.53,0.07
0.32,1.48,0.06
0.33,1.42,0.05
0.41,1.38,0.01
0.59,1.3,0
0.63,1.27,-0.02
0.62,1.23,-0.04
0.58,1.2,-0.06
0.52,1.2,-0.07
0.5,1.19,-0.07
0.51,1.16,-0.08
0.5,1.14,-0.08
0.48,1.13,-0.09
0.48,1.12,-0.11
0.51,1.11,-0.12
0.54,1.09,-0.14
0.56,1.07,-0.15
0.57,1.06,-0.17
0.59,1.05,-0.18
0.6,1.02,-0.19
0.61,0.99,-0.19
0.63,0.95,-0.2
0.65,0.91,-0.21
0.65,0.87,-0.21
0.65,0.83,-0.21
0.67,0.79,-0.21
0.69,0.76,-0.21
0.7,0.74,-0.21
0.7,0.74,-0.2
0.7,0.75,-0.18
0.71,0.8,-0.18
0.72,0.82,-0.17
0.72,0.84,-0.16
0.71,0.86,-0.14
0.71,0.88,-0.09
0.72,0.9,-0.05
0.73,0.93,-0.03
0.73,0.97,-0.01
0.75,1.01,0.01
0.78,1.08,0.04
0.83,1.2,0.09
0.86,1.34,0.14
0.85,1.45,0.18
0.83,1.5,0.21
0.8,1.5,0.24
0.78,1.47,0.26
0.77,1.45,0.3
0.75,1.4,0.34
0.74,1.32,0.38
0.72,1.25,0.4
0.71,1.17,0.42
0.7,1.1,0.41
0.7,1.07,0.4
0.7,1.09,0.36
0.69,1.15,0.32
0.67,1.22,0.23
0.63,1.37,0.18
0.64,1.45,0.13
0.61,1.54,0.08
0.49,1.65,0.11
0.37,1.73,0.12
0.31,1.7,0.07
0.34,1.66,0.05
0.4,1.61,0.02
0.44,1.54,0.02
0.46,1.46,0
0.45,1.38,0
0.42,1.32,-0.01
0.42,1.29,-0.02
0.42,1.25,-0.02
0.42,1.21,-0.04
0.4,1.18,-0.05
0.39,1.15,-0.06
0.37,1.13,-0.07
0.35,1.1,-0.09
0.33,1.06,-0.09
0.32,1.03,-0.11
0.31,1,-0.11
0.3,0.96,-0.11
0.28,0.92,-0.11
0.25,0.87,-0.11
0.24,0.82,-0.11
0.22,0.74,-0.09
0.2,0.7,-0.1
0.19,0.66,-0.1
0.19,0.62,-0.09
0.19,0.58,-0.08
0.18,0.54,-0.07
0.17,0.52,-0.07
0.17,0.51,-0.07
0.15,0.49,-0.05
0.14,0.47,-0.04
0.14,0.47,-0.04
0.13,0.47,-0.04
0.12,0.47,-0.01
0.13,0.48,0
0.13,0.51,0
0.14,0.53,0
0.16,0.55,0
0.18,0.58,0.02
0.2,0.62,0.02
0.22,0.68,0.02
0.24,0.81,0.01
0.25,0.98,0.02
0.23,1.14,0.02
0.22,1.25,0
0.2,1.32,-0.01
0.19,1.37,-0.01
0.28,1.37,0.01
0.38,1.32,0.04
0.45,1.26,0.09
0.48,1.21,0.12
0.51,1.16,0.15
0.52,1.1,0.19
0.53,1.06,0.24
0.55,1.1,0.27
0.56,1.17,0.28
0.54,1.27,0.28
0.5,1.37,0.28
0.43,1.47,0.29
0.35,1.52,0.29
0.31,1.49,0.23
0.29,1.46,0.17
0.29,1.47,0.11
0.31,1.46,0.07
0.31,1.45,0.04
0.32,1.43,0.01
0.37,1.4,-0.03
0.43,1.38,-0.08
0.47,1.37,-0.11
0.48,1.36,-0.12
0.47,1.34,-0.14
0.47,1.31,-0.17
0.46,1.26,-0.2
0.46,1.16,-0.2
0.46,1.12,-0.18
0.48,1.09,-0.17
0.5,1.07,-0.17
0.5,1.04,-0.16
0.5,1.01,-0.14
0.5,0.97,-0.12
0.5,0.94,-0.08
0.52,0.9,-0.05
0.52,0.88,-0.04
0.51,0.87,-0.02
0.51,0.86,-0.01
0.51,0.84,0
0.5,0.82,0.02
0.49,0.82,0.03
0.47,0.83,0.04
0.47,0.86,0.05
0.46,0.88,0.06
0.46,0.89,0.07
0.46,0.89,0.07
0.46,0.89,0.08
0.45,0.9,0.1
0.43,0.9,0.12
0.4,0.9,0.14
0.36,0.9,0.17
0.32,0.9,0.2
0.29,0.89,0.24
0.23,0.88,0.25
0.19,0.87,0.27
0.17,0.86,0.28
0.15,0.86,0.29
0.12,0.85,0.31
0.11,0.86,0.32
0.11,0.87,0.32
0.13,0.88,0.32
0.13,0.89,0.33
0.14,0.91,0.34
0.16,0.93,0.34
0.18,0.96,0.35
0.2,0.98,0.36
0.24,1,0.36
0.28,1.03,0.36
0.33,1.06,0.38
0.38,1.08,0.38
0.44,1.12,0.35
0.49,1.14,0.31
0.53,1.13,0.3
0.57,1.11,0.28
0.59,1.07,0.27
0.61,1.05,0.25
0.66,1.05,0.22
0.71,1.06,0.18
0.76,1.11,0.12
0.85,1.14,0.09
0.88,1.16,0.06
0.9,1.18,0.04
0.9,1.19,0
0.87,1.2,-0.02
0.83,1.2,-0.02
0.81,1.18,-0.04
0.82,1.14,-0.07
0.79,1.1,-0.09
0.77,1.11,-0.07
0.77,1.13,-0.05
0.76,1.15,-0.09
0.76,1.15,-0.12
0.75,1.13,-0.14
0.74,1.1,-0.15
0.73,1.08,-0.15
0.73,1.05,-0.15
0.73,1.01,-0.16
0.72,0.99,-0.17
0.71,0.99,-0.19
0.68,0.99,-0.17
0.66,0.98,-0.17
0.63,0.97,-0.17
0.59,0.95,-0.16
0.56,0.93,-0.16
0.54,0.9,-0.16
0.48,0.88,-0.15
0.44,0.86,-0.14
0.41,0.83,-0.13
0.39,0.79,-0.13
0.38,0.77,-0.13
0.36,0.74,-0.13
0.34,0.72,-0.14
0.31,0.7,-0.13
0.29,0.67,-0.13
0.27,0.63,-0.12
0.25,0.6,-0.11
0.25,0.57,-0.11
0.25,0.56,-0.1
0.24,0.54,-0.1
0.22,0.52,-0.1
0.22,0.51,-0.09
0.21,0.5,-0.08
0.21,0.5,-0.07
0.2,0.5,-0.06
0.21,0.5,-0.05
0.22,0.5,-0.04
0.23,0.51,-0.03
0.24,0.55,-0.01
0.25,0.61,0.01
0.26,0.68,0.03
0.27,0.82,0.05
0.3,0.91,0.04
0.3,1.06,0.04
0.29,1.22,0.06
0.27,1.35,0.05
0.23,1.4,0.06
0.22,1.38,0.08
0.22,1.47,0.08
0.21,1.53,0.07
0.26,1.39,0.06
0.33,1.24,0.07
0.39,1.17,0.1
0.44,1.14,0.14
0.49,1.14,0.18
0.56,1.14,0.22
0.61,1.15,0.25
0.62,1.19,0.27
0.61,1.26,0.28
0.56,1.32,0.29
0.48,1.37,0.28
0.4,1.38,0.27
0.32,1.36,0.28
0.27,1.35,0.27
0.26,1.33,0.28
0.28,1.33,0.29
0.33,1.34,0.26
0.39,1.29,0.21
0.44,1.16,0.2
0.5,1.12,0.2
0.54,1.11,0.18
0.54,1.08,0.16
0.53,1.04,0.17
0.52,1.03,0.18
0.52,1.01,0.19
0.52,0.98,0.19
0.51,0.97,0.2
0.52,0.97,0.21
0.52,0.95,0.21
0.52,0.94,0.21
0.52,0.93,0.21
0.54,0.92,0.22
0.55,0.91,0.23
0.56,0.91,0.23
0.59,0.9,0.22
0.61,0.88,0.22
0.62,0.86,0.22
0.62,0.84,0.21
0.62,0.81,0.21
0.62,0.8,0.2
0.61,0.79,0.2
0.6,0.79,0.19
0.59,0.78,0.19
0.58,0.79,0.17
0.58,0.81,0.16
0.58,0.83,0.15
0.57,0.86,0.14
0.56,0.94,0.12
0.56,0.98,0.11
0.56,1.03,0.09
0.55,1.07,0.08
0.55,1.12,0.07
0.56,1.19,0.06
0.57,1.29,0.06
0.59,1.38,0.04
0.61,1.46,0.02
0.6,1.5,0.01
0.59,1.52,0
0.59,1.52,-0.01
0.59,1.5,-0.03
0.6,1.45,-0.05
0.6,1.39,-0.07
0.58,1.32,-0.09
0.57,1.23,-0.1
0.56,1.15,-0.14
0.6,1.09,-0.19
0.64,1.05,-0.24
0.69,1.03,-0.27
0.71,1.06,-0.31
0.7,1.21,-0.33
0.71,1.3,-0.35
0.73,1.38,-0.37
0.74,1.44,-0.4
0.75,1.47,-0.43
0.77,1.47,-0.46
0.76,1.45,-0.47
0.72,1.42,-0.46
0.7,1.36,-0.46
0.67,1.29,-0.44
0.64,1.24,-0.42
0.62,1.19,-0.4
0.59,1.13,-0.38
0.57,1.08,-0.37
0.55,1.03,-0.36
0.53,1,-0.36
0.5,0.97,-0.34
0.47,0.92,-0.32
0.43,0.88,-0.29
0.39,0.83,-0.28
0.36,0.78,-0.28
0.33,0.73,-0.28
0.29,0.69,-0.27
0.26,0.65,-0.26
0.24,0.62,-0.24
0.23,0.59,-0.22
0.25,0.56,-0.22
0.26,0.54,-0.21
0.26,0.54,-0.2
0.26,0.55,-0.19
0.26,0.55,-0.19
0.25,0.56,-0.17
0.24,0.57,-0.17
0.23,0.59,-0.16
0.23,0.62,-0.15
0.22,0.64,-0.14
0.22,0.66,-0.14
0.22,0.68,-0.13
0.22,0.7,-0.11
0.22,0.7,-0.1
0.22,0.71,-0.09
0.21,0.72,-0.07
0.21,0.72,-0.04
0.23,0.73,-0.02
0.24,0.77,0
0.25,0.85,0.02
0.26,0.97,0.06
0.28,1.06,0.08
0.26,0.9,0.02
0.24,1,0.03
0.23,1.33,0.09
0.23,1.37,0.13
0.29,1.37,0.14
0.31,1.37,0.16
0.32,1.36,0.19
0.35,1.33,0.22
0.38,1.27,0.26
0.41,1.23,0.31
0.43,1.2,0.35
0.45,1.18,0.37
0.44,1.17,0.39
0.45,1.15,0.4
0.46,1.16,0.37
0.43,1.19,0.38
0.36,1.26,0.41
0.28,1.34,0.43
0.24,1.39,0.42
0.25,1.43,0.42
0.2,1.44,0.43
0.16,1.43,0.41
0.2,1.45,0.4
0.22,1.43,0.39
0.25,1.41,0.34
0.33,1.36,0.27
0.4,1.32,0.24
0.41,1.29,0.23
0.4,1.26,0.23
0.39,1.21,0.21
0.41,1.13,0.21
0.42,1.09,0.2
0.44,1.05,0.21
0.45,1.02,0.21
0.47,1.01,0.22
0.49,0.99,0.23
0.5,0.96,0.23
0.49,0.93,0.22
0.49,0.91,0.23
0.5,0.9,0.25
0.51,0.9,0.25
0.53,0.9,0.24
0.57,0.89,0.22
0.6,0.86,0.21
0.62,0.85,0.2
0.64,0.85,0.2
0.65,0.83,0.19
0.67,0.82,0.19
0.67,0.82,0.19
0.68,0.83,0.19
0.69,0.85,0.2
0.69,0.86,0.2
0.69,0.87,0.19
0.69,0.87,0.18
0.68,0.89,0.18
0.66,0.91,0.19
0.63,0.96,0.17
0.62,0.99,0.16
0.61,1.03,0.14
0.61,1.1,0.13
0.61,1.18,0.12
0.6,1.24,0.1
0.57,1.28,0.09
0.56,1.31,0.07
0.55,1.34,0.05
0.55,1.37,0.03
0.56,1.41,0
0.55,1.46,-0.01
0.54,1.49,-0.01
0.54,1.49,-0.03
0.53,1.45,-0.05
0.52,1.38,-0.06
0.49,1.32,-0.07
0.48,1.26,-0.07
0.49,1.2,-0.09
0.46,1.15,-0.11
0.46,1.15,-0.13
0.53,1.19,-0.15
0.54,1.22,-0.15
0.52,1.29,-0.16
0.54,1.36,-0.2
0.53,1.4,-0.21
0.53,1.42,-0.23
0.58,1.36,-0.27
0.66,1.36,-0.29
0.7,1.36,-0.3
0.71,1.3,-0.32
0.76,1.21,-0.36
0.77,1.16,-0.38
0.72,1.15,-0.37
0.65,1.15,-0.35
0.62,1.12,-0.34
0.6,1.08,-0.33
0.57,1.05,-0.32
0.54,1.01,-0.31
0.52,0.96,-0.3
0.49,0.9,-0.28
0.46,0.84,-0.26
0.45,0.79,-0.24
0.44,0.74,-0.23
0.42,0.71,-0.24
0.4,0.68,-0.24
0.38,0.64,-0.22
0.35,0.63,-0.21
0.32,0.61,-0.2
0.3,0.59,-0.19
0.28,0.59,-0.19
0.27,0.58,-0.19
0.27,0.59,-0.19
0.25,0.6,-0.18
0.24,0.61,-0.18
0.23,0.62,-0.17
0.23,0.63,-0.17
0.23,0.62,-0.17
0.24,0.61,-0.18
0.26,0.6,-0.19
0.28,0.59,-0.18
0.29,0.57,-0.17
0.32,0.55,-0.16
0.34,0.54,-0.14
0.35,0.56,-0.12
0.36,0.6,-0.1
0.38,0.68,-0.08
0.39,0.75,-0.05
0.38,0.81,0
0.38,0.86,0.05
0.41,0.9,0.1
0.45,0.94,0.14
0.48,0.97,0.19
0.5,0.99,0.26
0.5,0.99,0.31
0.48,0.97,0.37
0.45,0.97,0.42
0.42,0.97,0.49
0.4,0.99,0.59
0.45,0.99,0.62
0.49,1.02,0.66
0.51,1.1,0.69
0.49,1.22,0.71
0.48,1.32,0.71
0.45,1.44,0.7
0.41,1.58,0.69
0.35,1.66,0.66
0.34,1.71,0.62
0.37,1.69,0.58
0.37,1.62,0.58
0.41,1.51,0.56
0.49,1.4,0.5
0.55,1.34,0.49
0.58,1.22,0.46
0.63,1.08,0.42
0.65,1.01,0.41
0.61,0.99,0.4
0.6,0.96,0.38
0.59,0.94,0.35
0.53,0.96,0.34
0.49,0.98,0.33
0.48,1,0.3
0.5,1.01,0.28
0.52,1.03,0.27
0.55,1.04,0.27
0.62,1.02,0.26
0.63,1.01,0.25
0.64,0.99,0.26
0.65,0.96,0.26
0.65,0.93,0.26
0.66,0.91,0.26
0.66,0.9,0.28
0.66,0.89,0.29
0.68,0.87,0.28
0.68,0.87,0.29
0.7,0.86,0.29
0.71,0.85,0.28
0.73,0.85,0.27
0.75,0.84,0.28
0.76,0.84,0.27
0.78,0.86,0.26
0.79,0.88,0.25
0.79,0.91,0.24
0.79,0.93,0.23
0.78,0.96,0.21
0.77,0.99,0.19
0.74,1.02,0.16
0.72,1.05,0.13
0.69,1.07,0.09
0.66,1.1,0.04
0.63,1.14,-0.08
0.56,1.24,-0.14
0.55,1.28,-0.23
0.55,1.32,-0.32
0.55,1.32,-0.41
0.57,1.27,-0.5
0.6,1.23,-0.55
0.61,1.19,-0.58
0.64,1.19,-0.62
0.63,1.23,-0.66
0.58,1.29,-0.69
0.55,1.34,-0.71
0.54,1.38,-0.73
0.58,1.39,-0.74
0.66,1.37,-0.77
0.75,1.36,-0.79
0.82,1.36,-0.79
0.87,1.38,-0.81
0.89,1.44,-0.84
0.83,1.45,-0.85
0.76,1.42,-0.83
0.71,1.4,-0.79
0.66,1.39,-0.74
0.61,1.38,-0.68
0.59,1.38,-0.62
0.58,1.4,-0.58
0.58,1.43,-0.51
0.61,1.48,-0.49
0.64,1.48,-0.47
0.67,1.46,-0.46
0.67,1.44,-0.46
0.67,1.39,-0.46
0.66,1.33,-0.46
0.66,1.28,-0.44
0.62,1.23,-0.41
0.59,1.17,-0.39
0.58,1.12,-0.37
0.54,1.07,-0.35
0.5,0.99,-0.33
0.46,0.92,-0.31
0.43,0.86,-0.3
0.39,0.8,-0.28
0.35,0.75,-0.27
0.32,0.71,-0.24
0.29,0.66,-0.22
0.27,0.62,-0.19
0.25,0.59,-0.16
0.24,0.57,-0.15
0.24,0.55,-0.14
0.24,0.52,-0.11
0.24,0.5,-0.1
0.23,0.48,-0.08
0.22,0.45,-0.06
0.22,0.42,-0.04
0.22,0.41,-0.01
0.21,0.4,0.01
0.22,0.4,0.04
0.24,0.41,0.06
0.25,0.43,0.09
0.26,0.47,0.12
0.28,0.51,0.16
0.3,0.55,0.19
0.3,0.59,0.2
0.3,0.64,0.22
0.3,0.7,0.24
0.29,0.75,0.25
0.28,0.8,0.27
0.3,0.83,0.28
0.33,0.86,0.31
0.33,0.87,0.32
0.34,0.9,0.33
0.37,0.92,0.34
0.38,0.96,0.36
0.4,1.06,0.39
0.4,1.18,0.41
0.39,1.31,0.43
0.36,1.42,0.45
0.3,1.29,0.42
0.28,1.45,0.43
0.28,1.78,0.43
0.32,1.72,0.39
0.31,1.68,0.35
0.32,1.64,0.32
0.37,1.59,0.29
0.42,1.56,0.28
0.45,1.52,0.28
0.45,1.5,0.27
0.44,1.48,0.27
0.43,1.44,0.27
0.43,1.41,0.24
0.42,1.37,0.22
0.39,1.33,0.22
0.38,1.29,0.23
0.38,1.22,0.2
0.34,1.17,0.18
0.3,1.14,0.19
0.28,1.1,0.19
0.3,1.11,0.18
0.33,1.13,0.15
0.32,1.09,0.13
0.32,1.06,0.12
0.35,1.05,0.1
0.36,1.05,0.09
0.35,1.04,0.09
0.36,1.03,0.07
0.41,0.97,0.06
0.42,0.93,0.06
0.43,0.9,0.04
0.45,0.86,0.03
0.48,0.83,0.03
0.49,0.82,0.03
0.51,0.79,0.03
0.52,0.78,0.02
0.52,0.78,0.01
0.52,0.77,0.02
0.52,0.77,0.01
0.53,0.78,0.01
0.54,0.81,0.01
0.55,0.84,0
0.57,0.88,-0.01
0.59,0.92,-0.02
0.59,0.96,-0.02
0.59,1,-0.03
0.58,1.02,-0.03
0.58,1.04,-0.04
0.6,1.08,-0.04
0.62,1.13,-0.02
0.66,1.19,0.01
0.69,1.23,0.03
0.7,1.24,0.04
0.67,1.21,0.04
0.63,1.14,0.07
0.62,1.11,0.1
0.59,1.07,0.12
0.58,1.03,0.14
0.6,1.01,0.15
0.6,0.99,0.17
0.6,0.96,0.18
0.61,0.96,0.18
0.61,0.99,0.17
0.61,1.07,0.15
0.61,1.19,0.14
0.61,1.32,0.12
0.6,1.45,0.1
0.58,1.56,0.09
0.56,1.66,0.08
0.54,1.72,0.07
0.53,1.72,0.06
0.52,1.71,0.05
0.5,1.7,0.04
0.46,1.67,0.04
0.44,1.61,0.03
0.44,1.55,0.01
0.4,1.51,0.04
0.36,1.47,0.07
0.34,1.4,0.07
0.33,1.32,0.06
0.32,1.2,0.07
0.3,1.14,0.08
0.3,1.08,0.07
0.3,1.02,0.07
0.3,0.99,0.08
0.28,0.95,0.08
0.26,0.94,0.09
0.23,0.92,0.08
0.21,0.88,0.07
0.18,0.85,0.07
0.15,0.85,0.07
0.13,0.84,0.05
0.12,0.81,0.05
0.11,0.79,0.04
0.1,0.78,0.03
0.1,0.77,0.03
0.1,0.76,0.02
0.09,0.75,0.02
0.07,0.74,0.02
0.05,0.72,0.02
0.03,0.72,0.01
0.03,0.7,0
0.03,0.69,-0.01
0.04,0.69,-0.01
0.05,0.67,-0.01
0.06,0.66,-0.01
0.07,0.67,-0.01
0.1,0.71,-0.01
0.12,0.77,-0.01
0.14,0.84,0
0.15,0.89,0.01
0.17,0.93,0.02
0.19,0.99,0
0.21,1.08,-0.01
0.23,1.18,-0.01
0.24,1.28,-0.02
0.24,1.32,-0.01
0.26,1.34,-0.01
0.3,1.34,0.01
0.32,1.37,0.03
0.33,1.38,0.03
0.37,1.33,0.03
0.41,1.3,0.04
0.43,1.33,0.05
0.45,1.38,0.07
0.46,1.44,0.07
0.46,1.45,0.08
0.48,1.43,0.08
0.48,1.42,0.06
0.46,1.41,0.05
0.44,1.39,0.04
0.42,1.38,0.04
0.44,1.38,0.01
0.47,1.38,0.01
0.49,1.35,0
0.52,1.31,-0.03
0.54,1.3,-0.05
0.53,1.31,-0.06
0.53,1.31,-0.09
0.53,1.28,-0.1
0.53,1.25,-0.12
0.56,1.23,-0.13
0.58,1.22,-0.14
0.58,1.19,-0.15
0.59,1.16,-0.16
0.59,1.11,-0.16
0.6,1.07,-0.17
0.61,1.03,-0.17
0.62,0.99,-0.16
0.61,0.95,-0.16
0.62,0.91,-0.16
0.62,0.87,-0.16
0.62,0.85,-0.15
0.63,0.83,-0.15
0.63,0.8,-0.14
0.64,0.78,-0.12
0.65,0.77,-0.11
0.66,0.77,-0.11
0.66,0.82,-0.13
0.66,0.86,-0.12
0.67,0.9,-0.11
0.69,0.94,-0.1
0.69,0.98,-0.09
0.69,1.03,-0.07
0.68,1.07,-0.06
0.69,1.11,-0.05
0.71,1.17,-0.03
0.73,1.25,0.01
0.74,1.31,0.04
0.73,1.32,0.07
0.71,1.28,0.1
0.69,1.23,0.13
0.69,1.19,0.17
0.69,1.16,0.21
0.67,1.11,0.26
0.66,1.07,0.32
0.66,1.02,0.35
0.64,1,0.35
0.62,0.97,0.35
0.6,0.95,0.36
0.58,0.93,0.37
0.57,0.91,0.38
0.56,0.91,0.37
0.55,0.93,0.35
0.55,0.98,0.3
0.56,1.15,0.29
0.56,1.25,0.27
0.52,1.33,0.25
0.47,1.4,0.23
0.46,1.46,0.21
0.46,1.5,0.18
0.43,1.55,0.16
0.4,1.59,0.15
0.38,1.59,0.14
0.37,1.54,0.1
0.35,1.46,0.07
0.3,1.39,0.12
0.27,1.32,0.14
0.32,1.23,0.09
0.34,1.14,0.05
0.31,1.07,0.05
0.29,1.04,0.07
0.3,1.01,0.07
0.31,0.98,0.05
0.31,0.95,0.04
0.29,0.93,0.03
0.27,0.92,0.03
0.27,0.9,0.02
0.26,0.88,0.01
0.24,0.88,0.01
0.23,0.88,0.01
0.2,0.9,0.01
0.19,0.92,0.01
0.17,0.93,0.01
0.15,0.93,0.01
0.13,0.93,0
0.11,0.92,-0.01
0.09,0.9,-0.01
0.07,0.87,-0.01
0.05,0.83,0
0.05,0.78,0
0.06,0.74,0
0.07,0.72,0.01
0.07,0.68,0.01
0.07,0.64,0.02
0.07,0.62,0.03
0.08,0.64,0.03
0.08,0.72,0.04
0.09,0.82,0.05
0.09,0.91,0.05
0.11,0.94,0.05
0.13,1.02,0.05
0.15,1.14,0.05
0.18,1.18,0.06
0.2,1.2,0.07
0.23,1.22,0.08
0.25,1.23,0.1
0.3,1.27,0.11
0.34,1.29,0.13
0.37,1.31,0.16
0.41,1.33,0.18
0.42,1.35,0.18
0.43,1.38,0.17
0.41,1.44,0.15
0.37,1.47,0.11
0.35,1.49,0.06
0.33,1.47,0.01
0.32,1.42,-0.04
0.31,1.38,-0.07
0.32,1.36,-0.12
0.39,1.34,-0.18
0.43,1.29,-0.23
0.51,1.23,-0.33
0.61,1.21,-0.42
0.69,1.16,-0.52
0.66,1.06,-0.57
0.59,1.09,-0.52
0.56,1.16,-0.51
0.49,1.12,-0.54
0.43,1.05,-0.55
0.42,1.02,-0.57
0.42,1.02,-0.58
0.41,1.01,-0.49
0.49,1.01,-0.45
0.55,1.01,-0.41
0.59,1,-0.37
0.61,0.99,-0.33
0.62,0.97,-0.32
0.62,0.94,-0.29
0.61,0.92,-0.27
0.61,0.9,-0.24
0.61,0.88,-0.21
0.59,0.89,-0.17
0.58,0.9,-0.14
0.57,0.91,-0.11
0.57,0.91,-0.09
0.57,0.92,-0.06
0.58,0.94,-0.04
0.59,0.95,-0.02
0.6,0.97,0
0.61,0.98,0.02
0.6,0.99,0.04
0.59,0.98,0.08
0.59,0.98,0.11
0.59,0.98,0.14
0.6,1,0.19
0.63,1.06,0.23
0.65,1.14,0.24
0.66,1.22,0.26
0.65,1.29,0.26
0.62,1.26,0.26
0.59,1.21,0.28
0.57,1.15,0.3
0.57,1.08,0.31
0.58,1.01,0.33
0.58,0.93,0.34
0.58,0.85,0.35
0.6,0.79,0.36
0.61,0.74,0.38
0.61,0.7,0.39
0.6,0.69,0.39
0.59,0.72,0.38
0.58,0.78,0.35
0.55,0.88,0.32
0.53,1.01,0.28
0.53,1.16,0.26
0.53,1.31,0.24
0.51,1.44,0.23
0.46,1.54,0.22
0.44,1.59,0.21
0.46,1.56,0.18
0.46,1.47,0.15
0.47,1.37,0.12
0.49,1.29,0.1
0.49,1.22,0.07
0.49,1.1,0.05
0.5,1.05,0.04
0.49,1.01,0.02
0.47,0.98,0.02
0.45,0.95,0.02
0.43,0.94,0.01
0.42,0.91,0.01
0.42,0.9,0.01
0.41,0.89,0.01
0.4,0.87,0.01
0.38,0.86,0.01
0.37,0.86,0.01
0.36,0.86,0
0.35,0.86,-0.01
0.34,0.87,-0.02
0.33,0.87,-0.01
0.32,0.86,0
0.31,0.85,0
0.31,0.84,-0.01
0.31,0.83,-0.01
0.3,0.83,-0.01
0.29,0.82,-0.01
0.29,0.82,-0.01
0.28,0.81,-0.01
0.27,0.8,-0.02
0.27,0.79,-0.02
0.27,0.75,-0.04
0.27,0.72,-0.04
0.28,0.69,-0.04
0.29,0.66,-0.03
0.3,0.63,-0.04
0.31,0.6,-0.04
0.32,0.59,-0.03
0.32,0.59,-0.02
0.32,0.6,0
0.31,0.63,0.02
0.31,0.68,0.03
0.3,0.74,0.02
0.28,0.81,0.01
0.25,0.84,0.01
0.25,0.9,0.01
0.23,1,0.03
0.2,1.01,0.02
0.21,1,0.01
0.22,1.03,0
0.23,1.07,0
0.26,1.11,0.01
0.3,1.12,0.02
0.33,1.12,0.04
0.37,1.11,0.05
0.41,1.1,0.06
0.43,1.09,0.07
0.45,1.03,0.11
0.47,1.01,0.11
0.46,1.02,0.11
0.43,1.06,0.12
0.4,1.1,0.14
0.38,1.14,0.16
0.35,1.19,0.18
0.34,1.25,0.18
0.35,1.29,0.2
0.37,1.32,0.21
0.41,1.31,0.21
0.46,1.26,0.19
0.51,1.21,0.18
0.55,1.14,0.19
0.56,1.06,0.21
0.58,0.98,0.21
0.61,0.92,0.22
0.6,0.88,0.23
0.58,0.86,0.25
0.56,0.85,0.26
0.55,0.85,0.26
0.54,0.86,0.26
0.54,0.88,0.26
0.54,0.89,0.26
0.54,0.9,0.26
0.55,0.91,0.26
0.56,0.92,0.25
0.57,0.92,0.25
0.58,0.92,0.25
0.59,0.9,0.25
0.59,0.9,0.25
0.6,0.9,0.25
0.59,0.89,0.25
0.58,0.89,0.25
0.56,0.88,0.25
0.56,0.87,0.25
0.55,0.87,0.24
0.54,0.86,0.23
0.53,0.87,0.22
0.52,0.87,0.21
0.51,0.87,0.2
0.5,0.87,0.19
0.5,0.89,0.18
0.52,0.89,0.16
0.54,0.91,0.13
0.55,0.95,0.1
0.56,1.01,0.08
0.56,1.07,0.05
0.56,1.11,0.02
0.56,1.11,0
0.56,1.05,-0.04
0.6,0.99,-0.11
0.68,0.91,-0.25
0.81,0.89,-0.31
0.84,0.88,-0.34
0.87,0.86,-0.38
0.88,0.86,-0.42
0.9,0.89,-0.48
0.92,0.92,-0.53
0.95,0.95,-0.56
0.96,0.99,-0.59
0.97,1.05,-0.64
0.96,1.12,-0.67
0.94,1.19,-0.7
0.92,1.26,-0.71
0.91,1.32,-0.7
0.89,1.38,-0.69
0.9,1.43,-0.66
0.9,1.45,-0.64
0.9,1.46,-0.62
0.88,1.49,-0.62
0.86,1.53,-0.64
0.81,1.57,-0.65
0.74,1.59,-0.63
0.68,1.56,-0.59
0.64,1.48,-0.56
0.61,1.39,-0.54
0.58,1.33,-0.52
0.55,1.26,-0.48
0.49,1.2,-0.47
0.45,1.17,-0.46
0.4,1.13,-0.45
0.33,1.08,-0.44
0.27,1.01,-0.42
0.24,0.94,-0.41
0.22,0.88,-0.39
0.2,0.82,-0.36
0.19,0.77,-0.34
0.19,0.72,-0.33
0.19,0.68,-0.31
0.17,0.66,-0.29
0.15,0.64,-0.27
0.13,0.63,-0.26
0.12,0.62,-0.25
0.11,0.61,-0.23
0.1,0.59,-0.21
0.09,0.57,-0.2
0.09,0.56,-0.19
0.08,0.54,-0.18
0.08,0.53,-0.16
0.09,0.54,-0.15
0.1,0.54,-0.14
0.11,0.54,-0.12
0.13,0.55,-0.11
0.16,0.56,-0.07
0.23,0.58,-0.04
0.26,0.6,-0.02
0.29,0.67,0.02
0.32,0.78,0.06
0.34,0.86,0.11
0.35,0.93,0.14
0.34,0.98,0.17
0.29,0.94,0.19
0.27,0.93,0.24
0.29,0.97,0.33
0.32,0.92,0.42
0.33,0.89,0.5
0.35,0.95,0.55
0.36,1.08,0.6
0.36,1.26,0.63
0.36,1.44,0.65
0.36,1.63,0.65
0.32,1.73,0.66
0.27,1.78,0.64
0.26,1.83,0.6
0.29,1.79,0.54
0.3,1.73,0.51
0.3,1.67,0.51
0.34,1.6,0.51
0.4,1.55,0.51
0.48,1.46,0.5
0.59,1.22,0.47
0.59,1.18,0.44
0.54,1.17,0.43
0.47,1.14,0.4
0.43,1.1,0.38
0.39,1.07,0.37
0.34,1.06,0.39
0.33,1.06,0.42
0.35,1.05,0.41
0.39,1.05,0.39
0.4,1.03,0.37
0.42,1.01,0.36
0.45,1,0.36
0.48,0.98,0.37
0.51,0.96,0.36
0.54,0.95,0.36
0.57,0.93,0.35
0.59,0.92,0.34
0.61,0.91,0.33
0.63,0.9,0.33
0.63,0.9,0.33
0.64,0.9,0.33
0.64,0.9,0.32
0.64,0.89,0.32
0.64,0.88,0.32
0.64,0.88,0.3
0.62,0.87,0.29
0.6,0.87,0.27
0.58,0.87,0.23
0.55,0.88,0.2
0.57,0.89,0.19
0.63,0.9,0.19
0.69,0.89,0.17
0.71,0.91,0.14
0.73,0.93,0.1
0.76,0.95,0.03
0.79,0.97,-0.03
0.8,1.02,-0.08
0.81,1.08,-0.13
0.83,1.15,-0.17
0.86,1.22,-0.21
0.89,1.28,-0.26
0.92,1.34,-0.32
0.96,1.36,-0.41
1,1.37,-0.49
1.02,1.36,-0.56
1.03,1.33,-0.62
1.02,1.29,-0.67
0.97,1.26,-0.7
0.9,1.25,-0.71
0.84,1.25,-0.72
0.81,1.28,-0.73
0.77,1.37,-0.75
0.77,1.42,-0.78
0.78,1.47,-0.82
0.78,1.53,-0.86
0.77,1.57,-0.89
0.77,1.58,-0.88
0.78,1.55,-0.86
0.78,1.53,-0.82
0.78,1.53,-0.78
0.82,1.54,-0.77
0.82,1.58,-0.76
0.75,1.58,-0.72
0.7,1.51,-0.68
0.68,1.43,-0.64
0.67,1.35,-0.6
0.64,1.29,-0.55
0.6,1.23,-0.51
0.6,1.15,-0.47
0.59,1.08,-0.43
0.57,1.03,-0.4
0.52,0.96,-0.38
0.44,0.9,-0.34
0.37,0.82,-0.32
0.32,0.77,-0.31
0.31,0.72,-0.31
0.27,0.66,-0.26
0.15,0.61,-0.24
0.12,0.57,-0.23
0.1,0.53,-0.22
0.07,0.5,-0.22
0.05,0.48,-0.2
0.04,0.47,-0.19
0.04,0.46,-0.19
0.04,0.47,-0.19
0.04,0.48,-0.19
0.05,0.5,-0.2
0.07,0.52,-0.19
0.09,0.53,-0.19
0.11,0.53,-0.19
0.13,0.55,-0.18
0.16,0.56,-0.16
0.17,0.58,-0.15
0.18,0.6,-0.14
0.19,0.62,-0.13
0.2,0.64,-0.12
0.22,0.67,-0.09
0.24,0.7,-0.06
0.27,0.74,-0.03
0.28,0.79,0.01
0.29,0.88,0.04
0.3,1,0.07
0.28,1.14,0.11
0.22,1.19,0.14
0.26,1.27,0.18
0.25,1.45,0.28
0.25,1.49,0.36
0.37,1.51,0.39
0.45,1.59,0.43
0.47,1.73,0.48
0.47,1.86,0.51
0.46,1.97,0.54
0.47,2.05,0.53
0.45,2.09,0.54
0.42,2.06,0.59
0.36,1.97,0.61
0.36,1.88,0.6
0.41,1.81,0.59
0.41,1.73,0.62
0.4,1.59,0.66
0.39,1.5,0.65
0.42,1.42,0.65
0.46,1.28,0.61
0.43,1.19,0.57
0.38,1.17,0.55
0.33,1.17,0.51
0.31,1.14,0.48
0.32,1.1,0.45
0.33,1.06,0.42
0.34,1.01,0.38
0.37,0.99,0.35
0.4,0.97,0.32
0.44,0.98,0.3
0.46,0.99,0.28
0.49,1,0.26
0.53,1.01,0.24
0.55,1.02,0.23
0.57,1.02,0.22
0.57,1,0.21
0.59,1,0.2
0.62,0.98,0.19
0.65,0.94,0.18
0.67,0.9,0.18
0.68,0.85,0.18
0.7,0.8,0.17
0.71,0.74,0.16
0.7,0.69,0.16
0.69,0.66,0.15
0.67,0.65,0.14
0.65,0.66,0.13
0.63,0.68,0.12
0.62,0.71,0.11
0.61,0.75,0.09
0.61,0.82,0.07
0.61,0.89,0.05
0.59,0.99,0.02
0.59,1.02,0
0.61,1.04,-0.02
0.64,1.07,-0.06
0.68,1.13,-0.09
0.75,1.21,-0.11
0.8,1.31,-0.13
0.83,1.41,-0.14
0.83,1.52,-0.15
0.84,1.62,-0.16
0.86,1.71,-0.17
0.87,1.77,-0.19
0.86,1.81,-0.21
0.84,1.84,-0.22
0.81,1.83,-0.23
0.79,1.79,-0.23
0.78,1.75,-0.25
0.77,1.74,-0.28
0.81,1.77,-0.32
0.86,1.84,-0.35
0.89,1.92,-0.37
0.93,1.99,-0.41
0.95,2.02,-0.44
0.93,2.02,-0.43
0.87,2.02,-0.46
0.85,1.94,-0.52
0.81,1.72,-0.52
0.68,1.64,-0.49
0.73,1.52,-0.51
0.77,1.44,-0.56
0.71,1.42,-0.58
0.61,1.35,-0.59
0.54,1.24,-0.58
0.51,1.13,-0.57
0.44,1.04,-0.55
0.35,0.95,-0.53
0.28,0.87,-0.49
0.22,0.82,-0.45
0.17,0.77,-0.41
0.13,0.71,-0.38
0.09,0.67,-0.35
0.06,0.64,-0.31
0.02,0.6,-0.29
-0.02,0.56,-0.26
-0.04,0.54,-0.24
-0.07,0.51,-0.22
-0.08,0.5,-0.22
-0.07,0.48,-0.21
-0.04,0.46,-0.19
-0.02,0.45,-0.18
-0.01,0.44,-0.16
0.01,0.43,-0.15
0.02,0.41,-0.15
0.05,0.41,-0.14
0.06,0.42,-0.14
0.08,0.43,-0.13
0.09,0.43,-0.13
0.11,0.45,-0.12
0.13,0.48,-0.1
0.15,0.52,-0.08
0.18,0.56,-0.06
0.2,0.6,-0.05
0.22,0.65,-0.03
0.23,0.73,-0.01
0.21,0.82,0.01
0.16,0.93,0.04
0.11,1.06,0.05
0.05,1.15,0.06
0.02,1.25,0.08
0.05,1.38,0.11
0.14,1.55,0.15
0.29,1.72,0.2
0.43,1.85,0.24
0.55,2,0.25
0.65,2.13,0.29
0.66,2.22,0.36
0.65,2.27,0.39
0.66,2.22,0.39
0.67,2.14,0.36
0.55,2.12,0.46
0.52,2.09,0.51
0.52,2.02,0.55
0.54,1.91,0.53
0.52,1.83,0.49
0.47,1.74,0.5
0.4,1.66,0.52
0.37,1.6,0.53
0.41,1.51,0.5
0.45,1.41,0.44
0.44,1.32,0.4
0.44,1.25,0.37
0.46,1.19,0.33
0.47,1.12,0.29
0.47,1.05,0.25
0.46,1,0.23
0.46,0.94,0.21
0.47,0.91,0.22
0.48,0.91,0.21
0.48,0.93,0.19
0.48,0.94,0.16
0.49,0.94,0.13
0.49,0.93,0.13
0.5,0.91,0.12
0.52,0.89,0.12
0.54,0.88,0.12
0.58,0.82,0.12
0.6,0.79,0.13
0.62,0.76,0.14
0.63,0.74,0.14
0.63,0.71,0.14
0.64,0.69,0.14
0.64,0.68,0.14
0.63,0.68,0.15
0.62,0.71,0.15
0.62,0.74,0.15
0.61,0.77,0.15
0.61,0.81,0.15
0.61,0.86,0.14
0.61,0.91,0.13
0.6,0.96,0.13
0.59,1.02,0.13
0.57,1.07,0.12
0.57,1.11,0.11
0.56,1.15,0.1
0.56,1.2,0.09
0.56,1.28,0.09
0.59,1.39,0.1
0.62,1.51,0.11
0.63,1.61,0.11
0.62,1.68,0.1
0.61,1.71,0.06
0.6,1.69,0.04
0.61,1.64,0.01
0.59,1.57,-0.01
0.57,1.51,-0.04
0.54,1.44,-0.06
0.52,1.38,-0.09
0.51,1.33,-0.11
0.49,1.28,-0.13
0.47,1.24,-0.16
0.51,1.25,-0.19
0.53,1.28,-0.22
0.58,1.33,-0.26
0.61,1.41,-0.29
0.6,1.51,-0.32
0.56,1.6,-0.39
0.5,1.66,-0.45
0.47,1.67,-0.47
0.43,1.6,-0.49
0.44,1.48,-0.51
0.49,1.38,-0.51
0.55,1.34,-0.51
0.58,1.32,-0.5
0.58,1.31,-0.51
0.57,1.29,-0.53
0.51,1.25,-0.55
0.43,1.18,-0.54
0.34,0.97,-0.52
0.3,0.89,-0.51
0.26,0.82,-0.49
0.23,0.76,-0.47
0.25,0.73,-0.46
0.24,0.72,-0.44
0.19,0.75,-0.42
0.17,0.76,-0.44
0.14,0.75,-0.44
0.1,0.73,-0.44
0.08,0.7,-0.43
0.06,0.67,-0.43
0.06,0.64,-0.42
0.05,0.62,-0.41
0.05,0.61,-0.4
0.06,0.62,-0.4
0.07,0.63,-0.39
0.07,0.63,-0.38
0.07,0.62,-0.36
0.08,0.63,-0.35
0.1,0.64,-0.33
0.12,0.66,-0.33
0.14,0.7,-0.33
0.16,0.73,-0.29
0.19,0.77,-0.24
0.23,0.81,-0.15
0.27,0.82,-0.1
0.28,0.81,-0.04
0.29,0.82,0.02
0.31,0.87,0.07
0.34,0.95,0.1
0.34,1.03,0.13
0.33,1.11,0.16
0.31,1.22,0.2
0.28,1.3,0.25
0.26,1.35,0.31
0.26,1.38,0.36
0.29,1.4,0.4
0.38,1.42,0.43
0.49,1.45,0.46
0.5,1.45,0.5
0.49,1.44,0.54
0.55,1.43,0.56
0.58,1.4,0.55
0.56,1.36,0.52
0.45,1.36,0.55
0.2,1.36,0.58
0.04,1.37,0.55
-0.04,1.4,0.57
-0.17,1.42,0.6
-0.32,1.5,0.66
-0.37,1.56,0.71
-0.24,1.55,0.66
-0.18,1.48,0.66
-0.11,1.41,0.65
-0.01,1.32,0.59
0.03,1.22,0.55
0.01,1.13,0.53
0.02,1.06,0.5
0.04,1.01,0.5
0.04,1,0.49
0.05,0.98,0.47
0.04,0.97,0.44
0.06,0.97,0.41
0.11,0.96,0.37
0.15,0.96,0.35
0.18,0.95,0.32
0.22,0.94,0.3
0.29,0.92,0.27
0.35,0.9,0.26
0.38,0.89,0.25
0.41,0.89,0.22
0.45,0.89,0.2
0.48,0.9,0.18
0.48,0.9,0.18
0.48,0.9,0.18
0.5,0.9,0.17
0.51,0.87,0.17
0.51,0.82,0.17
0.51,0.79,0.17
0.51,0.76,0.15
0.53,0.74,0.13
0.55,0.74,0.11
0.55,0.75,0.1
0.54,0.78,0.09
0.53,0.82,0.07
0.52,0.85,0.05
0.51,0.88,0.02
0.5,0.92,0
0.48,0.93,-0.01
0.5,0.96,-0.02
0.51,1.01,-0.03
0.51,1.08,-0.03
0.5,1.14,-0.03
0.54,1.2,-0.03
0.59,1.27,0
0.63,1.34,0.04
0.63,1.4,0.06
0.64,1.45,0.07
0.65,1.53,0.09
0.66,1.62,0.14
0.67,1.67,0.15
0.68,1.68,0.14
0.71,1.65,0.11
0.71,1.6,0.15
0.76,1.54,0.14
0.75,1.49,0.09
0.66,1.6,0.11
0.67,1.65,0.14
0.7,1.71,0.14
0.72,1.81,0.11
0.71,1.86,0.07
0.66,1.8,0.04
0.58,1.74,0.01
0.51,1.69,0.01
0.51,1.54,0.01
0.5,1.39,-0.01
0.46,1.28,-0.01
0.46,1.21,-0.05
0.45,1.16,-0.11
0.44,1.08,-0.12
0.43,1,-0.14
0.36,0.91,-0.14
0.33,0.81,-0.16
0.32,0.73,-0.17
0.31,0.67,-0.16
0.31,0.66,-0.17
0.29,0.64,-0.17
0.26,0.61,-0.17
0.26,0.59,-0.17
0.26,0.55,-0.16
0.26,0.52,-0.16
0.28,0.5,-0.16
0.3,0.48,-0.17
0.32,0.48,-0.17
0.35,0.48,-0.17
0.37,0.49,-0.16
0.4,0.49,-0.14
0.41,0.49,-0.13
0.44,0.48,-0.12
0.48,0.46,-0.12
0.52,0.44,-0.11
0.54,0.4,-0.1
0.56,0.37,-0.09
0.59,0.34,-0.08
0.63,0.32,-0.08
0.68,0.31,-0.08
0.72,0.32,-0.07
0.77,0.33,-0.04
0.81,0.33,0.01
0.83,0.31,0.05
0.84,0.27,0.07
0.86,0.23,0.07
0.88,0.2,0.08
0.89,0.17,0.07
0.9,0.15,0.07
0.91,0.12,0.11
0.91,0.12,0.13
0.92,0.11,0.17
0.94,0.09,0.2
0.96,0.09,0.19
0.96,0.08,0.19
0.96,0.07,0.18
0.95,0.06,0.16
0.93,0.07,0.15
0.92,0.1,0.14
0.92,0.15,0.13
0.92,0.21,0.14
0.96,0.27,0.15
1.01,0.31,0.14
1.05,0.34,0.11
1.08,0.35,0.09
1.08,0.35,0.09
1.09,0.33,0.12
1.07,0.29,0.17
1.03,0.25,0.21
0.99,0.23,0.25
0.96,0.22,0.29
0.96,0.23,0.34
0.96,0.25,0.36
0.96,0.26,0.31
1,0.27,0.27
1.01,0.27,0.32
0.98,0.29,0.35
0.96,0.31,0.39
0.93,0.33,0.44
0.93,0.34,0.49
0.85,0.35,0.38
0.82,0.35,0.43
0.86,0.35,0.63
0.85,0.31,0.64
0.84,0.26,0.67
0.79,0.24,0.72
0.74,0.25,0.73
0.7,0.28,0.72
0.68,0.3,0.73
0.7,0.34,0.76
0.76,0.36,0.81
0.81,0.35,0.85
0.81,0.33,0.86
0.78,0.3,0.82
0.74,0.26,0.77
0.75,0.24,0.7
0.81,0.23,0.65
0.84,0.22,0.66
0.85,0.22,0.67
0.83,0.21,0.69
0.8,0.2,0.71
0.79,0.17,0.72
0.75,0.15,0.71
0.75,0.14,0.7
0.77,0.13,0.7
0.8,0.15,0.73
0.82,0.17,0.77
0.82,0.17,0.79
0.8,0.14,0.79
0.78,0.12,0.79
0.76,0.1,0.78
0.75,0.09,0.78
0.73,0.08,0.8
0.73,0.09,0.83
0.73,0.1,0.85
0.74,0.09,0.84
0.74,0.08,0.82
0.72,0.06,0.79
0.69,0.04,0.76
0.65,0.02,0.75
0.61,0,0.77
0.59,-0.01,0.79
0.6,-0.01,0.8
0.63,0,0.82
0.69,0.01,0.81
0.73,0.01,0.8
0.7,0.03,0.84
0.67,0.05,1
0.76,0.06,1.01
0.79,0,0.93
0.75,0.03,0.92
0.67,0.05,0.91
0.6,0.04,0.87
0.56,0.04,0.85
0.53,0.05,0.81
0.54,0.05,0.77
0.56,0.03,0.73
0.55,-0.01,0.72
0.53,-0.03,0.72
0.52,-0.05,0.73
0.51,-0.04,0.75
0.51,-0.03,0.77
0.52,-0.05,0.77
0.52,-0.02,0.79
0.52,0,0.81
0.52,0.01,0.85
0.55,0.04,0.92
0.53,0.08,1.02
0.51,0.11,1.09
0.51,0.11,1.06
0.49,0.07,0.97
0.47,0.06,0.91
0.49,0.06,0.9
0.54,0.06,0.85
0.52,0.06,0.84
0.46,0.05,0.88
0.44,0.03,0.91
0.47,0.01,0.88
0.47,0.01,0.86
0.45,0,0.86
0.47,-0.02,0.85
0.5,-0.03,0.86
0.5,-0.02,0.88
0.47,0,0.91
0.42,0.03,0.93
0.41,0.04,0.93
0.41,0.04,0.93
0.41,0.04,0.93
0.39,0.04,0.93
0.4,0.06,0.92
0.44,0.07,0.92
0.47,0.07,0.91
0.47,0.07,0.89
0.47,0.08,0.87
0.46,0.08,0.87
0.48,0.07,0.86
0.49,0.06,0.86
0.48,0.07,0.87
0.47,0.07,0.9
0.47,0.08,0.92
0.43,0.11,0.89
0.42,0.12,0.91
0.4,0.13,0.91
0.39,0.13,0.91
0.41,0.11,0.89
0.45,0.1,0.87
0.48,0.1,0.85
0.5,0.11,0.85
0.49,0.1,0.86
0.49,0.07,0.89
0.49,0.06,0.9
0.49,0.06,0.9
0.47,0.04,0.9
0.45,0.04,0.89
0.46,0.05,0.88
0.48,0.05,0.87
0.51,0.05,0.87
0.53,0.06,0.87
0.54,0.07,0.87
0.54,0.07,0.86
0.53,0.07,0.86
0.52,0.07,0.86
0.51,0.07,0.87
0.5,0.07,0.88
0.49,0.07,0.89
0.48,0.07,0.89
0.48,0.06,0.89
0.49,0.05,0.88
0.49,0.04,0.88
0.48,0.04,0.89
0.48,0.04,0.89
0.47,0.04,0.9
0.47,0.04,0.89
0.47,0.05,0.89
0.47,0.05,0.89
0.47,0.05,0.88
0.48,0.05,0.88
0.48,0.05,0.89
0.49,0.06,0.89
0.48,0.06,0.89
0.47,0.07,0.89
0.47,0.07,0.89
0.47,0.07,0.89
0.48,0.07,0.88
0.48,0.07,0.89
0.49,0.07,0.88
0.49,0.06,0.88
0.47,0.06,0.89
0.46,0.06,0.89
0.45,0.07,0.9
0.46,0.06,0.9
0.47,0.06,0.89
0.48,0.05,0.88
0.48,0.05,0.88
0.48,0.05,0.89
0.48,0.05,0.89
0.47,0.05,0.89
0.47,0.06,0.89
0.47,0.06,0.89
0.47,0.06,0.89
0.48,0.06,0.89
0.48,0.06,0.88
0.48,0.06,0.88
0.48,0.06,0.88
0.47,0.07,0.88
0.47,0.07,0.88
0.47,0.07,0.89
0.48,0.08,0.9
0.49,0.07,0.9
0.47,0.06,0.88
0.46,0.05,0.87
0.47,0.06,0.89
0.49,0.06,0.91
0.49,0.04,0.89
0.47,0.04,0.88
0.47,0.04,0.89
0.47,0.05,0.9
0.47,0.05,0.89
0.47,0.05,0.88
0.47,0.06,0.89
0.47,0.06,0.89
0.46,0.06,0.89
0.45,0.07,0.9
0.46,0.07,0.9
0.47,0.06,0.89
0.47,0.06,0.89
0.46,0.06,0.89
0.46,0.07,0.89
0.47,0.07,0.89
0.5,0.07,0.88
0.5,0.06,0.87
0.5,0.05,0.87
0.49,0.05,0.88
0.48,0.06,0.88
0.46,0.06,0.89
0.46,0.05,0.89
0.46,0.05,0.9
0.47,0.05,0.89
0.48,0.05,0.89
0.47,0.05,0.89
0.48,0.05,0.89
0.48,0.05,0.89
0.48,0.06,0.89
0.48,0.05,0.89
