Acc_x,Acc_y,Acc_z
0.43,0.07,0.91
0.44,0.06,0.91
0.44,0.06,0.91
0.44,0.06,0.91
0.43,0.06,0.91
0.43,0.06,0.91
0.43,0.06,0.91
0.42,0.06,0.91
0.42,0.06,0.91
0.42,0.06,0.92
0.42,0.06,0.92
0.42,0.06,0.91
0.43,0.06,0.91
0.42,0.06,0.91
0.42,0.06,0.91
0.43,0.06,0.91
0.43,0.06,0.91
0.43,0.06,0.91
0.44,0.07,0.92
0.45,0.06,0.91
0.44,0.06,0.89
0.44,0.04,0.89
0.44,0.05,0.9
0.43,0.06,0.92
0.42,0.06,0.93
0.41,0.07,0.93
0.38,0.07,0.93
0.39,0.07,0.94
0.41,0.07,0.94
0.41,0.08,0.95
0.41,0.08,0.94
0.42,0.07,0.92
0.43,0.07,0.89
0.42,0.09,0.91
0.45,0.08,0.91
0.48,0.07,0.87
0.5,0.08,0.88
0.51,0.07,0.89
0.52,0.07,0.88
0.51,0.07,0.89
0.5,0.09,0.89
0.51,0.12,0.89
0.51,0.13,0.87
0.46,0.12,0.87
0.42,0.11,0.9
0.44,0.13,0.89
0.58,0.21,0.94
0.6,0.13,0.91
0.61,0.19,0.92
0.56,0.14,0.88
0.51,0.15,0.92
0.48,0.19,0.91
0.56,0.29,0.91
0.62,0.35,0.96
0.55,0.31,0.97
0.58,0.35,1.01
0.68,0.38,1.19
0.59,0.4,1.2
0.58,0.44,1.09
0.6,0.43,1.04
0.59,0.43,1.01
0.57,0.43,1.01
0.49,0.39,0.99
0.49,0.37,0.95
0.47,0.38,0.92
0.44,0.39,0.9
0.45,0.42,0.93
0.49,0.45,0.94
0.45,0.46,0.95
0.45,0.47,0.93
0.51,0.48,0.88
0.51,0.47,0.85
0.44,0.46,0.82
0.39,0.45,0.77
0.39,0.46,0.77
0.37,0.47,0.77
0.37,0.49,0.76
0.36,0.5,0.77
0.34,0.52,0.75
0.33,0.56,0.72
0.33,0.57,0.7
0.34,0.57,0.66
0.32,0.58,0.61
0.32,0.57,0.59
0.34,0.57,0.6
0.35,0.58,0.61
0.34,0.58,0.6
0.31,0.56,0.58
0.28,0.56,0.56
0.26,0.56,0.55
0.26,0.57,0.55
0.25,0.56,0.55
0.25,0.52,0.54
0.25,0.5,0.52
0.25,0.51,0.51
0.26,0.51,0.5
0.27,0.52,0.5
0.27,0.56,0.52
0.27,0.6,0.54
0.33,0.58,0.52
0.32,0.67,0.46
0.34,0.66,0.43
0.34,0.66,0.39
0.35,0.65,0.35
0.38,0.65,0.38
0.38,0.67,0.38
0.38,0.66,0.36
0.39,0.63,0.34
0.4,0.64,0.34
0.4,0.71,0.36
0.39,0.74,0.37
0.41,0.74,0.36
0.43,0.75,0.34
0.45,0.76,0.32
0.45,0.75,0.3
0.44,0.75,0.29
0.44,0.76,0.29
0.44,0.77,0.28
0.45,0.79,0.28
0.45,0.81,0.27
0.45,0.86,0.26
0.47,0.86,0.25
0.48,0.87,0.25
0.48,0.93,0.24
0.49,0.96,0.24
0.49,0.93,0.24
0.46,0.88,0.23
0.45,0.88,0.21
0.44,0.88,0.19
0.45,0.89,0.18
0.47,0.9,0.2
0.49,0.93,0.23
0.5,0.94,0.27
0.5,0.97,0.28
0.49,1,0.29
0.48,1.03,0.29
0.47,1.05,0.29
0.47,1.07,0.28
0.47,1.08,0.28
0.45,1.08,0.28
0.45,1.09,0.28
0.47,1.11,0.3
0.51,1.12,0.32
0.54,1.12,0.32
0.54,1.12,0.34
0.55,1.1,0.35
0.54,1.06,0.34
0.52,1.03,0.32
0.5,1,0.33
0.47,0.96,0.31
0.47,0.94,0.28
0.47,0.91,0.26
0.46,0.86,0.25
0.48,0.86,0.26
0.5,0.85,0.25
0.5,0.86,0.23
0.5,0.89,0.22
0.5,0.91,0.2
0.51,0.92,0.19
0.53,0.94,0.19
0.55,0.95,0.19
0.56,0.96,0.2
0.57,0.99,0.2
0.58,1.04,0.21
0.58,1.08,0.21
0.58,1.13,0.21
0.59,1.18,0.21
0.6,1.2,0.21
0.61,1.2,0.2
0.62,1.2,0.2
0.61,1.23,0.21
0.6,1.25,0.2
0.61,1.26,0.2
0.62,1.3,0.21
0.62,1.31,0.21
0.63,1.3,0.21
0.64,1.3,0.21
0.65,1.31,0.22
0.65,1.33,0.21
0.66,1.35,0.19
0.65,1.36,0.18
0.64,1.36,0.16
0.63,1.35,0.15
0.61,1.33,0.17
0.59,1.3,0.19
0.58,1.28,0.18
0.57,1.25,0.16
0.57,1.23,0.13
0.6,1.22,0.1
0.59,1.18,0.11
0.55,1.14,0.14
0.56,1.1,0.16
0.57,1.06,0.16
0.58,1.04,0.14
0.57,1.02,0.11
0.54,0.99,0.1
0.49,0.94,0.1
0.45,0.89,0.11
0.47,0.86,0.12
0.51,0.86,0.09
0.47,0.83,0.08
0.42,0.78,0.09
0.4,0.77,0.04
0.42,0.76,0.04
0.4,0.67,0.06
0.38,0.68,0.03
0.36,0.68,0
0.36,0.67,-0.01
0.33,0.66,-0.01
0.28,0.63,0.01
0.24,0.6,0.01
0.24,0.59,-0.03
0.22,0.58,-0.04
0.18,0.56,-0.01
0.15,0.59,-0.02
0.18,0.61,-0.05
0.19,0.59,-0.06
0.15,0.57,-0.05
0.09,0.56,-0.04
0.06,0.55,-0.05
0.06,0.53,-0.05
0.05,0.51,-0.06
0.09,0.48,-0.08
0.12,0.46,-0.06
0.08,0.49,-0.04
0.06,0.51,-0.01
0.09,0.54,0
0.12,0.56,0
0.14,0.59,0.02
0.15,0.65,0.04
0.19,0.76,0.03
0.21,0.8,0.03
0.22,0.83,0.02
0.22,0.88,0.01
0.26,0.94,0.04
0.29,0.99,0.06
0.3,1.04,0.03
0.34,1.13,0.02
0.38,1.23,0.04
0.4,1.26,0.05
0.45,1.31,0.05
0.5,1.4,0.07
0.52,1.46,0.06
0.54,1.51,0.06
0.56,1.55,0.05
0.58,1.65,0.06
0.6,1.7,0.06
0.63,1.7,0.03
0.68,1.73,0.04
0.71,1.76,0.06
0.73,1.75,0.08
0.76,1.72,0.09
0.76,1.7,0.1
0.77,1.68,0.09
0.82,1.65,0.07
0.81,1.64,0.07
0.78,1.68,0.04
0.73,1.69,0.04
0.73,1.67,0.06
0.74,1.63,0.07
0.74,1.55,0.09
0.74,1.46,0.11
0.74,1.36,0.12
0.75,1.25,0.14
0.76,1.16,0.15
0.77,1.07,0.15
0.76,0.99,0.14
0.76,0.93,0.13
0.77,0.89,0.13
0.77,0.87,0.13
0.77,0.85,0.13
0.77,0.85,0.11
0.77,0.86,0.1
0.78,0.86,0.09
0.79,0.87,0.07
0.82,0.87,0.05
0.84,0.87,0.04
0.86,0.85,0.04
0.89,0.83,0.04
0.92,0.81,0.04
0.96,0.79,0.03
0.98,0.78,0.03
1.01,0.8,0.04
1.01,0.8,0.01
1,0.79,0.02
0.99,0.82,0.02
0.98,0.87,0.02
0.99,0.92,0.02
1,0.96,0.02
1.02,1.01,0.01
1.02,1.05,0
1.01,1.1,-0.01
1,1.14,0
1,1.21,0.01
1,1.29,0
0.99,1.37,-0.01
0.98,1.46,-0.02
0.99,1.54,-0.05
1.01,1.63,-0.06
1.01,1.72,-0.07
0.99,1.81,-0.09
0.96,1.91,-0.12
0.92,2.01,-0.13
0.88,2.07,-0.14
0.85,2.07,-0.14
0.83,2.03,-0.14
0.81,1.96,-0.14
0.81,1.89,-0.12
0.82,1.81,-0.14
0.8,1.81,-0.18
0.76,1.86,-0.2
0.71,1.89,-0.19
0.65,1.89,-0.19
0.62,1.86,-0.17
0.63,1.76,-0.17
0.61,1.66,-0.16
0.57,1.56,-0.14
0.55,1.46,-0.15
0.53,1.38,-0.18
0.47,1.34,-0.19
0.41,1.3,-0.2
0.35,1.22,-0.19
0.28,1.12,-0.17
0.21,1,-0.16
0.16,0.89,-0.16
0.13,0.81,-0.17
0.09,0.71,-0.16
0.08,0.64,-0.14
0.08,0.62,-0.11
0.05,0.58,-0.09
0.06,0.55,-0.11
0.07,0.51,-0.1
0.06,0.47,-0.12
0.03,0.43,-0.14
0.01,0.42,-0.13
-0.02,0.42,-0.13
-0.01,0.43,-0.14
-0.01,0.45,-0.14
-0.01,0.47,-0.14
-0.02,0.49,-0.14
-0.02,0.5,-0.13
-0.03,0.49,-0.12
-0.03,0.49,-0.11
-0.02,0.49,-0.1
0,0.5,-0.1
0.02,0.51,-0.09
0.04,0.51,-0.09
0.06,0.53,-0.08
0.09,0.56,-0.07
0.12,0.6,-0.06
0.15,0.63,-0.06
0.2,0.67,-0.05
0.25,0.71,-0.04
0.29,0.76,-0.02
0.32,0.82,-0.01
0.32,0.88,-0.01
0.31,0.95,-0.01
0.34,1.03,0.01
0.39,1.11,0.03
0.41,1.23,0.02
0.43,1.37,0.02
0.46,1.59,-0.01
0.47,1.68,-0.03
0.52,1.76,-0.03
0.57,1.9,-0.05
0.59,1.93,-0.07
0.63,1.81,-0.1
0.69,1.71,-0.11
0.72,1.78,-0.11
0.74,1.85,-0.1
0.79,1.88,-0.08
0.82,1.93,-0.06
0.86,1.97,-0.05
0.89,2,-0.02
0.86,2.03,0.01
0.84,2.07,-0.01
0.85,2.1,-0.09
0.85,2.07,-0.13
0.85,2,-0.09
0.8,1.94,-0.02
0.75,1.93,0.04
0.8,1.82,0.02
0.83,1.64,-0.01
0.79,1.47,0
0.76,1.34,0.03
0.76,1.25,0.04
0.76,1.15,0.03
0.77,1.02,0.05
0.77,0.98,0.06
0.76,0.95,0.06
0.75,0.94,0.03
0.74,0.94,0.01
0.74,0.94,0
0.75,0.92,-0.02
0.78,0.91,-0.04
0.81,0.89,-0.04
0.84,0.86,-0.04
0.88,0.83,-0.04
0.93,0.8,-0.03
0.97,0.76,-0.02
1.02,0.73,-0.02
1.06,0.72,-0.01
1.09,0.72,0.01
1.1,0.73,0.03
1.09,0.74,0.04
1.07,0.77,0.04
1.04,0.81,0.04
1.01,0.87,0.05
0.98,0.92,0.05
0.97,0.96,0.06
0.97,1.01,0.05
0.98,1.05,0.04
0.98,1.1,0.02
0.95,1.22,0
0.93,1.27,0
0.9,1.34,-0.01
0.87,1.43,-0.02
0.85,1.5,-0.05
0.84,1.57,-0.07
0.85,1.64,-0.1
0.86,1.7,-0.13
0.86,1.75,-0.15
0.85,1.8,-0.17
0.82,1.87,-0.19
0.78,1.95,-0.2
0.78,2.02,-0.2
0.78,2.06,-0.22
0.73,2.1,-0.23
0.7,2.15,-0.24
0.65,2.16,-0.26
0.64,2.11,-0.24
0.63,1.99,-0.22
0.57,1.84,-0.2
0.52,1.69,-0.18
0.51,1.54,-0.17
0.52,1.42,-0.15
0.52,1.4,-0.15
0.49,1.45,-0.15
0.46,1.51,-0.15
0.43,1.59,-0.16
0.38,1.61,-0.16
0.32,1.6,-0.17
0.25,1.54,-0.17
0.17,1.45,-0.19
0.09,1.35,-0.2
0.04,1.23,-0.2
0.02,1.11,-0.2
0.01,1.01,-0.19
0.01,0.91,-0.18
0.02,0.81,-0.17
0.03,0.71,-0.17
0.03,0.62,-0.14
0.02,0.53,-0.12
0.01,0.47,-0.1
-0.01,0.42,-0.1
-0.03,0.4,-0.11
-0.05,0.39,-0.09
-0.05,0.41,-0.09
-0.04,0.44,-0.1
-0.03,0.48,-0.1
-0.03,0.52,-0.1
-0.03,0.57,-0.1
-0.04,0.62,-0.1
-0.05,0.66,-0.09
-0.07,0.69,-0.08
-0.07,0.7,-0.07
-0.04,0.68,-0.05
-0.01,0.67,-0.02
0.01,0.68,-0.02
0.03,0.7,-0.03
0.06,0.73,-0.03
0.09,0.76,-0.02
0.12,0.8,-0.01
0.15,0.84,0
0.18,0.88,-0.01
0.2,0.91,-0.02
0.22,0.95,-0.01
0.27,0.98,0
0.32,1.03,0.02
0.36,1.08,0.03
0.38,1.14,0.02
0.39,1.21,0.01
0.4,1.29,0
0.42,1.37,-0.02
0.43,1.38,-0.03
0.44,1.48,-0.03
0.46,1.67,-0.03
0.49,1.79,-0.05
0.54,1.89,-0.09
0.58,1.97,-0.12
0.59,2.05,-0.17
0.67,2.07,-0.18
0.67,2.03,-0.17
0.68,1.97,-0.16
0.73,1.88,-0.14
0.79,1.79,-0.12
0.81,1.7,-0.09
0.79,1.62,-0.06
0.77,1.59,-0.04
0.74,1.56,-0.03
0.73,1.57,-0.02
0.72,1.62,-0.03
0.7,1.68,-0.04
0.68,1.71,-0.02
0.67,1.7,0
0.65,1.65,0.01
0.62,1.57,0.03
0.59,1.46,0.05
0.58,1.34,0.06
0.59,1.21,0.08
0.64,1.12,0.08
0.7,1.07,0.07
0.74,1.03,0.06
0.76,1.01,0.06
0.78,0.98,0.05
0.79,0.95,0.04
0.8,0.9,0.02
0.83,0.8,0.02
0.86,0.75,0.04
0.88,0.72,0.05
0.92,0.7,0.06
0.95,0.67,0.07
0.98,0.65,0.08
1,0.65,0.08
1,0.66,0.08
0.99,0.68,0.09
0.98,0.72,0.08
0.98,0.77,0.07
0.96,0.82,0.07
0.94,0.89,0.06
0.94,0.95,0.04
0.94,1,0.03
0.93,1.04,0.02
0.91,1.09,0.01
0.9,1.12,0.01
0.88,1.15,0
0.87,1.18,-0.01
0.87,1.23,-0.03
0.86,1.28,-0.03
0.86,1.34,-0.04
0.88,1.4,-0.06
0.89,1.5,-0.09
0.91,1.61,-0.12
0.95,1.87,-0.16
0.94,1.99,-0.19
0.92,2.1,-0.23
0.88,2.19,-0.25
0.82,2.24,-0.26
0.76,2.26,-0.25
0.72,2.26,-0.22
0.69,2.23,-0.22
0.64,2.16,-0.22
0.59,2.04,-0.21
0.54,1.89,-0.2
0.48,1.76,-0.16
0.41,1.69,-0.14
0.38,1.62,-0.15
0.4,1.57,-0.15
0.41,1.6,-0.14
0.38,1.67,-0.12
0.33,1.72,-0.12
0.31,1.69,-0.12
0.31,1.65,-0.12
0.28,1.6,-0.12
0.22,1.51,-0.14
0.16,1.38,-0.15
0.13,1.24,-0.15
0.11,1.12,-0.15
0.11,1.03,-0.15
0.1,0.86,-0.15
0.1,0.79,-0.14
0.08,0.73,-0.13
0.04,0.64,-0.13
0.01,0.57,-0.12
0,0.52,-0.11
-0.01,0.47,-0.1
0,0.44,-0.09
0.01,0.44,-0.09
0.02,0.45,-0.09
0.02,0.48,-0.09
0.02,0.52,-0.09
0.01,0.57,-0.09
0,0.61,-0.09
-0.03,0.65,-0.1
-0.05,0.67,-0.1
-0.07,0.68,-0.09
-0.09,0.68,-0.09
-0.09,0.68,-0.09
-0.07,0.67,-0.1
-0.05,0.67,-0.1
-0.02,0.68,-0.1
0.01,0.69,-0.11
0.05,0.7,-0.1
0.09,0.72,-0.1
0.14,0.74,-0.09
0.19,0.8,-0.07
0.28,0.82,-0.05
0.33,0.87,-0.04
0.36,0.93,-0.03
0.39,0.99,-0.01
0.41,1.08,0.01
0.45,1.22,0.05
0.42,1.26,0.07
0.41,1.3,0.06
0.41,1.48,0.06
0.35,1.61,0.06
0.35,1.64,0.06
0.42,1.63,0.05
0.46,1.68,0.03
0.47,1.79,0.03
0.51,1.86,0.03
0.57,1.95,0
0.62,2,0
0.66,1.99,0.01
0.71,1.98,0.02
0.74,1.94,0.03
0.78,1.91,0.05
0.78,1.89,0.04
0.76,1.86,0.03
0.76,1.8,0.05
0.76,1.7,0.07
0.75,1.61,0.11
0.72,1.6,0.12
0.72,1.55,0.12
0.72,1.48,0.12
0.73,1.42,0.12
0.73,1.36,0.13
0.74,1.28,0.13
0.75,1.2,0.13
0.76,1.12,0.13
0.77,1.03,0.14
0.78,0.95,0.15
0.78,0.9,0.15
0.8,0.86,0.15
0.8,0.81,0.15
0.81,0.79,0.15
0.82,0.79,0.15
0.85,0.8,0.15
0.88,0.81,0.14
0.89,0.83,0.14
0.91,0.85,0.14
0.92,0.87,0.15
0.94,0.88,0.16
0.96,0.89,0.17
0.97,0.89,0.18
0.96,0.9,0.18
0.94,0.91,0.18
0.9,0.94,0.18
0.87,0.97,0.18
0.85,1,0.18
0.83,1.03,0.18
0.8,1.06,0.17
0.77,1.09,0.17
0.76,1.12,0.15
0.75,1.15,0.14
0.73,1.19,0.13
0.72,1.24,0.11
0.72,1.31,0.09
0.71,1.39,0.07
0.7,1.47,0.06
0.71,1.55,0.03
0.74,1.63,-0.01
0.77,1.7,-0.05
0.76,1.77,-0.07
0.73,1.81,-0.09
0.7,1.84,-0.09
0.71,1.85,-0.11
0.69,1.83,-0.18
0.62,1.82,-0.19
0.6,1.82,-0.17
0.61,1.76,-0.2
0.63,1.69,-0.23
0.64,1.64,-0.21
0.6,1.6,-0.24
0.59,1.44,-0.25
0.58,1.41,-0.24
0.58,1.44,-0.23
0.57,1.47,-0.23
0.55,1.49,-0.22
0.52,1.46,-0.21
0.49,1.44,-0.2
0.46,1.42,-0.18
0.41,1.34,-0.18
0.37,1.23,-0.19
0.33,1.13,-0.19
0.3,1.05,-0.19
0.28,0.95,-0.18
0.27,0.85,-0.15
0.28,0.76,-0.14
0.29,0.69,-0.13
0.29,0.64,-0.13
0.24,0.61,-0.13
0.19,0.57,-0.13
0.16,0.54,-0.13
0.14,0.5,-0.12
0.12,0.48,-0.11
0.13,0.47,-0.11
0.14,0.46,-0.11
0.16,0.46,-0.11
0.18,0.48,-0.12
0.23,0.54,-0.11
0.23,0.57,-0.09
0.22,0.6,-0.07
0.21,0.62,-0.06
0.21,0.63,-0.06
0.21,0.64,-0.06
0.21,0.65,-0.05
0.2,0.65,-0.04
0.21,0.65,-0.03
0.21,0.66,-0.03
0.22,0.67,-0.03
0.23,0.68,-0.01
0.25,0.68,0
0.26,0.69,0.01
0.27,0.69,0.01
0.28,0.7,0.02
0.28,0.7,0.04
0.28,0.72,0.05
0.28,0.75,0.04
0.29,0.78,0.03
0.3,0.81,0.04
0.32,0.86,0.04
0.34,0.91,0.04
0.37,0.96,0.04
0.38,1.03,0.05
0.4,1.1,0.07
0.43,1.26,0.06
0.46,1.35,0.06
0.49,1.44,0.07
0.51,1.52,0.08
0.56,1.59,0.07
0.56,1.68,0.07
0.55,1.75,0.07
0.59,1.81,0.06
0.65,1.88,0.06
0.64,1.94,0.09
0.65,1.95,0.08
0.71,1.91,0.12
0.72,1.8,0.19
0.72,1.72,0.24
0.76,1.65,0.24
0.83,1.56,0.13
0.88,1.45,0.03
0.81,1.36,0.05
0.7,1.41,0.16
0.65,1.43,0.21
0.67,1.35,0.15
0.65,1.26,0.1
0.56,1.22,0.09
0.47,1.19,0.11
0.44,1.16,0.12
0.46,1.12,0.07
0.48,1.07,0.07
0.46,1.05,0.07
0.46,1.01,0.05
0.47,0.97,0.03
0.48,0.94,0.03
0.46,0.89,0.02
0.45,0.85,0.01
0.46,0.83,0.01
0.48,0.82,0.01
0.51,0.83,0
0.53,0.82,0
0.55,0.81,0
0.59,0.79,0.01
0.61,0.79,0.01
0.61,0.79,0.02
0.61,0.8,0.04
0.61,0.81,0.05
0.62,0.81,0.06
0.63,0.81,0.08
0.61,0.82,0.1
0.62,0.84,0.1
0.65,0.85,0.09
0.68,0.86,0.08
0.71,0.88,0.08
0.73,0.89,0.08
0.75,0.91,0.08
0.75,0.95,0.08
0.74,0.99,0.08
0.72,1.02,0.1
0.7,1.04,0.1
0.68,1.05,0.11
0.67,1.06,0.12
0.66,1.08,0.13
0.67,1.11,0.13
0.68,1.14,0.15
0.7,1.18,0.15
0.72,1.22,0.14
0.73,1.26,0.12
0.73,1.3,0.1
0.72,1.34,0.08
0.71,1.38,0.06
0.71,1.43,0.04
0.7,1.49,0.02
0.7,1.54,0
0.69,1.58,-0.03
0.66,1.63,-0.06
0.57,1.67,-0.04
0.6,1.73,-0.07
0.7,1.76,-0.18
0.71,1.72,-0.2
0.69,1.69,-0.13
0.69,1.65,-0.12
0.77,1.43,-0.16
0.75,1.38,-0.16
0.71,1.38,-0.13
0.67,1.4,-0.12
0.65,1.45,-0.1
0.63,1.53,-0.1
0.6,1.61,-0.1
0.57,1.68,-0.11
0.53,1.7,-0.12
0.45,1.69,-0.11
0.4,1.6,-0.1
0.38,1.45,-0.1
0.36,1.29,-0.11
0.36,1.15,-0.12
0.35,1.02,-0.13
0.34,0.91,-0.15
0.33,0.83,-0.16
0.29,0.77,-0.15
0.25,0.7,-0.13
0.21,0.63,-0.11
0.18,0.57,-0.1
0.15,0.52,-0.09
0.12,0.49,-0.08
0.12,0.47,-0.08
0.12,0.46,-0.08
0.12,0.46,-0.09
0.11,0.48,-0.06
0.11,0.5,-0.04
0.1,0.52,-0.06
0.1,0.54,-0.06
0.1,0.57,-0.05
0.1,0.59,-0.03
0.11,0.61,-0.03
0.11,0.62,-0.03
0.12,0.62,-0.03
0.13,0.61,-0.03
0.14,0.6,-0.03
0.14,0.6,-0.03
0.15,0.59,-0.02
0.16,0.59,-0.01
0.18,0.59,-0.01
0.18,0.59,0.01
0.19,0.59,0.02
0.21,0.6,0.03
0.23,0.63,0.04
0.24,0.66,0.04
0.24,0.71,0.04
0.24,0.76,0.03
0.25,0.82,0.03
0.26,0.87,0.04
0.28,0.93,0.03
0.31,0.98,0.02
0.34,1.13,0.02
0.41,1.02,-0.01
0.45,1.1,-0.02
0.52,1.44,-0.01
0.61,1.57,0
0.68,1.55,-0.02
0.71,1.53,-0.03
0.7,1.56,-0.04
0.69,1.63,-0.02
0.66,1.69,0
0.62,1.71,-0.01
0.6,1.71,-0.02
0.58,1.7,0
0.6,1.67,0.04
0.64,1.69,0.06
0.73,1.73,0.04
0.83,1.69,0.07
0.84,1.65,0.02
0.85,1.68,-0.08
0.81,1.68,-0.04
0.72,1.63,0.02
0.69,1.62,0.03
0.67,1.62,0.01
0.65,1.57,0
0.6,1.5,-0.01
0.59,1.43,-0.02
0.58,1.34,0
0.56,1.3,0.01
0.59,1.27,-0.01
0.63,1.22,-0.03
0.65,1.17,-0.05
0.66,1.13,-0.07
0.69,1.1,-0.08
0.72,1.07,-0.09
0.74,1.04,-0.08
0.76,1.01,-0.08
0.76,0.96,-0.08
0.78,0.93,-0.08
0.8,0.9,-0.08
0.82,0.85,-0.07
0.84,0.81,-0.07
0.84,0.78,-0.05
0.83,0.76,-0.02
0.82,0.72,0
0.82,0.69,0.01
0.82,0.68,0.01
0.81,0.68,0.01
0.79,0.68,0.03
0.78,0.69,0.04
0.78,0.71,0.04
0.78,0.75,0.04
0.76,0.8,0.03
0.75,0.84,0.03
0.72,0.94,0.04
0.7,0.99,0.04
0.69,1.04,0.04
0.69,1.09,0.04
0.67,1.13,0.05
0.66,1.17,0.05
0.64,1.22,0.05
0.63,1.26,0.07
0.64,1.31,0.08
0.65,1.36,0.09
0.65,1.42,0.1
0.65,1.47,0.1
0.65,1.5,0.1
0.65,1.53,0.1
0.64,1.56,0.09
0.63,1.58,0.08
0.63,1.59,0.07
0.63,1.61,0.06
0.62,1.63,0.07
0.62,1.64,0.05
0.65,1.65,0.02
0.67,1.67,0.01
0.69,1.68,0
0.74,1.68,-0.06
0.78,1.71,-0.07
0.78,1.78,-0.02
0.82,1.74,-0.05
0.77,1.67,-0.06
0.7,1.58,-0.06
0.71,1.43,-0.06
0.73,1.28,-0.06
0.72,1.21,-0.06
0.71,1.22,-0.06
0.72,1.24,-0.07
0.66,1.28,-0.05
0.6,1.31,-0.05
0.59,1.3,-0.07
0.51,1.25,-0.06
0.45,1.16,-0.06
0.42,1.05,-0.07
0.37,0.94,-0.09
0.35,0.86,-0.12
0.34,0.8,-0.13
0.33,0.74,-0.13
0.33,0.7,-0.12
0.33,0.65,-0.09
0.34,0.6,-0.07
0.35,0.58,-0.08
0.3,0.56,-0.08
0.25,0.55,-0.08
0.21,0.53,-0.09
0.18,0.52,-0.08
0.15,0.5,-0.09
0.16,0.5,-0.07
0.17,0.51,-0.07
0.19,0.52,-0.09
0.19,0.52,-0.08
0.2,0.53,-0.07
0.19,0.54,-0.06
0.16,0.54,-0.06
0.14,0.53,-0.06
0.12,0.53,-0.05
0.11,0.51,-0.03
0.13,0.49,-0.01
0.16,0.48,0
0.18,0.46,0.03
0.21,0.45,0.05
0.23,0.46,0.07
0.25,0.48,0.08
0.26,0.5,0.09
0.27,0.53,0.09
0.26,0.56,0.08
0.26,0.59,0.09
0.26,0.61,0.09
0.27,0.62,0.08
0.33,0.64,0.1
0.39,0.7,0.12
0.43,0.76,0.11
0.44,0.93,0.11
0.44,1.02,0.11
0.42,1.07,0.11
0.41,1.14,0.11
0.42,1.22,0.09
0.42,1.3,0.08
0.44,1.36,0.06
0.46,1.38,0.05
0.48,1.46,0.01
0.52,1.63,0
0.55,1.68,0.01
0.58,1.63,-0.03
0.58,1.66,-0.04
0.57,1.71,-0.03
0.61,1.74,-0.04
0.66,1.79,-0.06
0.64,1.83,-0.08
0.65,1.85,-0.07
0.69,1.89,-0.02
0.7,1.91,-0.01
0.7,1.89,-0.03
0.7,1.82,0.01
0.71,1.73,0.04
0.69,1.62,0.02
0.65,1.51,0.05
0.65,1.42,0.12
0.63,1.34,0.13
0.58,1.31,0.14
0.53,1.28,0.14
0.49,1.25,0.11
0.46,1.29,0.1
0.39,1.36,0.1
0.34,1.43,0.09
0.32,1.5,0.04
0.31,1.53,-0.01
0.3,1.5,-0.04
0.32,1.41,-0.06
0.34,1.29,-0.07
0.38,1.17,-0.07
0.42,1.07,-0.07
0.46,0.98,-0.06
0.46,0.91,-0.03
0.44,0.87,0
0.42,0.83,0.01
0.4,0.81,0.02
0.36,0.8,0.03
0.32,0.8,0.03
0.27,0.8,0.04
0.23,0.82,0.05
0.24,0.85,0.06
0.26,0.86,0.06
0.29,0.86,0.06
0.35,0.86,0.06
0.37,0.86,0.08
0.37,0.85,0.11
0.38,0.83,0.14
0.38,0.82,0.15
0.37,0.81,0.17
0.35,0.79,0.19
0.34,0.77,0.21
0.34,0.77,0.22
0.33,0.77,0.23
0.33,0.78,0.24
0.34,0.79,0.24
0.35,0.83,0.23
0.36,0.85,0.22
0.38,0.89,0.2
0.4,0.93,0.19
0.41,0.96,0.18
0.44,0.99,0.17
0.48,1.01,0.16
0.52,1.03,0.15
0.56,1.05,0.14
0.61,1.08,0.13
0.65,1.11,0.12
0.67,1.13,0.11
0.69,1.15,0.12
0.69,1.19,0.11
0.67,1.26,0.12
0.68,1.3,0.1
0.72,1.35,0.07
0.75,1.4,0.03
0.75,1.45,0.01
0.75,1.49,-0.01
0.75,1.52,-0.01
0.75,1.56,-0.02
0.77,1.6,-0.03
0.77,1.66,-0.08
0.76,1.73,-0.16
0.66,1.78,-0.22
0.6,1.8,-0.2
0.78,1.76,-0.18
0.86,1.77,-0.2
0.78,1.84,-0.21
0.78,1.88,-0.21
0.76,1.87,-0.19
0.73,1.84,-0.17
0.71,1.81,-0.16
0.7,1.75,-0.17
0.71,1.65,-0.18
0.71,1.56,-0.15
0.73,1.53,-0.11
0.75,1.54,-0.09
0.72,1.58,-0.1
0.68,1.63,-0.14
0.59,1.58,-0.13
0.52,1.48,-0.13
0.47,1.35,-0.14
0.45,1.2,-0.14
0.46,1.07,-0.13
0.46,0.96,-0.13
0.44,0.88,-0.11
0.4,0.79,-0.08
0.35,0.69,-0.07
0.31,0.63,-0.08
0.27,0.56,-0.07
0.23,0.49,-0.05
0.21,0.45,-0.04
0.21,0.41,-0.05
0.2,0.36,-0.05
0.2,0.33,-0.04
0.21,0.31,-0.01
0.23,0.31,-0.01
0.25,0.33,-0.02
0.22,0.33,-0.03
0.2,0.34,-0.03
0.19,0.37,-0.03
0.18,0.4,-0.02
0.18,0.42,-0.02
0.17,0.43,-0.03
0.17,0.45,-0.04
0.17,0.45,-0.04
0.17,0.45,-0.05
0.17,0.44,-0.04
0.19,0.44,-0.03
0.2,0.42,-0.01
0.2,0.41,0.01
0.21,0.41,0.01
0.23,0.43,0.02
0.23,0.45,0.03
0.22,0.46,0.05
0.23,0.49,0.05
0.25,0.53,0.02
0.26,0.56,0
0.3,0.58,0
0.34,0.6,0.03
0.39,0.64,0.08
0.42,0.71,0.11
0.46,0.8,0.12
0.48,0.87,0.11
0.41,0.93,0.11
0.33,0.95,0.11
0.34,0.95,0.1
0.39,1.01,0.1
0.46,1.06,0.1
0.55,1.14,0.11
0.61,1.37,0.12
0.65,1.45,0.09
0.64,1.52,0.07
0.65,1.6,0.06
0.66,1.7,0.04
0.66,1.8,0.02
0.66,1.83,0
0.66,1.93,-0.05
0.68,2.08,-0.07
0.69,2.11,-0.06
0.71,2.13,-0.07
0.79,2.11,-0.07
0.81,2.05,-0.03
0.92,1.95,-0.02
0.96,1.92,-0.05
0.88,1.92,0
0.94,1.77,0
0.97,1.62,-0.05
0.85,1.53,-0.05
0.73,1.5,-0.02
0.7,1.5,0
0.71,1.43,-0.03
0.73,1.34,-0.06
0.71,1.32,-0.06
0.7,1.3,-0.05
0.71,1.29,-0.05
0.74,1.23,-0.08
0.78,1.18,-0.08
0.78,1.14,-0.08
0.78,1.08,-0.09
0.79,1.02,-0.09
0.79,0.95,-0.1
0.79,0.89,-0.09
0.77,0.82,-0.08
0.77,0.79,-0.08
0.77,0.74,-0.08
0.76,0.71,-0.07
0.75,0.71,-0.07
0.76,0.7,-0.07
0.75,0.71,-0.07
0.72,0.72,-0.05
0.7,0.72,-0.05
0.68,0.73,-0.06
0.66,0.75,-0.06
0.63,0.77,-0.05
0.61,0.79,-0.04
0.6,0.83,-0.03
0.58,0.85,-0.02
0.56,0.88,0
0.55,0.9,0.01
0.55,0.93,0.03
0.53,0.96,0.05
0.5,1,0.09
0.44,1.06,0.11
0.42,1.1,0.13
0.41,1.13,0.14
0.42,1.17,0.14
0.45,1.18,0.12
0.47,1.18,0.12
0.48,1.18,0.11
0.49,1.17,0.08
0.51,1.16,0.07
0.52,1.16,0.09
0.54,1.18,0.1
0.57,1.19,0.08
0.56,1.2,0.08
0.56,1.23,0.09
0.59,1.28,0.07
0.62,1.31,0.07
0.65,1.34,0.05
0.74,1.33,-0.02
0.78,1.33,-0.06
0.79,1.41,-0.1
0.69,1.49,-0.17
0.78,1.55,-0.18
0.81,1.65,-0.11
0.69,1.75,-0.08
0.79,1.77,-0.12
0.83,1.68,-0.15
0.87,1.39,-0.13
0.9,1.36,-0.1
0.91,1.39,-0.09
0.89,1.42,-0.08
0.89,1.46,-0.07
0.88,1.51,-0.06
0.83,1.57,-0.06
0.76,1.58,-0.07
0.7,1.52,-0.07
0.65,1.4,-0.09
0.64,1.26,-0.1
0.67,1.15,-0.09
0.72,1.07,-0.06
0.77,0.99,-0.05
0.77,0.94,-0.03
0.71,0.92,-0.02
0.63,0.87,-0.03
0.52,0.82,-0.03
0.41,0.76,-0.03
0.31,0.65,-0.04
0.26,0.6,-0.04
0.25,0.6,-0.05
0.22,0.58,-0.09
0.21,0.54,-0.1
0.25,0.51,-0.09
0.28,0.49,-0.08
0.27,0.49,-0.09
0.25,0.5,-0.08
0.21,0.52,-0.06
0.18,0.52,-0.05
0.17,0.51,-0.05
0.17,0.51,-0.05
0.14,0.5,-0.05
0.11,0.48,-0.05
0.11,0.48,-0.04
0.12,0.48,-0.04
0.12,0.49,-0.04
0.12,0.5,-0.04
0.12,0.5,-0.05
0.12,0.49,-0.05
0.12,0.48,-0.03
0.13,0.47,-0.02
0.13,0.47,0
0.14,0.49,0.01
0.15,0.51,0.02
0.16,0.54,0.03
0.17,0.56,0.04
0.2,0.58,0.05
0.21,0.58,0.06
0.23,0.59,0.08
0.25,0.62,0.08
0.26,0.67,0.07
0.32,0.79,0.05
0.37,0.88,0.04
0.41,0.95,0.04
0.47,1,0.05
0.56,1.05,0.06
0.64,1.09,0.07
0.71,1.14,0.07
0.77,1.21,0.08
0.78,1.3,0.09
0.78,1.4,0.07
0.71,1.34,0.06
0.69,1.45,0.04
0.71,1.74,0.02
0.68,1.82,-0.02
0.71,1.86,-0.07
0.75,1.89,-0.09
0.8,1.94,-0.11
0.85,2,-0.1
0.87,2.02,-0.09
0.9,1.98,-0.1
0.87,1.89,-0.08
0.89,1.81,-0.02
0.94,1.71,-0.01
0.94,1.61,-0.02
0.94,1.52,-0.02
0.95,1.33,0.03
0.77,1.31,0.08
0.76,1.3,0.03
0.78,1.23,-0.03
0.75,1.19,-0.06
0.7,1.2,-0.07
0.67,1.22,-0.07
0.66,1.22,-0.09
0.68,1.21,-0.1
0.68,1.18,-0.08
0.67,1.16,-0.06
0.66,1.13,-0.05
0.66,1.09,-0.05
0.66,1.03,-0.06
0.67,0.98,-0.05
0.7,0.95,-0.04
0.72,0.91,-0.03
0.73,0.86,-0.02
0.75,0.83,-0.02
0.77,0.79,-0.02
0.77,0.75,-0.01
0.77,0.73,0
0.78,0.72,0
0.78,0.72,0.01
0.76,0.73,0.03
0.74,0.74,0.04
0.74,0.77,0.03
0.71,0.82,0.04
0.71,0.84,0.05
0.71,0.87,0.06
0.7,0.91,0.07
0.69,0.95,0.1
0.69,1,0.11
0.67,1.04,0.11
0.65,1.07,0.11
0.63,1.1,0.12
0.6,1.13,0.12
0.59,1.14,0.11
0.58,1.15,0.12
0.58,1.16,0.12
0.58,1.15,0.11
0.58,1.15,0.11
0.6,1.16,0.09
0.6,1.17,0.08
0.6,1.17,0.07
0.61,1.19,0.04
0.6,1.2,0.02
0.63,1.22,0.02
0.69,1.25,0
0.73,1.27,-0.02
0.75,1.29,-0.05
0.74,1.3,-0.06
0.69,1.34,-0.09
0.67,1.4,-0.11
0.76,1.43,-0.12
0.88,1.51,-0.14
0.94,1.63,-0.13
0.91,1.71,-0.12
0.87,1.76,-0.13
0.84,1.75,-0.12
0.81,1.67,-0.1
0.84,1.54,-0.09
0.9,1.43,-0.08
0.94,1.39,-0.07
0.96,1.43,-0.06
0.93,1.52,-0.04
0.9,1.58,-0.04
0.87,1.61,-0.06
0.8,1.6,-0.06
0.72,1.53,-0.07
0.66,1.4,-0.09
0.64,1.25,-0.07
0.67,1.09,-0.06
0.7,0.98,-0.07
0.72,0.95,-0.05
0.69,0.9,-0.03
0.63,0.85,-0.04
0.57,0.82,-0.04
0.47,0.78,-0.03
0.4,0.65,-0.04
0.3,0.6,-0.06
0.25,0.56,-0.06
0.27,0.55,-0.08
0.31,0.53,-0.08
0.31,0.52,-0.07
0.3,0.51,-0.07
0.3,0.49,-0.07
0.25,0.49,-0.06
0.21,0.49,-0.05
0.18,0.48,-0.04
0.13,0.45,-0.03
0.1,0.45,-0.05
0.08,0.42,-0.06
0.05,0.4,-0.04
0.05,0.4,-0.03
0.05,0.37,-0.04
0.05,0.34,-0.03
0.05,0.32,-0.02
0.06,0.3,-0.02
0.07,0.3,-0.01
0.08,0.3,0
0.09,0.31,0.01
0.1,0.32,0.02
0.11,0.34,0.02
0.1,0.36,0.02
0.09,0.4,0.01
0.1,0.41,0.01
0.12,0.43,0
0.16,0.47,0
0.24,0.53,0
0.33,0.59,0
0.4,0.67,-0.02
0.45,0.73,-0.05
0.48,0.78,-0.06
0.54,0.82,-0.03
0.62,0.85,0.02
0.72,0.93,0.07
0.88,1.14,0.16
0.96,1.28,0.16
0.93,1.36,0.11
0.93,1.53,0.11
0.9,1.68,0.12
0.87,1.73,0.11
0.9,1.72,0.11
0.95,1.78,0.08
0.99,1.92,0.08
1.04,1.92,0.08
1.03,1.81,0.05
0.95,1.75,0.03
0.88,1.74,0.02
0.84,1.75,-0.01
0.81,1.76,-0.04
0.89,1.72,-0.07
0.93,1.66,-0.06
0.9,1.58,-0.06
0.86,1.59,-0.16
1.04,1.52,-0.24
1.06,1.38,-0.25
0.84,1.43,-0.21
0.74,1.5,-0.19
0.82,1.48,-0.21
0.9,1.43,-0.21
0.83,1.41,-0.2
0.76,1.39,-0.2
0.72,1.34,-0.19
0.72,1.28,-0.18
0.73,1.23,-0.18
0.73,1.17,-0.18
0.71,1.12,-0.17
0.7,1.08,-0.15
0.69,1.07,-0.13
0.67,1.04,-0.12
0.66,0.98,-0.12
0.65,0.92,-0.12
0.67,0.86,-0.11
0.69,0.81,-0.09
0.7,0.78,-0.07
0.69,0.73,-0.02
0.67,0.71,0
0.68,0.7,0.01
0.7,0.69,0.02
0.72,0.7,0.03
0.72,0.71,0.04
0.72,0.73,0.05
0.72,0.75,0.06
0.73,0.79,0.07
0.75,0.85,0.09
0.77,0.91,0.1
0.78,0.96,0.1
0.77,1,0.1
0.77,1.03,0.09
0.77,1.05,0.09
0.77,1.05,0.09
0.77,1.05,0.1
0.76,1.06,0.11
0.74,1.07,0.12
0.73,1.09,0.14
0.75,1.13,0.15
0.77,1.19,0.13
0.78,1.25,0.11
0.79,1.3,0.08
0.77,1.34,0.05
0.74,1.37,0.03
0.71,1.39,0.02
0.72,1.44,-0.07
0.74,1.5,-0.06
0.68,1.59,0.06
0.64,1.64,0.06
0.62,1.63,-0.03
0.46,1.74,-0.07
0.67,1.76,-0.1
0.89,1.7,-0.19
0.79,1.73,-0.22
0.82,1.76,-0.21
0.85,1.82,-0.17
0.88,1.87,-0.15
0.89,1.88,-0.15
0.91,1.85,-0.17
0.91,1.78,-0.19
0.87,1.64,-0.17
0.84,1.49,-0.14
0.85,1.42,-0.12
0.86,1.43,-0.12
0.85,1.49,-0.12
0.82,1.56,-0.12
0.78,1.57,-0.12
0.69,1.54,-0.12
0.59,1.46,-0.11
0.54,1.34,-0.12
0.53,1.18,-0.09
0.5,0.86,-0.07
0.51,0.79,-0.07
0.51,0.75,-0.06
0.47,0.73,-0.05
0.42,0.68,-0.04
0.36,0.62,-0.04
0.31,0.54,-0.05
0.26,0.48,-0.06
0.18,0.43,-0.07
0.12,0.36,-0.07
0.11,0.3,-0.05
0.12,0.3,-0.04
0.15,0.33,-0.02
0.17,0.34,-0.02
0.17,0.35,-0.03
0.16,0.35,-0.03
0.14,0.38,-0.04
0.15,0.42,-0.04
0.15,0.42,-0.04
0.17,0.44,-0.05
0.2,0.45,-0.06
0.22,0.43,-0.07
0.23,0.4,-0.08
0.24,0.37,-0.06
0.26,0.35,-0.04
0.29,0.35,-0.01
0.29,0.34,0.03
0.3,0.34,0.04
0.31,0.36,0.04
0.3,0.4,0.03
0.29,0.43,0.03
0.29,0.45,0.03
0.32,0.46,0.03
0.36,0.47,0.02
0.41,0.46,0.04
0.47,0.46,0.07
0.51,0.48,0.07
0.55,0.51,0.04
0.56,0.55,0.03
0.54,0.59,0.02
0.52,0.64,0.01
0.53,0.68,-0.01
0.55,0.72,-0.04
0.57,0.75,-0.04
0.61,0.77,-0.06
0.68,0.82,-0.08
0.77,0.86,-0.07
0.84,0.91,-0.06
0.87,1,-0.06
0.83,1.07,-0.07
0.78,1.15,-0.07
0.71,1.21,-0.04
0.65,1.37,-0.07
0.56,1.13,-0.09
0.55,1.31,-0.1
0.66,1.95,-0.1
0.7,2.12,-0.12
0.73,2.1,-0.15
0.77,2.08,-0.14
0.82,2.07,-0.13
0.87,2.04,-0.1
0.92,2.01,-0.06
0.92,2,-0.02
0.9,1.98,0.02
0.81,1.93,0.08
0.95,1.78,0.02
1.04,1.64,-0.02
0.81,1.6,0.08
0.77,1.53,0.15
0.83,1.43,0.16
0.85,1.35,0.13
0.82,1.31,0.1
0.78,1.27,0.09
0.75,1.25,0.09
0.74,1.24,0.09
0.75,1.22,0.06
0.76,1.19,0.05
0.75,1.15,0.05
0.74,1.08,0.04
0.74,1.03,0.03
0.74,0.97,0.02
0.76,0.92,0.02
0.77,0.88,0.03
0.77,0.84,0.05
0.78,0.8,0.06
0.79,0.77,0.06
0.8,0.74,0.06
0.8,0.73,0.05
0.79,0.73,0.06
0.77,0.72,0.07
0.76,0.72,0.07
0.75,0.73,0.07
0.74,0.75,0.09
0.73,0.77,0.11
0.71,0.79,0.12
0.69,0.81,0.12
0.69,0.84,0.12
0.68,0.87,0.12
0.65,0.9,0.12
0.62,0.94,0.12
0.59,0.99,0.13
0.57,1.03,0.14
0.55,1.06,0.15
0.52,1.09,0.15
0.5,1.1,0.13
0.5,1.11,0.12
0.5,1.12,0.1
0.47,1.14,0.12
0.46,1.17,0.09
0.51,1.2,0.04
0.52,1.21,0.04
0.51,1.22,0.02
0.52,1.22,-0.02
0.54,1.22,-0.04
0.53,1.23,-0.03
0.54,1.24,-0.04
0.57,1.26,-0.06
0.56,1.3,-0.08
0.6,1.36,-0.09
0.7,1.42,-0.12
0.77,1.45,-0.14
0.79,1.51,-0.14
0.77,1.55,-0.16
0.75,1.56,-0.19
0.76,1.59,-0.16
0.75,1.66,-0.11
0.76,1.7,-0.1
0.79,1.72,-0.08
0.77,1.72,-0.05
0.76,1.67,-0.04
0.86,1.45,-0.05
0.9,1.4,-0.04
0.94,1.39,-0.04
0.95,1.43,-0.02
0.97,1.42,-0.02
0.96,1.39,-0.03
0.93,1.36,-0.04
0.89,1.28,-0.05
0.83,1.15,-0.05
0.8,1.03,-0.05
0.79,0.94,-0.04
0.77,0.86,-0.04
0.77,0.78,-0.05
0.79,0.75,-0.06
0.73,0.74,-0.06
0.68,0.67,-0.07
0.66,0.62,-0.11
0.61,0.61,-0.12
0.5,0.6,-0.1
0.39,0.53,-0.08
0.31,0.47,-0.08
0.27,0.46,-0.07
0.27,0.48,-0.07
0.26,0.48,-0.06
0.24,0.46,-0.03
0.22,0.43,-0.03
0.21,0.4,-0.04
0.22,0.42,-0.04
0.18,0.42,-0.05
0.15,0.41,-0.05
0.11,0.4,-0.03
0.05,0.38,-0.02
0.01,0.37,-0.02
0,0.36,-0.02
-0.01,0.35,-0.01
0.02,0.33,-0.01
0.06,0.32,-0.01
0.09,0.3,0.01
0.11,0.29,0.02
0.12,0.3,0.03
0.12,0.32,0.02
0.13,0.35,0.02
0.13,0.37,0.03
0.12,0.39,0.02
0.12,0.41,0.02
0.13,0.43,0.03
0.17,0.46,0.02
0.23,0.48,0
0.28,0.51,-0.01
0.35,0.55,0.01
0.44,0.61,0.01
0.52,0.7,-0.03
0.57,0.88,-0.03
0.58,0.94,-0.01
0.6,1.02,-0.01
0.63,1.12,-0.04
0.67,1.19,-0.08
0.72,1.27,-0.1
0.77,1.39,-0.11
0.82,1.52,-0.13
0.84,1.62,-0.12
0.89,1.68,-0.08
0.89,1.86,-0.09
0.86,2.08,-0.12
0.91,2.06,-0.1
0.95,1.99,-0.08
0.96,1.98,-0.06
0.94,1.99,-0.05
0.94,2.04,-0.04
0.97,2.05,-0.01
0.94,1.97,0.08
0.84,1.85,0.13
0.84,1.83,0.09
0.98,1.83,0.04
1.18,1.6,-0.12
1.17,1.32,-0.16
0.9,1.43,-0.03
0.74,1.58,0.05
0.78,1.4,-0.09
0.9,1.36,-0.16
0.8,1.37,-0.16
0.71,1.39,-0.12
0.7,1.38,-0.09
0.75,1.36,-0.1
0.76,1.3,-0.11
0.74,1.23,-0.12
0.75,1.17,-0.12
0.75,1.12,-0.12
0.75,1.06,-0.11
0.75,1,-0.1
0.74,0.91,-0.07
0.76,0.82,-0.05
0.78,0.75,-0.03
0.78,0.7,-0.03
0.78,0.67,-0.02
0.76,0.67,0.01
0.74,0.66,0.03
0.73,0.65,0.03
0.73,0.64,0.03
0.72,0.64,0.04
0.73,0.67,0.05
0.73,0.7,0.07
0.71,0.73,0.09
0.7,0.78,0.1
0.71,0.83,0.09
0.72,0.91,0.1
0.72,0.94,0.11
0.72,0.97,0.11
0.73,1,0.11
0.74,1.04,0.11
0.76,1.09,0.12
0.79,1.15,0.13
0.8,1.21,0.13
0.8,1.27,0.12
0.8,1.3,0.09
0.78,1.32,0.05
0.76,1.33,0.04
0.72,1.35,0.05
0.71,1.36,0.06
0.71,1.37,0.05
0.69,1.4,0.04
0.67,1.43,0.03
0.72,1.46,-0.02
0.59,1.49,-0.03
0.47,1.54,0.09
0.24,1.56,0.17
0.28,1.58,0.2
0.72,1.47,-0.02
0.67,1.49,-0.15
0.51,1.68,0
0.63,1.65,-0.16
0.86,1.65,-0.13
0.76,1.8,-0.09
0.71,1.87,-0.09
0.76,1.87,-0.12
0.79,1.77,-0.14
0.76,1.61,-0.16
0.74,1.44,-0.15
0.76,1.32,-0.12
0.79,1.25,-0.12
0.79,1.26,-0.13
0.74,1.32,-0.13
0.66,1.36,-0.13
0.58,1.35,-0.14
0.52,1.31,-0.15
0.44,1.24,-0.14
0.37,1.13,-0.15
0.33,1.01,-0.17
0.32,0.9,-0.17
0.35,0.83,-0.18
0.35,0.76,-0.19
0.33,0.68,-0.2
0.34,0.64,-0.2
0.33,0.61,-0.2
0.29,0.56,-0.18
0.27,0.53,-0.15
0.24,0.5,-0.12
0.2,0.45,-0.11
0.2,0.42,-0.1
0.19,0.41,-0.1
0.19,0.41,-0.08
0.18,0.41,-0.07
0.18,0.41,-0.06
0.17,0.43,-0.05
0.17,0.44,-0.04
0.16,0.44,-0.04
0.15,0.45,-0.04
0.14,0.45,-0.04
0.15,0.46,-0.05
0.15,0.46,-0.05
0.17,0.45,-0.05
0.2,0.44,-0.04
0.23,0.43,-0.04
0.24,0.44,-0.04
0.24,0.46,-0.04
0.24,0.49,-0.02
0.23,0.55,-0.01
0.22,0.6,0
0.22,0.65,0
0.23,0.71,0
0.24,0.74,0
0.24,0.75,0
0.25,0.77,0
0.29,0.84,0
0.3,0.86,0.01
0.33,0.88,0.02
0.37,0.92,0.01
0.4,1,0.02
0.4,0.87,0.02
0.4,0.99,0.03
0.41,1.35,0.04
0.43,1.46,0.03
0.46,1.51,0.01
0.49,1.6,0
0.53,1.69,-0.01
0.58,1.77,-0.02
0.64,1.83,-0.05
0.69,1.89,-0.07
0.72,1.98,-0.1
0.72,2.11,-0.14
0.73,2.3,-0.16
0.77,2.43,-0.19
0.8,2.48,-0.18
0.83,2.41,-0.17
0.92,2.24,-0.13
1,2.05,-0.05
1.01,1.9,-0.01
1.09,1.73,0
1.11,1.6,0.05
0.97,1.58,0.07
0.88,1.48,0.07
0.81,1.42,0.08
0.76,1.38,0.09
0.69,1.34,0.1
0.63,1.31,0.11
0.59,1.27,0.11
0.57,1.23,0.1
0.58,1.2,0.1
0.6,1.16,0.09
0.63,1.1,0.07
0.65,1.05,0.06
0.65,1.01,0.06
0.65,0.96,0.07
0.73,1,0.09
2.39,1.01,0.09
3.99,0.51,0.01
2.01,0.4,0.15
-0.38,0.78,0.47
-0.81,0.71,0.58
-0.44,0.67,0.32
0.46,0.73,-0.12
1.01,0.62,-0.32
0.81,0.6,-0.26
0.49,0.67,-0.11
0.46,0.71,0.1
0.31,0.76,0.19
0.16,0.84,0.24
0.18,0.88,0.22
0.27,0.9,0.18
0.39,0.94,0.14
0.51,0.98,0.09
0.59,1,0.06
0.62,1.02,0.04
0.62,1.05,0.04
0.6,1.08,0.05
0.59,1.12,0.05
0.6,1.15,0.04
0.61,1.18,0.02
0.62,1.2,0.01
0.64,1.21,-0.01
0.66,1.24,-0.04
0.67,1.28,-0.05
0.67,1.32,-0.05
0.67,1.33,-0.05
0.66,1.33,-0.05
0.65,1.33,-0.03
0.63,1.32,0
0.65,1.29,0.02
0.68,1.29,0.01
0.68,1.32,0.01
0.67,1.33,0
0.67,1.36,-0.02
0.68,1.36,-0.02
0.7,1.35,-0.01
0.72,1.34,0.01
0.73,1.35,0.02
0.71,1.37,0.01
0.69,1.4,0.01
0.71,1.42,0
0.73,1.46,0
0.73,1.47,0.02
0.74,1.43,0.01
0.76,1.41,-0.01
0.76,1.42,-0.03
0.75,1.47,-0.04
0.72,1.53,-0.05
0.69,1.55,-0.06
0.67,1.52,-0.07
0.66,1.44,-0.06
0.66,1.35,-0.06
0.67,1.28,-0.06
0.66,1.24,-0.05
0.63,1.2,-0.04
0.59,1.14,-0.03
0.56,1.07,-0.02
0.52,0.99,-0.02
0.49,0.89,-0.03
0.47,0.72,-0.04
0.45,0.61,-0.05
0.44,0.54,-0.05
0.4,0.49,-0.03
0.36,0.45,-0.03
0.33,0.42,-0.04
0.3,0.37,-0.05
0.26,0.33,-0.07
0.24,0.31,-0.06
0.23,0.29,-0.05
0.24,0.29,-0.06
0.24,0.29,-0.06
0.24,0.29,-0.07
0.24,0.3,-0.08
0.23,0.31,-0.09
0.23,0.32,-0.09
0.23,0.31,-0.09
0.22,0.3,-0.09
0.23,0.32,-0.09
0.22,0.34,-0.08
0.22,0.36,-0.07
0.24,0.38,-0.05
0.23,0.39,-0.06
0.23,0.39,-0.06
0.26,0.36,-0.06
0.29,0.34,-0.05
0.32,0.35,-0.04
0.36,0.38,-0.05
0.36,0.42,-0.05
0.36,0.49,-0.06
0.36,0.57,-0.05
0.35,0.64,-0.05
0.34,0.7,-0.05
0.36,0.73,-0.04
0.41,0.75,-0.01
0.48,0.76,0.01
0.52,0.77,0.03
0.56,0.8,0.05
0.57,0.85,0.07
0.57,0.9,0.08
0.51,0.82,0.06
0.5,0.91,0.07
0.54,1.19,0.15
0.54,1.3,0.17
0.58,1.34,0.15
0.6,1.37,0.14
0.6,1.41,0.14
0.63,1.41,0.16
0.68,1.41,0.18
0.73,1.42,0.21
0.83,1.42,0.26
0.88,1.46,0.28
0.83,1.62,0.31
0.69,1.66,0.34
0.68,1.67,0.33
0.67,1.67,0.36
0.67,1.66,0.39
0.69,1.63,0.37
0.72,1.61,0.37
0.75,1.56,0.41
0.77,1.49,0.42
0.87,1.37,0.34
0.82,1.28,0.35
0.73,1.25,0.4
0.74,1.21,0.38
0.7,1.17,0.39
0.7,1.11,0.42
0.66,1.07,0.42
0.62,1.05,0.4
0.59,1.03,0.39
0.53,1.02,0.41
0.49,1.01,0.4
0.48,1,0.39
0.49,0.98,0.39
0.51,0.97,0.38
0.54,0.96,0.37
0.56,0.95,0.36
0.55,0.94,0.35
0.54,0.92,0.34
0.51,0.9,0.34
0.51,0.9,0.34
0.52,0.89,0.34
0.53,0.88,0.34
0.54,0.86,0.34
0.54,0.84,0.34
0.55,0.82,0.34
0.56,0.82,0.33
0.56,0.84,0.32
0.56,0.85,0.31
0.55,0.88,0.29
0.53,0.92,0.26
0.5,0.95,0.24
0.49,0.97,0.23
0.48,1,0.22
0.48,1.03,0.2
0.46,1.04,0.19
0.45,1.04,0.16
0.46,1.03,0.14
0.48,1.04,0.1
0.49,1.05,0.07
0.49,1.05,0.04
0.5,1.05,0.01
0.5,1.07,-0.01
0.5,1.1,-0.03
0.47,1.13,-0.07
0.39,1.12,-0.07
0.37,1.12,-0.07
0.36,1.16,-0.09
0.31,1.21,-0.11
0.27,1.25,-0.12
0.27,1.25,-0.14
0.29,1.23,-0.16
0.29,1.22,-0.17
0.28,1.22,-0.17
0.27,1.19,-0.17
0.28,1.15,-0.18
0.27,1.14,-0.19
0.24,1.13,-0.19
0.22,1.09,-0.2
0.19,1.06,-0.21
0.17,1.04,-0.21
0.17,1.06,-0.21
0.16,1.1,-0.21
0.15,1.12,-0.22
0.14,1.13,-0.23
0.13,1.12,-0.24
0.12,1.09,-0.24
0.1,1.03,-0.24
0.1,0.95,-0.24
0.11,0.88,-0.25
0.11,0.83,-0.26
0.16,0.77,-0.28
0.17,0.78,-0.26
0.18,0.79,-0.25
0.19,0.78,-0.25
0.23,0.76,-0.25
0.24,0.74,-0.25
0.23,0.74,-0.24
0.25,0.74,-0.24
0.26,0.76,-0.24
0.25,0.79,-0.23
0.25,0.83,-0.22
0.26,0.86,-0.21
0.27,0.87,-0.19
0.28,0.87,-0.17
0.28,0.87,-0.16
0.28,0.87,-0.15
0.28,0.87,-0.15
0.27,0.87,-0.14
0.26,0.87,-0.12
0.24,0.88,-0.1
0.24,0.89,-0.08
0.28,0.91,-0.06
0.31,0.95,-0.05
0.33,0.98,-0.03
0.36,0.99,-0.02
0.38,0.98,0
0.41,0.99,0.04
0.41,0.97,0.04
0.4,0.97,0.06
0.36,0.97,0.1
0.33,0.96,0.1
0.34,0.99,0.11
0.32,1.02,0.15
0.29,1.07,0.2
0.28,1.09,0.22
0.31,1.11,0.21
0.3,1.16,0.23
0.26,1.24,0.26
0.26,1.28,0.27
0.25,1.29,0.29
0.25,1.29,0.31
0.25,1.24,0.32
0.26,1.16,0.32
0.28,1.05,0.34
0.21,0.98,0.34
0.17,0.95,0.31
0.21,0.9,0.29
0.18,0.89,0.29
0.13,0.91,0.29
0.11,0.96,0.28
0.11,1.01,0.25
0.11,1.06,0.19
0.13,1.13,0.16
0.12,1.19,0.14
0.11,1.19,0.14
0.12,1.16,0.13
0.14,1.1,0.12
0.17,1.05,0.11
0.21,1.01,0.1
0.26,0.97,0.09
0.29,0.93,0.08
0.29,0.91,0.06
0.3,0.89,0.05
0.3,0.86,0.04
0.3,0.85,0.05
0.31,0.84,0.05
0.3,0.82,0.04
0.31,0.81,0.05
0.33,0.82,0.05
0.33,0.82,0.06
0.33,0.82,0.06
0.34,0.81,0.08
0.37,0.8,0.09
0.41,0.79,0.09
0.43,0.78,0.09
0.47,0.76,0.08
0.54,0.74,0.06
0.58,0.73,0.04
0.66,0.7,0.03
0.66,0.69,0.03
0.65,0.69,0.05
0.62,0.69,0.1
0.63,0.65,0.09
0.68,0.6,0.02
0.66,0.65,0.02
0.69,0.68,0.01
0.72,0.73,-0.02
0.7,0.82,-0.03
0.77,0.92,-0.05
0.83,0.99,-0.04
0.77,1.02,0.01
0.72,1.01,0.04
0.74,0.9,-0.01
0.74,0.78,-0.06
0.68,0.72,-0.05
0.65,0.67,-0.05
0.67,0.64,-0.06
0.73,0.67,-0.06
0.76,0.71,-0.04
0.78,0.77,-0.03
0.78,0.83,-0.02
0.76,0.89,-0.01
0.75,0.94,-0.02
0.74,0.98,-0.06
0.65,0.97,-0.03
0.6,0.93,0.03
0.53,0.89,0.09
0.48,0.82,0.13
0.49,0.74,0.13
0.5,0.66,0.12
0.47,0.61,0.12
0.45,0.56,0.11
0.46,0.53,0.1
0.5,0.54,0.1
0.56,0.58,0.11
0.56,0.64,0.15
0.55,0.69,0.17
0.57,0.71,0.16
0.61,0.72,0.16
0.61,0.71,0.18
0.62,0.71,0.18
0.65,0.71,0.17
0.68,0.71,0.18
0.73,0.71,0.18
0.72,0.71,0.21
0.71,0.72,0.22
0.73,0.72,0.2
0.72,0.71,0.2
0.72,0.7,0.2
0.69,0.67,0.23
0.69,0.64,0.24
0.68,0.61,0.25
0.68,0.59,0.26
0.69,0.57,0.26
0.65,0.55,0.28
0.62,0.55,0.29
0.64,0.54,0.28
0.63,0.53,0.27
0.6,0.52,0.27
0.6,0.52,0.29
0.6,0.5,0.32
0.61,0.48,0.34
0.62,0.45,0.36
0.64,0.42,0.37
0.66,0.4,0.38
0.66,0.4,0.39
0.66,0.4,0.4
0.64,0.41,0.41
0.65,0.43,0.44
0.65,0.43,0.47
0.64,0.43,0.51
0.65,0.41,0.56
0.66,0.4,0.6
0.68,0.36,0.64
0.63,0.39,0.69
0.61,0.43,0.72
0.76,0.49,0.69
0.7,0.46,0.65
0.7,0.48,0.71
0.62,0.48,0.82
0.63,0.43,0.86
0.66,0.39,0.86
0.63,0.38,0.86
0.59,0.38,0.86
0.56,0.36,0.83
0.56,0.35,0.8
0.57,0.35,0.79
0.6,0.34,0.77
0.59,0.35,0.8
0.55,0.36,0.84
0.56,0.34,0.81
0.57,0.32,0.8
0.58,0.3,0.81
0.61,0.27,0.83
0.6,0.25,0.85
0.6,0.23,0.85
0.59,0.2,0.83
0.56,0.17,0.81
0.55,0.15,0.79
0.55,0.14,0.79
0.56,0.14,0.81
0.58,0.14,0.84
0.58,0.14,0.9
0.59,0.15,0.91
0.59,0.14,0.89
0.59,0.13,0.87
0.58,0.11,0.84
0.56,0.09,0.81
0.53,0.08,0.81
0.52,0.07,0.82
0.52,0.07,0.85
0.51,0.06,0.89
0.51,0.05,0.9
0.5,0.04,0.91
0.5,0.02,0.91
0.5,-0.01,0.91
0.52,-0.02,0.92
0.56,-0.01,0.96
0.56,0.02,1
0.54,0.02,1.01
0.55,0.03,1.02
0.56,0.05,1.03
0.56,0.06,1.04
0.55,0.06,1.04
0.52,0.05,1.02
0.49,0.06,1.01
0.45,0.04,1.01
0.41,0.02,0.98
0.39,-0.02,0.9
0.36,-0.01,0.87
0.35,-0.01,0.86
0.34,-0.01,0.87
0.32,-0.01,0.88
0.31,0,0.89
0.32,0,0.9
0.34,0.01,0.92
0.36,0,0.94
0.37,-0.02,0.93
0.39,0,0.91
0.38,0.03,0.91
0.39,0.03,0.91
0.42,0.05,0.91
0.41,0.07,0.91
0.38,0.08,0.9
0.37,0.08,0.9
0.38,0.08,0.91
0.38,0.06,0.9
0.38,0.04,0.91
0.38,0.03,0.92
0.41,0.03,0.95
0.45,0.02,0.98
0.45,0.05,1.04
0.43,0.1,1.1
0.4,0.1,1.1
0.39,0.04,0.98
0.42,-0.04,0.95
0.44,-0.04,0.95
0.42,-0.02,0.95
0.4,-0.01,0.95
0.39,0,0.94
0.39,0.01,0.91
0.4,0.01,0.88
0.44,0,0.83
0.48,-0.01,0.8
0.49,0,0.82
0.46,0.01,0.86
0.43,0,0.89
0.42,0.03,0.92
0.44,0.05,0.94
0.46,0.06,0.93
0.47,0.06,0.93
0.47,0.07,0.92
0.46,0.06,0.9
0.46,0.05,0.89
0.46,0.05,0.88
0.46,0.06,0.88
0.46,0.07,0.9
0.46,0.07,0.9
0.46,0.08,0.91
0.44,0.07,0.91
0.43,0.06,0.93
0.45,0.04,0.92
0.46,0.03,0.91
0.46,0.03,0.91
0.46,0.02,0.9
0.47,0.03,0.91
0.46,0.03,0.92
0.44,0.02,0.91
0.46,0.02,0.9
0.47,0.03,0.9
0.47,0.03,0.88
0.49,0.03,0.88
0.5,0.03,0.88
0.5,0.02,0.87
0.5,0.03,0.88
0.5,0.05,0.89
0.49,0.05,0.88
0.48,0.03,0.89
0.47,0.04,0.89
0.48,0.03,0.88
0.49,0.03,0.88
0.5,0.03,0.88
0.5,0.04,0.87
0.52,0.05,0.87
0.53,0.05,0.88
0.53,0.05,0.87
0.52,0.05,0.86
0.49,0.03,0.86
0.49,0.04,0.87
0.48,0.04,0.87
0.46,0.04,0.87
0.46,0.05,0.87
0.47,0.05,0.87
0.5,0.04,0.88
0.53,0.06,0.88
0.52,0.05,0.88
0.51,0.05,0.88
0.5,0.06,0.88
0.49,0.07,0.87
0.47,0.06,0.86
0.45,0.06,0.84
0.46,0.07,0.84
0.47,0.07,0.86
0.51,0.08,0.88
0.55,0.1,0.89
0.54,0.08,0.88
0.53,0.09,0.88
0.52,0.09,0.87
0.49,0.08,0.87
0.47,0.09,0.89
0.45,0.06,0.9
0.45,0.04,0.89
0.46,0.04,0.89
0.49,0.03,0.88
0.5,0.03,0.88
0.51,0.03,0.88
0.51,0.03,0.88
0.51,0.03,0.87
0.52,0.02,0.86
0.52,0.02,0.86
0.53,0.02,0.86
0.53,0.02,0.86
0.53,0.03,0.86
0.53,0.04,0.87
0.52,0.03,0.87
0.52,0.03,0.88
0.51,0.04,0.88
0.5,0.04,0.88
0.51,0.04,0.88
0.51,0.04,0.88
0.51,0.04,0.87
0.52,0.04,0.87
0.53,0.05,0.87
0.52,0.05,0.87
0.51,0.05,0.87
0.5,0.05,0.87
0.5,0.05,0.87
0.5,0.05,0.87
0.51,0.05,0.87
0.5,0.04,0.87
0.51,0.04,0.87
0.51,0.04,0.87
0.51,0.03,0.88
0.51,0.03,0.87
0.51,0.03,0.87
0.51,0.03,0.87
0.51,0.03,0.88
0.5,0.03,0.88
0.5,0.03,0.88
0.5,0.03,0.88
0.5,0.03,0.88
0.49,0.03,0.88
0.5,0.03,0.88
0.5,0.03,0.88
0.5,0.03,0.87
0.5,0.03,0.87
0.51,0.04,0.87
0.52,0.04,0.87
0.51,0.04,0.87
0.51,0.04,0.87
0.51,0.04,0.87
0.52,0.04,0.87
0.52,0.04,0.87
0.52,0.04,0.87
0.52,0.03,0.86
0.52,0.03,0.87
0.52,0.03,0.87
0.52,0.03,0.86
0.51,0.02,0.87
0.51,0.03,0.87
0.51,0.03,0.87
0.52,0.02,0.87
0.51,0.02,0.87
0.51,0.02,0.87
0.51,0.02,0.87
0.51,0.02,0.87
0.52,0.02,0.87
0.51,0.02,0.87
0.51,0.02,0.87
0.51,0.02,0.87
0.51,0.03,0.87
0.51,0.03,0.87
0.52,0.02,0.87
0.52,0.02,0.87
0.52,0.02,0.86
0.52,0.02,0.86
0.52,0.03,0.87
0.52,0.03,0.87
0.52,0.03,0.87
0.52,0.03,0.86
0.52,0.02,0.87
0.51,0.02,0.87
0.51,0.02,0.87
0.51,0.02,0.87
0.51,0.02,0.87
0.51,0.02,0.88
0.51,0.01,0.87
0.51,0.01,0.87
0.51,0.01,0.87
0.51,0.01,0.87
0.51,0.01,0.87
0.51,0.01,0.87
0.51,0.01,0.87
0.52,0.01,0.87
0.52,0.01,0.87
0.52,0.01,0.87
0.52,0.01,0.86
0.54,0.02,0.86
0.54,0.02,0.86
0.54,0.02,0.86
0.54,0.02,0.85
0.54,0.01,0.85
0.54,0.02,0.86
0.54,0.03,0.86
0.54,0.02,0.86
0.53,0.02,0.86
0.53,0.02,0.86
0.53,0.02,0.86
0.53,0.02,0.86
0.53,0.02,0.86
0.53,0.02,0.86
0.53,0.01,0.86
0.53,0.01,0.86
0.53,0.02,0.86
0.53,0.02,0.86
0.52,0.01,0.86
0.52,0.01,0.87
0.52,0.01,0.86
0.52,0.01,0.86
0.52,0.01,0.87
0.53,0.02,0.87
0.53,0.01,0.86
0.53,0.01,0.86
0.53,0.01,0.85
0.53,0.01,0.86
0.53,0.01,0.86
0.53,0.01,0.86
0.53,0.01,0.86
0.53,0.01,0.86
0.53,0.02,0.86
0.52,0.02,0.87
0.52,0.02,0.87
0.53,0.02,0.86
0.53,0.02,0.86
0.53,0.02,0.86
0.53,0.02,0.86
0.54,0.02,0.86
0.54,0.02,0.86
0.53,0.02,0.86
0.53,0.01,0.86
0.53,0.01,0.86
0.53,0.02,0.86
0.53,0.02,0.86
0.53,0.01,0.86
0.53,0.01,0.86
0.54,0.01,0.85
0.53,0.01,0.86
0.53,0.01,0.86
0.53,0.01,0.86
0.53,0.01,0.86
0.53,0.01,0.86
0.53,0.01,0.86
0.53,0.01,0.86
0.53,0.01,0.86
0.53,0.01,0.86
0.53,0.01,0.86
0.53,0.01,0.86
0.53,0.02,0.86
0.53,0.01,0.86
0.54,0.01,0.86
0.54,0.02,0.86
0.54,0.01,0.85
0.54,0.01,0.85
0.54,0.01,0.86
0.54,0.01,0.86
0.53,0.01,0.86
0.53,0.01,0.86
0.53,0.01,0.86
0.53,0.01,0.86
0.53,0.01,0.86
0.54,0.01,0.86
0.54,0.01,0.86
0.54,0.01,0.85
0.54,0.01,0.85
0.54,0.01,0.86
0.54,0.01,0.86
0.54,0.01,0.85
0.53,0.01,0.85
0.53,0.01,0.86
0.54,0.01,0.86
0.54,0.01,0.85
0.53,0.01,0.85
0.53,0.01,0.86
0.53,0.02,0.87
0.54,0.01,0.86
0.54,0.01,0.85
0.54,0.01,0.85
0.54,0.01,0.85
0.54,0.01,0.85
0.54,0.01,0.85
0.54,0.01,0.85
0.53,0.01,0.86
0.53,0.01,0.86
0.53,0.01,0.86
0.53,0.01,0.86
0.53,0.01,0.86
0.53,0.01,0.86
0.54,0.01,0.86
0.54,0.01,0.85
0.53,0.01,0.86
0.53,0.01,0.86
0.53,0.01,0.86
0.54,0.01,0.86
0.54,0.01,0.86
0.54,0.01,0.86
0.54,0.01,0.86
0.53,0.01,0.85
0.53,0.01,0.85
0.54,0.01,0.86
0.54,0.01,0.86
0.54,0.01,0.85
0.54,0.01,0.85
0.54,0.01,0.85
0.53,0.01,0.85
0.53,0.01,0.85
0.54,0.01,0.86
0.54,0.01,0.86
0.54,0.01,0.86
0.54,0.01,0.86
0.54,0.01,0.86
0.53,0.01,0.86
0.53,0.01,0.86
0.54,0.01,0.86
0.54,0.01,0.86
0.54,0.01,0.85
0.54,0.01,0.85
0.54,0.01,0.85
0.53,0.02,0.86
0.53,0.01,0.86
0.53,0.01,0.86
0.53,0.01,0.86
0.54,0.02,0.86
0.54,0.01,0.86
0.54,0.01,0.85
0.54,0.02,0.86
0.54,0.01,0.86
0.54,0.02,0.86
0.55,0.02,0.85
0.54,0.02,0.85
0.55,0.02,0.85
0.55,0.03,0.85
0.54,0.03,0.85
0.54,0.02,0.85
0.55,0.02,0.85
0.55,0.02,0.85
0.55,0.02,0.85
0.54,0.02,0.85
0.54,0.02,0.85
0.54,0.03,0.85
0.54,0.03,0.85
0.53,0.02,0.85
0.54,0.03,0.85
0.55,0.03,0.85
0.55,0.03,0.84
0.54,0.02,0.84
0.55,0.03,0.84
0.55,0.03,0.84
0.55,0.03,0.85
0.54,0.03,0.85
0.54,0.02,0.84
0.54,0.03,0.85
0.53,0.03,0.85
0.53,0.03,0.85
0.53,0.03,0.85
0.54,0.03,0.85
0.54,0.03,0.85
0.55,0.03,0.85
0.55,0.03,0.85
0.55,0.03,0.85
0.55,0.03,0.85
0.55,0.03,0.85
0.55,0.03,0.85
0.54,0.03,0.85
0.54,0.03,0.85
0.57,0.02,0.83
0.59,0.02,0.83
0.58,0.02,0.83
0.58,0.02,0.83
0.56,0.03,0.84
0.55,0.03,0.85
0.55,0.04,0.86
0.54,0.04,0.86
0.53,0.04,0.86
0.52,0.04,0.86
0.51,0.05,0.86
0.51,0.05,0.87
0.51,0.05,0.87
0.52,0.05,0.87
0.53,0.05,0.87
0.53,0.05,0.85
0.53,0.05,0.86
0.53,0.05,0.86
0.53,0.05,0.86
0.53,0.05,0.86
0.53,0.04,0.86
0.53,0.04,0.86
0.53,0.04,0.86
0.53,0.04,0.86
0.53,0.04,0.86
0.53,0.05,0.86
0.52,0.05,0.86
0.52,0.05,0.86
0.52,0.04,0.86
0.52,0.04,0.86
0.52,0.04,0.86
0.52,0.04,0.86
0.51,0.05,0.87
0.52,0.05,0.87
0.53,0.05,0.86
0.53,0.05,0.86
0.53,0.05,0.85
0.53,0.05,0.86
0.53,0.05,0.86
0.52,0.06,0.87
0.51,0.06,0.86
0.51,0.05,0.87
0.51,0.05,0.87
0.51,0.05,0.87
0.51,0.05,0.86
0.52,0.05,0.86
0.52,0.05,0.86
0.53,0.05,0.86
0.53,0.05,0.86
0.52,0.05,0.86
0.52,0.05,0.86
0.52,0.05,0.86
0.52,0.05,0.87
0.53,0.05,0.86
0.53,0.05,0.86
0.53,0.05,0.86
0.53,0.05,0.86
0.52,0.05,0.87
0.52,0.05,0.86
0.51,0.05,0.87
0.5,0.05,0.87
0.51,0.05,0.87
0.51,0.05,0.86
0.51,0.05,0.86
0.52,0.05,0.86
0.51,0.05,0.87
0.51,0.05,0.87
0.51,0.05,0.87
0.51,0.05,0.87
0.52,0.05,0.86
0.52,0.05,0.86
0.52,0.05,0.87
0.52,0.05,0.87
0.52,0.05,0.87
0.51,0.05,0.87
0.51,0.06,0.87
0.51,0.06,0.87
0.51,0.05,0.87
0.51,0.05,0.87
0.51,0.05,0.87
0.51,0.05,0.87
0.51,0.05,0.87
0.52,0.05,0.87
0.51,0.05,0.87
0.51,0.05,0.86
0.51,0.05,0.87
0.51,0.05,0.87
0.51,0.05,0.87
0.51,0.05,0.87
0.51,0.05,0.87
0.51,0.05,0.87
0.51,0.05,0.87
0.51,0.05,0.87
0.51,0.05,0.87
0.51,0.05,0.87
0.51,0.05,0.87
0.52,0.05,0.87
0.52,0.05,0.86
0.52,0.05,0.86
0.52,0.05,0.86
0.51,0.05,0.87
0.51,0.05,0.87
0.51,0.05,0.87
0.51,0.05,0.87
0.51,0.05,0.86
0.51,0.05,0.87
0.51,0.05,0.87
0.51,0.05,0.87
0.51,0.05,0.87
0.51,0.05,0.87
0.51,0.05,0.87
0.51,0.05,0.87
0.51,0.05,0.87
0.51,0.05,0.87
0.51,0.05,0.87
0.51,0.05,0.87
0.51,0.05,0.87
0.51,0.05,0.87
0.51,0.05,0.87
0.51,0.05,0.87
0.51,0.05,0.87
0.51,0.05,0.87
0.51,0.05,0.87
0.51,0.05,0.87
0.51,0.05,0.87
0.51,0.05,0.87
0.51,0.05,0.87
0.52,0.05,0.87
0.52,0.05,0.87
0.52,0.05,0.87
0.52,0.05,0.87
0.51,0.05,0.87
0.51,0.05,0.87
0.51,0.05,0.87
0.51,0.05,0.87
0.52,0.05,0.87
0.51,0.05,0.87
0.51,0.05,0.87
0.51,0.05,0.87
0.51,0.05,0.87
0.51,0.05,0.87
0.51,0.05,0.87
0.5,0.05,0.87
0.51,0.05,0.87
0.51,0.05,0.87
0.51,0.04,0.87
0.51,0.05,0.87
0.51,0.05,0.87
0.5,0.05,0.87
0.5,0.05,0.87
0.5,0.05,0.87
0.5,0.05,0.87
0.51,0.04,0.87
0.51,0.05,0.87
0.51,0.05,0.87
0.51,0.05,0.87
0.51,0.04,0.87
0.51,0.05,0.87
0.51,0.04,0.87
0.51,0.04,0.87
0.51,0.04,0.87
0.51,0.05,0.87
0.5,0.05,0.87
0.5,0.05,0.88
0.5,0.05,0.88
0.5,0.05,0.88
0.5,0.05,0.88
0.5,0.05,0.87
0.51,0.04,0.87
0.51,0.04,0.87
0.51,0.05,0.87
0.51,0.04,0.87
0.51,0.04,0.87
0.51,0.05,0.87
0.5,0.05,0.87
0.5,0.05,0.87
0.5,0.05,0.87
0.5,0.05,0.87
0.5,0.05,0.87
0.5,0.05,0.88
0.5,0.05,0.87
0.5,0.05,0.88
0.49,0.05,0.88
0.49,0.05,0.88
0.5,0.05,0.88
0.5,0.05,0.88
0.5,0.04,0.87
0.5,0.04,0.87
0.5,0.04,0.87
0.5,0.04,0.88
0.5,0.04,0.88
0.5,0.04,0.88
0.5,0.04,0.88
0.5,0.04,0.88
0.5,0.04,0.88
0.5,0.04,0.87
0.51,0.05,0.87
0.51,0.05,0.87
0.51,0.04,0.87
0.5,0.04,0.87
0.5,0.04,0.87
0.5,0.04,0.87
0.51,0.04,0.87
0.51,0.04,0.87
0.51,0.04,0.87
0.51,0.04,0.87
0.51,0.04,0.87
0.51,0.05,0.87
0.51,0.05,0.87
0.51,0.05,0.87
0.51,0.05,0.87
0.51,0.05,0.87
0.5,0.05,0.88
0.5,0.05,0.88
0.5,0.05,0.88
0.49,0.04,0.88
0.49,0.04,0.88
0.5,0.04,0.88
0.5,0.04,0.88
0.5,0.04,0.87
0.5,0.04,0.88
0.5,0.04,0.88
0.5,0.04,0.87
0.5,0.04,0.87
0.5,0.04,0.88
0.5,0.04,0.88
0.5,0.04,0.87
0.5,0.04,0.88
0.5,0.05,0.87
0.5,0.04,0.87
0.5,0.04,0.88
0.5,0.05,0.87
0.5,0.05,0.87
0.51,0.05,0.87
0.51,0.05,0.87
0.51,0.04,0.87
0.51,0.04,0.87
0.51,0.04,0.87
0.51,0.04,0.87
0.51,0.04,0.87
0.5,0.04,0.87
0.5,0.04,0.87
0.51,0.04,0.87
0.51,0.04,0.87
0.51,0.04,0.87
0.51,0.04,0.87
0.51,0.04,0.87
0.51,0.04,0.87
0.51,0.04,0.87
0.51,0.04,0.87
0.51,0.04,0.87
0.51,0.04,0.87
0.51,0.04,0.87
0.51,0.04,0.87
0.51,0.04,0.87
0.51,0.04,0.87
0.51,0.04,0.87
0.51,0.04,0.87
0.51,0.04,0.87
0.51,0.04,0.87
0.51,0.04,0.87
0.51,0.04,0.87
0.51,0.03,0.87
0.51,0.04,0.87
0.51,0.04,0.87
0.51,0.04,0.87
0.51,0.04,0.87
0.51,0.03,0.87
0.51,0.04,0.87
0.51,0.04,0.87
0.51,0.04,0.87
0.51,0.04,0.87
0.52,0.04,0.87
0.51,0.04,0.87
0.51,0.04,0.87
0.5,0.04,0.87
0.5,0.04,0.88
0.5,0.04,0.87
0.51,0.04,0.87
0.51,0.04,0.87
0.51,0.04,0.87
0.51,0.04,0.87
0.51,0.04,0.87
0.51,0.04,0.87
0.51,0.04,0.87
0.51,0.04,0.87
0.5,0.04,0.87
0.5,0.04,0.87
0.5,0.04,0.87
0.5,0.04,0.88
0.5,0.04,0.88
0.51,0.04,0.87
0.51,0.04,0.87
0.51,0.04,0.87
0.51,0.04,0.87
0.51,0.04,0.87
0.5,0.04,0.87
0.5,0.04,0.88
0.5,0.04,0.88
0.5,0.04,0.88
0.51,0.04,0.87
0.51,0.04,0.87
0.51,0.04,0.87
0.51,0.04,0.87
0.5,0.04,0.87
0.5,0.04,0.87
0.5,0.04,0.87
0.5,0.04,0.88
0.5,0.04,0.87
0.51,0.04,0.87
0.51,0.04,0.88
0.5,0.04,0.88
0.5,0.04,0.87
0.5,0.04,0.87
0.51,0.04,0.87
0.51,0.04,0.87
0.51,0.04,0.87
0.51,0.04,0.87
0.51,0.04,0.87
0.5,0.04,0.87
0.5,0.04,0.88
0.5,0.04,0.88
0.5,0.04,0.87
0.5,0.04,0.87
0.51,0.04,0.87
0.51,0.04,0.87
0.51,0.04,0.87
0.51,0.04,0.87
0.51,0.04,0.87
0.51,0.04,0.87
0.51,0.04,0.87
0.51,0.04,0.87
0.51,0.04,0.87
0.51,0.04,0.87
0.51,0.04,0.87
0.5,0.04,0.87
0.51,0.04,0.87
0.51,0.04,0.87
0.5,0.04,0.87
0.5,0.04,0.87
0.5,0.04,0.87
0.51,0.04,0.87
0.51,0.04,0.87
0.5,0.04,0.87
0.51,0.04,0.87
0.51,0.04,0.87
0.51,0.04,0.87
0.51,0.04,0.87
0.5,0.04,0.87
0.5,0.04,0.87
0.51,0.04,0.87
0.51,0.04,0.87
0.51,0.04,0.87
0.51,0.04,0.87
0.51,0.04,0.87
0.51,0.04,0.87
0.51,0.04,0.87
0.51,0.04,0.87
0.51,0.04,0.87
