Acc_x,Acc_y,Acc_z
0.45,0.08,0.9
0.45,0.08,0.92
0.44,0.05,0.9
0.43,0.06,0.9
0.42,0.05,0.94
0.44,0.05,0.94
0.44,0.02,0.89
0.45,-0.01,0.87
0.49,-0.01,0.89
0.5,0.01,0.9
0.48,0,0.89
0.46,-0.01,0.88
0.45,-0.03,0.9
0.45,-0.03,0.9
0.45,-0.03,0.89
0.45,-0.05,0.89
0.46,-0.05,0.88
0.48,-0.04,0.88
0.51,-0.01,0.9
0.53,0,0.89
0.54,0,0.86
0.55,0.01,0.86
0.54,0.04,0.88
0.5,0.05,0.88
0.45,0.04,0.89
0.41,0.06,0.91
0.4,0.07,0.91
0.44,0.08,0.91
0.44,0.1,0.93
0.41,0.12,0.94
0.4,0.12,0.92
0.37,0.12,0.94
0.34,0.14,0.96
0.34,0.16,0.95
0.37,0.18,0.95
0.38,0.19,0.99
0.41,0.23,1.02
0.41,0.25,1.05
0.45,0.29,1.06
0.49,0.32,1.07
0.45,0.32,1.07
0.42,0.34,1.06
0.39,0.34,1.02
0.4,0.35,1
0.41,0.38,1.01
0.43,0.41,1
0.44,0.42,0.99
0.46,0.43,0.97
0.44,0.46,0.93
0.38,0.45,0.93
0.4,0.46,0.95
0.43,0.46,0.98
0.41,0.47,0.99
0.39,0.47,0.98
0.42,0.47,0.98
0.42,0.46,0.99
0.41,0.45,0.99
0.39,0.44,1.01
0.39,0.42,1.01
0.38,0.4,0.99
0.34,0.39,0.98
0.33,0.37,0.96
0.27,0.35,0.96
0.23,0.33,0.95
0.25,0.33,0.9
0.26,0.32,0.87
0.25,0.31,0.87
0.27,0.31,0.85
0.26,0.3,0.83
0.24,0.29,0.82
0.21,0.28,0.82
0.2,0.27,0.82
0.2,0.26,0.81
0.2,0.25,0.79
0.2,0.22,0.75
0.2,0.22,0.75
0.19,0.22,0.76
0.18,0.22,0.76
0.17,0.23,0.75
0.17,0.25,0.77
0.18,0.27,0.79
0.18,0.27,0.8
0.19,0.28,0.8
0.21,0.29,0.8
0.22,0.31,0.8
0.24,0.32,0.81
0.24,0.33,0.81
0.25,0.33,0.8
0.23,0.34,0.8
0.21,0.36,0.81
0.2,0.38,0.82
0.21,0.41,0.81
0.2,0.43,0.8
0.19,0.44,0.79
0.18,0.44,0.78
0.19,0.43,0.76
0.2,0.42,0.75
0.19,0.42,0.74
0.19,0.43,0.74
0.19,0.44,0.73
0.19,0.46,0.7
0.19,0.47,0.69
0.19,0.49,0.68
0.21,0.5,0.66
0.22,0.49,0.65
0.24,0.47,0.64
0.26,0.46,0.62
0.27,0.46,0.61
0.27,0.47,0.61
0.27,0.48,0.61
0.27,0.5,0.62
0.29,0.52,0.63
0.31,0.54,0.65
0.34,0.57,0.68
0.4,0.6,0.69
0.45,0.6,0.67
0.47,0.6,0.64
0.47,0.59,0.59
0.47,0.58,0.52
0.53,0.67,0.49
0.53,0.64,0.44
0.54,0.53,0.39
0.6,0.57,0.39
0.58,0.65,0.47
0.56,0.72,0.54
0.57,0.72,0.5
0.55,0.72,0.54
0.52,0.77,0.56
0.52,0.8,0.55
0.52,0.8,0.51
0.5,0.8,0.47
0.52,0.86,0.46
0.54,0.8,0.41
0.54,0.72,0.36
0.56,0.86,0.37
0.5,0.94,0.41
0.48,0.92,0.44
0.47,0.92,0.43
0.44,0.79,0.35
0.44,0.78,0.32
0.42,1.01,0.38
0.42,1.18,0.35
0.46,1.17,0.28
0.49,1.06,0.2
0.54,0.99,0.2
0.55,1.03,0.25
0.51,1.12,0.27
0.53,1.13,0.16
0.64,1.21,0.06
0.66,1.22,0.01
0.6,1.09,0.01
0.56,1.09,0.08
0.54,1.17,0.07
0.55,1.14,0.06
0.56,1.13,0.05
0.56,1.13,0.06
0.57,1.11,0.06
0.57,1.07,0.06
0.57,1.04,0.09
0.55,1.02,0.1
0.55,0.98,0.11
0.57,0.94,0.14
0.58,0.92,0.16
0.58,0.91,0.18
0.58,0.92,0.2
0.61,0.94,0.21
0.65,0.95,0.22
0.7,0.96,0.23
0.73,0.95,0.23
0.74,0.94,0.24
0.73,0.94,0.25
0.75,0.94,0.26
0.77,0.94,0.26
0.8,0.94,0.28
0.83,0.93,0.29
0.86,0.92,0.29
0.89,0.91,0.28
0.91,0.9,0.28
0.92,0.89,0.29
0.94,0.9,0.28
0.95,0.91,0.27
0.95,0.93,0.29
0.97,0.95,0.29
0.99,0.98,0.27
0.99,1,0.26
0.95,1.02,0.25
0.92,1.04,0.23
0.89,1.06,0.2
0.84,1.07,0.18
0.85,1.1,0.21
0.83,1.11,0.21
0.78,1.13,0.19
0.75,1.16,0.2
0.68,1.16,0.17
0.7,1.16,0.11
0.76,1.17,0.08
0.71,1.18,0.05
0.62,1.19,0.06
0.62,1.18,0.04
0.69,1.18,0.04
0.65,1.19,0.07
0.6,1.19,0.07
0.58,1.19,0.09
0.54,1.16,0.09
0.56,1.07,0.07
0.52,1.08,0.09
0.46,1.08,0.09
0.44,1.07,0.03
0.44,1.06,0.01
0.42,1.08,0.03
0.39,1.1,0.04
0.37,1.09,0.03
0.33,1.05,0.04
0.29,0.94,0.05
0.29,0.81,0.06
0.26,0.71,0.06
0.23,0.6,0.09
0.19,0.52,0.04
0.17,0.5,-0.03
0.16,0.5,0.02
0.09,0.54,0.27
0.07,0.58,0.24
0.14,0.62,0.01
0.07,0.67,0.04
0.01,0.72,0.07
0.05,0.76,0.09
0,0.77,0.1
-0.05,0.79,0.11
-0.06,0.82,0.1
-0.05,0.85,0.14
-0.04,0.86,0.19
-0.02,0.87,0.21
0,0.88,0.26
0.06,0.86,0.24
0.09,0.9,0.23
0.05,0.96,0.31
0.05,0.97,0.37
0.08,0.96,0.38
0.09,0.97,0.4
0.08,1,0.42
0.07,1.04,0.42
0.08,1.08,0.44
0.08,1.1,0.47
0.09,1.13,0.48
0.08,1.14,0.5
0.07,1.14,0.51
0.09,1.17,0.51
0.12,1.21,0.5
0.14,1.27,0.49
0.17,1.34,0.48
0.19,1.37,0.46
0.21,1.37,0.46
0.26,1.37,0.45
0.31,1.37,0.42
0.34,1.38,0.4
0.36,1.38,0.41
0.45,1.37,0.4
0.47,1.36,0.39
0.44,1.37,0.4
0.42,1.39,0.4
0.42,1.39,0.39
0.43,1.38,0.38
0.44,1.36,0.38
0.43,1.34,0.42
0.44,1.33,0.44
0.46,1.32,0.42
0.48,1.28,0.41
0.48,1.24,0.42
0.47,1.2,0.42
0.46,1.16,0.42
0.45,1.12,0.43
0.44,1.09,0.42
0.43,1.06,0.41
0.44,1.04,0.4
0.46,1.02,0.39
0.46,1,0.4
0.46,0.97,0.39
0.48,0.94,0.38
0.49,0.9,0.36
0.5,0.86,0.35
0.5,0.83,0.35
0.51,0.81,0.35
0.53,0.79,0.34
0.55,0.78,0.33
0.57,0.77,0.33
0.58,0.77,0.33
0.59,0.76,0.33
0.61,0.75,0.32
0.63,0.75,0.31
0.63,0.74,0.29
0.63,0.75,0.27
0.63,0.76,0.25
0.63,0.77,0.24
0.63,0.79,0.23
0.64,0.83,0.23
0.64,0.88,0.23
0.64,0.92,0.22
0.64,0.96,0.21
0.64,0.99,0.19
0.63,1.02,0.19
0.62,1.05,0.18
0.61,1.08,0.16
0.6,1.11,0.14
0.6,1.15,0.12
0.6,1.21,0.11
0.61,1.27,0.09
0.62,1.34,0.06
0.65,1.4,0.03
0.64,1.47,0
0.63,1.49,-0.02
0.63,1.52,-0.05
0.64,1.55,-0.06
0.64,1.58,-0.06
0.65,1.6,-0.05
0.69,1.61,-0.06
0.73,1.63,-0.08
0.76,1.65,-0.11
0.78,1.69,-0.14
0.76,1.75,-0.15
0.74,1.79,-0.15
0.71,1.8,-0.15
0.68,1.8,-0.16
0.64,1.8,-0.15
0.59,1.79,-0.13
0.55,1.77,-0.11
0.53,1.73,-0.1
0.53,1.69,-0.09
0.52,1.65,-0.09
0.5,1.61,-0.09
0.51,1.54,-0.1
0.5,1.48,-0.09
0.44,1.41,-0.09
0.41,1.33,0
0.41,1.25,-0.09
0.34,1.1,-0.11
0.31,1.04,-0.09
0.26,0.96,-0.07
0.21,0.9,-0.07
0.22,0.85,-0.09
0.23,0.79,-0.12
0.13,0.73,-0.13
0.1,0.73,-0.11
0.14,0.74,-0.18
0.14,0.7,-0.14
0.11,0.63,-0.02
0.09,0.6,-0.07
0.12,0.59,-0.08
0.11,0.57,-0.13
0.09,0.57,-0.08
0.1,0.55,-0.02
0.07,0.54,-0.04
0.02,0.55,-0.03
0.01,0.56,-0.03
0.04,0.56,-0.04
-0.01,0.55,0.03
0,0.56,0.02
0.02,0.59,-0.07
0.01,0.6,-0.03
0.02,0.64,0.04
0.03,0.65,0.04
0.08,0.7,0.08
0.05,0.72,0.07
0.1,0.75,0.07
0.14,0.81,0.1
0.12,0.82,0.11
0.14,0.87,0.15
0.16,0.98,0.19
0.17,1,0.22
0.22,1.01,0.24
0.28,1.07,0.25
0.29,1.13,0.26
0.29,1.19,0.26
0.3,1.26,0.25
0.3,1.35,0.23
0.29,1.43,0.22
0.3,1.5,0.21
0.32,1.58,0.2
0.34,1.68,0.2
0.35,1.76,0.2
0.37,1.81,0.19
0.38,1.86,0.18
0.4,1.92,0.16
0.43,1.97,0.15
0.46,1.99,0.15
0.48,1.99,0.15
0.51,1.99,0.15
0.57,1.93,0.15
0.6,1.87,0.19
0.64,1.77,0.23
0.67,1.68,0.24
0.67,1.59,0.23
0.66,1.49,0.21
0.65,1.42,0.2
0.64,1.38,0.2
0.64,1.36,0.21
0.62,1.37,0.21
0.6,1.37,0.2
0.58,1.37,0.18
0.56,1.37,0.17
0.53,1.36,0.17
0.51,1.33,0.16
0.51,1.29,0.16
0.5,1.24,0.16
0.49,1.17,0.17
0.48,1.1,0.17
0.5,1.03,0.16
0.5,0.97,0.17
0.49,0.92,0.18
0.49,0.88,0.19
0.5,0.84,0.19
0.5,0.8,0.2
0.49,0.77,0.22
0.47,0.73,0.22
0.45,0.72,0.22
0.43,0.7,0.23
0.43,0.69,0.23
0.43,0.7,0.24
0.42,0.7,0.25
0.43,0.71,0.25
0.43,0.73,0.25
0.43,0.75,0.25
0.42,0.77,0.26
0.41,0.8,0.27
0.38,0.83,0.29
0.37,0.84,0.3
0.36,0.85,0.3
0.35,0.84,0.3
0.34,0.83,0.29
0.35,0.82,0.27
0.37,0.82,0.25
0.39,0.81,0.22
0.41,0.83,0.19
0.43,0.87,0.19
0.46,0.95,0.2
0.51,1.04,0.21
0.53,1.11,0.23
0.56,1.16,0.21
0.59,1.21,0.13
0.61,1.32,0.13
0.59,1.37,0.15
0.59,1.41,0.16
0.6,1.44,0.17
0.6,1.47,0.16
0.59,1.49,0.15
0.57,1.52,0.15
0.57,1.55,0.15
0.57,1.59,0.14
0.58,1.64,0.13
0.57,1.7,0.11
0.55,1.73,0.12
0.53,1.73,0.1
0.54,1.73,0.09
0.53,1.77,0.1
0.46,1.84,0.09
0.4,1.85,0.11
0.41,1.8,0.12
0.46,1.73,0.14
0.47,1.68,0.14
0.47,1.65,0.11
0.47,1.62,0.07
0.46,1.59,0.05
0.45,1.56,0.05
0.43,1.48,0.07
0.43,1.37,0.11
0.38,1.44,0.09
0.31,1.37,0.08
0.23,1.17,0.08
0.22,1.1,0.07
0.27,1.11,0.05
0.28,1.08,0.05
0.21,0.97,0.12
0.18,0.66,0.23
0.29,0.79,0.16
0.16,0.77,0.15
0.09,0.58,0.21
0.2,0.75,0.19
0.09,0.69,0.19
0.05,0.63,0.16
0.09,0.56,0.15
0.12,0.53,0.14
0.13,0.54,0.14
0.11,0.52,0.15
0.12,0.52,0.16
0.13,0.52,0.15
0.14,0.51,0.14
0.14,0.51,0.13
0.15,0.52,0.12
0.15,0.52,0.12
0.15,0.54,0.12
0.17,0.56,0.11
0.19,0.57,0.12
0.21,0.58,0.12
0.22,0.6,0.12
0.22,0.62,0.1
0.23,0.64,0.09
0.23,0.66,0.09
0.24,0.7,0.1
0.25,0.72,0.11
0.26,0.75,0.11
0.28,0.79,0.13
0.28,0.84,0.12
0.32,0.89,0.13
0.32,0.93,0.13
0.3,0.99,0.14
0.32,1.04,0.16
0.33,1.06,0.16
0.29,0.78,0.1
0.24,0.85,0.01
0.29,1.31,0.07
0.35,1.41,0.11
0.4,1.37,0.06
0.43,1.36,0.06
0.44,1.42,0.07
0.45,1.45,0.06
0.45,1.49,0.05
0.46,1.6,0.04
0.48,1.65,0.03
0.49,1.69,0.02
0.51,1.73,0.02
0.53,1.75,0.02
0.56,1.77,0.02
0.6,1.77,0.03
0.61,1.75,0.04
0.62,1.77,0.06
0.64,1.74,0.05
0.63,1.67,0.04
0.64,1.66,0.02
0.64,1.63,0.01
0.64,1.57,0.02
0.66,1.5,0.03
0.68,1.43,0.05
0.68,1.37,0.06
0.68,1.33,0.07
0.68,1.29,0.07
0.68,1.25,0.06
0.68,1.2,0.07
0.69,1.15,0.07
0.7,1.09,0.06
0.71,1.04,0.07
0.72,0.99,0.07
0.73,0.94,0.06
0.74,0.86,0.06
0.73,0.83,0.07
0.72,0.81,0.08
0.72,0.8,0.07
0.72,0.78,0.07
0.72,0.77,0.07
0.72,0.77,0.07
0.72,0.77,0.06
0.72,0.78,0.06
0.71,0.79,0.06
0.69,0.81,0.08
0.67,0.84,0.09
0.65,0.86,0.09
0.63,0.9,0.09
0.61,0.93,0.09
0.6,0.97,0.09
0.59,1.01,0.08
0.58,1.04,0.07
0.57,1.08,0.07
0.56,1.11,0.07
0.54,1.16,0.07
0.53,1.19,0.08
0.52,1.22,0.09
0.5,1.25,0.09
0.5,1.28,0.08
0.5,1.31,0.06
0.48,1.38,0.06
0.47,1.4,0.07
0.47,1.42,0.07
0.47,1.43,0.07
0.47,1.44,0.08
0.48,1.45,0.08
0.49,1.47,0.08
0.49,1.49,0.09
0.53,1.51,0.07
0.56,1.52,0.03
0.58,1.53,0.02
0.58,1.5,0.04
0.59,1.46,0.07
0.61,1.44,0.08
0.62,1.44,0.07
0.6,1.44,0.07
0.58,1.44,0.07
0.58,1.42,0.06
0.61,1.4,0.05
0.61,1.37,0.05
0.62,1.33,0.08
0.62,1.29,0.1
0.62,1.23,0.1
0.6,1.19,0.1
0.57,1.16,0.09
0.55,1.11,0.07
0.53,1.02,0.07
0.53,0.98,0.08
0.54,0.94,0.09
0.54,0.9,0.11
0.54,0.85,0.12
0.52,0.82,0.12
0.49,0.77,0.13
0.49,0.74,0.1
0.48,0.75,0.07
0.44,0.82,0.07
0.38,0.79,0.09
0.36,0.63,0.11
0.38,0.58,0.13
0.38,0.58,0.13
0.35,0.56,0.13
0.36,0.54,0.13
0.37,0.52,0.13
0.34,0.47,0.14
0.33,0.46,0.13
0.31,0.46,0.13
0.3,0.43,0.13
0.29,0.4,0.13
0.27,0.38,0.13
0.26,0.37,0.12
0.25,0.37,0.11
0.24,0.36,0.11
0.25,0.37,0.11
0.23,0.38,0.1
0.23,0.38,0.1
0.24,0.39,0.1
0.25,0.41,0.1
0.26,0.43,0.1
0.27,0.45,0.09
0.29,0.47,0.09
0.3,0.5,0.1
0.32,0.52,0.1
0.35,0.55,0.1
0.36,0.6,0.09
0.37,0.65,0.09
0.37,0.7,0.08
0.37,0.74,0.08
0.37,0.78,0.08
0.39,0.84,0.08
0.4,0.88,0.08
0.41,0.91,0.08
0.42,0.94,0.09
0.44,0.98,0.09
0.44,1.03,0.09
0.43,1.08,0.09
0.48,1.11,0.11
0.48,1.21,0.1
0.42,1.35,0.07
0.38,1.42,0.06
0.39,1.45,0.05
0.43,1.49,0.04
0.46,1.53,0.03
0.45,1.58,0.04
0.43,1.64,0.06
0.44,1.68,0.06
0.5,1.69,0.05
0.53,1.7,0.03
0.53,1.72,0.03
0.54,1.74,0.04
0.56,1.77,0.07
0.56,1.74,0.09
0.58,1.71,0.06
0.61,1.69,0.05
0.62,1.65,0.06
0.59,1.61,0.06
0.58,1.57,0.07
0.6,1.53,0.08
0.61,1.48,0.09
0.62,1.44,0.11
0.64,1.38,0.12
0.66,1.33,0.14
0.67,1.27,0.16
0.68,1.23,0.17
0.68,1.19,0.17
0.68,1.1,0.18
0.68,1.06,0.19
0.69,1.01,0.19
0.69,0.97,0.21
0.68,0.93,0.22
0.68,0.9,0.22
0.67,0.87,0.21
0.64,0.86,0.2
0.62,0.85,0.2
0.61,0.84,0.19
0.59,0.84,0.19
0.56,0.84,0.18
0.53,0.84,0.17
0.49,0.85,0.17
0.45,0.85,0.16
0.41,0.86,0.15
0.37,0.88,0.14
0.33,0.91,0.12
0.28,0.94,0.1
0.22,0.96,0.07
0.17,0.99,0.05
0.11,1.02,0.03
0.06,1.04,0.02
0,1.06,0.01
-0.03,1.06,0.02
-0.05,1.06,0.03
-0.07,1.02,0.07
-0.1,1.01,0.09
-0.13,1.02,0.1
-0.16,1.05,0.1
-0.19,1.07,0.1
-0.19,1.05,0.1
-0.16,1.03,0.11
-0.11,1,0.14
-0.07,1.02,0.16
-0.06,1.08,0.16
-0.05,1.13,0.15
-0.04,1.12,0.13
-0.04,1.1,0.08
-0.06,1,0.05
-0.03,1.01,0.04
-0.01,1.16,0.06
-0.04,1.18,0.08
-0.03,1.16,0.08
-0.01,1.12,0.06
0.01,1.1,0.05
0.04,1.08,0.05
0.08,1.05,0.03
0.09,1.02,0.01
0.1,1.01,0.01
0.1,1.02,0
0.08,1.02,0.01
0.07,1.02,0.01
0.06,1.01,0.01
0.08,1,0
0.1,0.98,0
0.12,0.97,0
0.15,0.96,-0.01
0.18,0.96,-0.01
0.2,0.96,-0.01
0.21,0.96,-0.01
0.22,0.96,0
0.23,0.95,0
0.25,0.95,-0.01
0.26,0.94,-0.02
0.29,0.92,-0.02
0.3,0.9,-0.01
0.32,0.91,-0.01
0.33,0.92,-0.01
0.35,0.92,0
0.37,0.9,0
0.4,0.89,0
0.43,0.88,-0.02
0.44,0.87,-0.02
0.44,0.86,-0.02
0.45,0.86,-0.01
0.48,0.86,0
0.51,0.88,-0.01
0.54,0.94,0.01
0.55,0.97,0
0.54,0.98,-0.01
0.55,0.96,-0.02
0.55,0.94,-0.02
0.55,0.91,-0.02
0.56,0.9,-0.01
0.58,0.88,-0.02
0.61,0.86,-0.03
0.68,0.84,-0.05
0.81,0.83,-0.04
0.94,0.84,0.01
1.03,0.84,0.04
1.06,0.84,0.05
1.06,0.84,0.01
1.09,0.81,-0.04
1.15,0.76,0
1.2,0.76,0.09
1.29,0.8,0.19
1.34,0.83,0.26
1.33,0.86,0.28
1.32,0.87,0.24
1.31,0.89,0.19
1.33,0.91,0.16
1.36,0.94,0.14
1.37,0.98,0.13
1.3,1,0.13
1.25,1.02,0.13
1.21,1.05,0.13
1.16,1.07,0.13
1.1,1.08,0.12
1.04,1.09,0.1
0.98,1.09,0.08
0.91,1.08,0.07
0.84,1.05,0.07
0.8,1.01,0.07
0.75,0.96,0.07
0.71,0.91,0.07
0.66,0.85,0.07
0.62,0.8,0.1
0.59,0.78,0.12
0.55,0.74,0.12
0.51,0.68,0.11
0.48,0.65,0.1
0.47,0.69,0.09
0.42,0.71,0.07
0.35,0.61,0.06
0.37,0.53,0.07
0.37,0.5,0.09
0.33,0.47,0.12
0.31,0.46,0.12
0.3,0.45,0.1
0.24,0.42,0.09
0.23,0.4,0.09
0.24,0.4,0.09
0.25,0.39,0.09
0.25,0.38,0.11
0.25,0.37,0.13
0.25,0.35,0.13
0.25,0.34,0.11
0.24,0.34,0.11
0.22,0.33,0.11
0.22,0.35,0.11
0.23,0.37,0.11
0.22,0.38,0.12
0.22,0.38,0.12
0.23,0.39,0.12
0.26,0.4,0.14
0.27,0.42,0.15
0.28,0.46,0.15
0.29,0.5,0.14
0.29,0.54,0.13
0.31,0.58,0.13
0.31,0.62,0.13
0.32,0.65,0.12
0.34,0.68,0.12
0.35,0.72,0.12
0.37,0.78,0.13
0.42,0.92,0.14
0.44,0.99,0.14
0.48,1.07,0.13
0.5,1.13,0.12
0.52,1.2,0.12
0.51,1.22,0.1
0.5,1.22,0.09
0.57,1.22,0.13
0.55,1.32,0.12
0.46,1.51,0.06
0.45,1.57,0.06
0.46,1.56,0.04
0.48,1.57,0.02
0.5,1.61,0.01
0.52,1.65,0
0.56,1.69,0.01
0.57,1.74,0.02
0.58,1.77,0.02
0.62,1.77,0.03
0.63,1.79,0.05
0.63,1.8,0.05
0.64,1.78,0.04
0.64,1.75,0.04
0.63,1.73,0.07
0.6,1.73,0.08
0.63,1.7,0.05
0.62,1.56,0.07
0.62,1.52,0.1
0.64,1.48,0.12
0.65,1.42,0.14
0.65,1.35,0.15
0.65,1.31,0.16
0.63,1.28,0.16
0.62,1.24,0.17
0.62,1.18,0.18
0.63,1.12,0.18
0.63,1.07,0.19
0.63,1.03,0.19
0.64,1.01,0.2
0.65,0.98,0.2
0.67,0.94,0.21
0.67,0.89,0.21
0.68,0.85,0.21
0.67,0.82,0.2
0.67,0.8,0.2
0.67,0.78,0.21
0.66,0.77,0.21
0.66,0.77,0.21
0.66,0.77,0.2
0.66,0.77,0.2
0.65,0.78,0.18
0.64,0.8,0.17
0.61,0.86,0.16
0.6,0.89,0.15
0.59,0.93,0.15
0.57,0.97,0.15
0.56,1,0.14
0.55,1.03,0.12
0.55,1.07,0.11
0.55,1.1,0.1
0.54,1.14,0.1
0.52,1.18,0.1
0.51,1.2,0.11
0.51,1.23,0.11
0.51,1.25,0.11
0.51,1.28,0.11
0.52,1.32,0.1
0.52,1.36,0.09
0.52,1.41,0.08
0.53,1.45,0.07
0.54,1.46,0.08
0.55,1.46,0.1
0.58,1.44,0.1
0.61,1.45,0.07
0.62,1.47,0.06
0.61,1.5,0.06
0.61,1.52,0.06
0.62,1.54,0.07
0.61,1.56,0.07
0.58,1.57,0.07
0.57,1.57,0.07
0.56,1.53,0.09
0.59,1.49,0.1
0.61,1.47,0.09
0.61,1.46,0.08
0.59,1.46,0.08
0.58,1.43,0.07
0.59,1.39,0.08
0.59,1.35,0.08
0.59,1.32,0.09
0.59,1.28,0.1
0.59,1.21,0.1
0.58,1.15,0.08
0.56,1.11,0.07
0.53,1.07,0.08
0.51,1.01,0.09
0.5,0.96,0.09
0.49,0.92,0.08
0.47,0.88,0.09
0.47,0.85,0.1
0.49,0.82,0.1
0.49,0.75,0.11
0.48,0.68,0.11
0.46,0.63,0.07
0.44,0.53,0.07
0.45,0.58,0.1
0.41,0.66,0.12
0.39,0.57,0.11
0.37,0.44,0.07
0.37,0.43,0.08
0.35,0.42,0.11
0.32,0.37,0.11
0.31,0.33,0.09
0.3,0.32,0.11
0.3,0.32,0.11
0.29,0.29,0.11
0.28,0.28,0.1
0.26,0.29,0.1
0.23,0.29,0.1
0.22,0.28,0.1
0.22,0.28,0.09
0.23,0.28,0.1
0.23,0.29,0.1
0.24,0.29,0.12
0.24,0.3,0.13
0.25,0.32,0.14
0.26,0.34,0.13
0.26,0.37,0.13
0.27,0.38,0.13
0.28,0.4,0.13
0.31,0.47,0.12
0.31,0.53,0.12
0.32,0.59,0.11
0.34,0.65,0.1
0.35,0.72,0.08
0.37,0.78,0.05
0.39,0.83,0.04
0.39,0.88,0.04
0.42,0.89,0.06
0.48,0.89,0.08
0.54,0.95,0.07
0.57,1.04,0.09
0.57,1.08,0.1
0.57,1.08,0.13
0.56,1.2,0.15
0.51,1.35,0.1
0.5,1.42,0.08
0.49,1.44,0.07
0.47,1.46,0.05
0.45,1.5,0.03
0.46,1.54,0.02
0.48,1.58,0.02
0.52,1.64,0.01
0.56,1.68,0
0.59,1.7,-0.02
0.61,1.72,-0.05
0.62,1.75,-0.04
0.6,1.79,-0.03
0.62,1.82,-0.03
0.7,1.82,-0.06
0.74,1.8,-0.08
0.66,1.71,-0.04
0.65,1.66,0.01
0.74,1.67,0
0.77,1.61,-0.01
0.76,1.56,0
0.73,1.54,0.01
0.72,1.51,0.04
0.73,1.46,0.05
0.75,1.44,0.04
0.76,1.4,0.04
0.77,1.35,0.04
0.78,1.28,0.04
0.8,1.19,0.04
0.81,1.11,0.05
0.81,1.05,0.05
0.82,1,0.05
0.82,0.94,0.06
0.8,0.9,0.07
0.77,0.87,0.08
0.76,0.84,0.09
0.75,0.82,0.09
0.71,0.78,0.1
0.7,0.77,0.11
0.69,0.76,0.11
0.68,0.76,0.11
0.68,0.77,0.11
0.68,0.78,0.1
0.67,0.81,0.09
0.66,0.84,0.09
0.65,0.87,0.08
0.64,0.9,0.08
0.63,0.94,0.07
0.63,0.97,0.06
0.61,1.01,0.06
0.59,1.05,0.06
0.58,1.08,0.05
0.58,1.11,0.05
0.57,1.15,0.03
0.56,1.2,0.02
0.54,1.24,0.01
0.53,1.29,0
0.53,1.33,0
0.54,1.36,0.01
0.54,1.38,0.03
0.58,1.4,0.02
0.62,1.44,-0.01
0.63,1.48,-0.05
0.62,1.55,-0.07
0.6,1.57,-0.07
0.59,1.59,-0.06
0.58,1.6,-0.05
0.59,1.6,-0.03
0.59,1.59,-0.02
0.59,1.61,-0.03
0.57,1.62,-0.03
0.53,1.61,-0.05
0.53,1.56,-0.06
0.56,1.56,-0.06
0.57,1.57,-0.04
0.58,1.51,-0.01
0.59,1.46,0.01
0.62,1.41,-0.01
0.63,1.4,-0.04
0.58,1.39,-0.04
0.54,1.35,-0.03
0.54,1.31,-0.03
0.54,1.27,-0.01
0.54,1.23,0
0.53,1.18,0.02
0.52,1.13,0.04
0.52,1.08,0.04
0.48,1.04,0.03
0.44,0.99,0.03
0.42,0.92,0.04
0.4,0.88,0.04
0.38,0.84,0.05
0.38,0.81,0.08
0.36,0.76,0.09
0.35,0.68,0.1
0.33,0.65,0.1
0.33,0.64,0.09
0.31,0.62,0.08
0.26,0.58,0.09
0.23,0.52,0.07
0.21,0.46,0.08
0.2,0.48,0.08
0.18,0.54,0.06
0.17,0.49,0.09
0.15,0.39,0.1
0.13,0.33,0.11
0.14,0.31,0.12
0.16,0.3,0.12
0.17,0.29,0.12
0.17,0.28,0.12
0.17,0.28,0.13
0.17,0.3,0.14
0.18,0.33,0.14
0.18,0.36,0.15
0.18,0.39,0.17
0.22,0.49,0.18
0.24,0.55,0.18
0.23,0.59,0.17
0.23,0.63,0.16
0.24,0.7,0.18
0.23,0.74,0.19
0.22,0.77,0.15
0.21,0.83,0.12
0.22,0.89,0.13
0.27,0.79,0.15
0.28,0.85,0.12
0.28,1.03,0.09
0.33,1.04,0.09
0.34,1.07,0.09
0.33,1.11,0.08
0.33,1.19,0.06
0.36,1.26,0.06
0.38,1.33,0.05
0.4,1.41,0.05
0.43,1.51,0.04
0.46,1.62,0.05
0.46,1.72,0.06
0.49,1.8,0.06
0.54,1.87,0.06
0.54,1.91,0.06
0.52,1.94,0.07
0.57,1.97,0.08
0.58,1.93,0.09
0.56,1.9,0.08
0.55,1.9,0.11
0.58,1.83,0.13
0.61,1.76,0.14
0.6,1.75,0.14
0.57,1.73,0.15
0.6,1.7,0.17
0.62,1.63,0.17
0.64,1.58,0.16
0.68,1.54,0.18
0.67,1.49,0.19
0.67,1.42,0.2
0.68,1.37,0.21
0.69,1.32,0.21
0.7,1.28,0.21
0.69,1.23,0.22
0.69,1.18,0.24
0.69,1.13,0.25
0.7,1.07,0.26
0.71,1.03,0.27
0.73,1,0.27
0.73,0.96,0.28
0.73,0.92,0.3
0.73,0.87,0.31
0.73,0.81,0.32
0.73,0.78,0.33
0.73,0.76,0.33
0.73,0.75,0.35
0.72,0.74,0.35
0.72,0.74,0.34
0.71,0.74,0.33
0.71,0.76,0.31
0.7,0.81,0.29
0.69,0.86,0.28
0.69,0.91,0.27
0.69,0.95,0.25
0.68,0.98,0.24
0.67,1.02,0.23
0.66,1.06,0.21
0.65,1.1,0.2
0.64,1.15,0.18
0.62,1.2,0.17
0.6,1.26,0.16
0.59,1.32,0.14
0.57,1.38,0.12
0.56,1.43,0.11
0.54,1.48,0.1
0.53,1.52,0.09
0.51,1.57,0.07
0.49,1.6,0.04
0.45,1.66,0.01
0.44,1.67,0
0.44,1.68,-0.02
0.46,1.68,-0.06
0.49,1.68,-0.1
0.53,1.68,-0.14
0.55,1.68,-0.17
0.57,1.67,-0.16
0.58,1.65,-0.15
0.57,1.62,-0.15
0.53,1.61,-0.15
0.5,1.63,-0.15
0.5,1.63,-0.17
0.5,1.63,-0.17
0.49,1.65,-0.17
0.48,1.64,-0.15
0.46,1.62,-0.13
0.44,1.59,-0.11
0.41,1.54,-0.1
0.4,1.47,-0.12
0.39,1.4,-0.14
0.38,1.33,-0.13
0.36,1.26,-0.11
0.34,1.19,-0.08
0.37,1.11,-0.05
0.38,1.04,-0.02
0.41,0.93,-0.02
0.4,0.89,-0.02
0.36,0.83,-0.01
0.32,0.77,-0.01
0.27,0.7,0
0.25,0.66,0.02
0.23,0.61,0.02
0.2,0.56,0.03
0.19,0.54,0.03
0.19,0.51,0.04
0.17,0.47,0.06
0.17,0.44,0.06
0.16,0.42,0.07
0.15,0.4,0.07
0.15,0.39,0.07
0.14,0.39,0.08
0.14,0.39,0.08
0.14,0.39,0.08
0.13,0.39,0.08
0.12,0.39,0.08
0.13,0.38,0.09
0.16,0.39,0.1
0.17,0.4,0.11
0.18,0.42,0.11
0.19,0.45,0.1
0.2,0.49,0.08
0.2,0.56,0.07
0.2,0.6,0.07
0.21,0.62,0.08
0.25,0.69,0.09
0.26,0.72,0.08
0.25,0.64,0.03
0.27,0.69,0.01
0.32,0.88,0.03
0.33,1,0.04
0.31,1.09,0.04
0.32,1.16,0.05
0.36,1.17,0.05
0.38,1.27,0.03
0.39,1.45,0.04
0.41,1.57,0.05
0.45,1.64,0.08
0.42,1.68,0.13
0.43,1.68,0.16
0.5,1.69,0.13
0.54,1.75,0.09
0.56,1.79,0.09
0.49,1.79,0.13
0.44,1.86,0.16
0.47,1.95,0.21
0.54,1.98,0.23
0.58,2,0.25
0.54,1.87,0.24
0.56,1.82,0.2
0.56,1.73,0.19
0.55,1.65,0.21
0.53,1.62,0.25
0.55,1.57,0.29
0.56,1.51,0.3
0.56,1.47,0.31
0.57,1.42,0.32
0.57,1.37,0.31
0.59,1.31,0.31
0.59,1.26,0.33
0.58,1.21,0.35
0.59,1.17,0.36
0.6,1.14,0.38
0.59,1.11,0.4
0.59,1.08,0.42
0.59,1.05,0.43
0.6,1.02,0.44
0.6,0.97,0.45
0.62,0.92,0.46
0.64,0.87,0.48
0.66,0.81,0.5
0.68,0.76,0.52
0.7,0.73,0.53
0.71,0.71,0.53
0.72,0.69,0.52
0.71,0.72,0.5
0.7,0.75,0.49
0.68,0.79,0.48
0.65,0.83,0.48
0.62,0.88,0.47
0.59,0.94,0.45
0.57,0.99,0.42
0.55,1.03,0.41
0.53,1.07,0.39
0.53,1.12,0.36
0.53,1.16,0.34
0.52,1.19,0.32
0.52,1.2,0.3
0.52,1.22,0.28
0.52,1.26,0.25
0.52,1.3,0.22
0.52,1.35,0.2
0.5,1.41,0.17
0.5,1.48,0.15
0.49,1.54,0.12
0.48,1.59,0.1
0.46,1.64,0.08
0.43,1.66,0.06
0.42,1.67,0.04
0.4,1.66,0.01
0.38,1.62,0
0.39,1.59,-0.01
0.39,1.56,-0.03
0.41,1.49,-0.05
0.4,1.47,-0.03
0.43,1.53,-0.01
0.44,1.58,-0.01
0.4,1.62,-0.01
0.4,1.65,0
0.42,1.66,-0.02
0.44,1.66,-0.05
0.41,1.63,-0.06
0.38,1.56,-0.04
0.37,1.48,-0.04
0.36,1.39,-0.02
0.35,1.3,0
0.36,1.18,0.01
0.39,1.07,0.01
0.41,1.04,0.02
0.39,1.03,0.03
0.38,0.99,0.01
0.38,0.93,0
0.36,0.89,0
0.33,0.88,0.01
0.3,0.86,0.01
0.29,0.79,0.02
0.25,0.78,0.02
0.24,0.76,0.03
0.21,0.73,0.05
0.2,0.68,0.05
0.2,0.64,0.04
0.19,0.61,0.04
0.16,0.57,0.05
0.13,0.54,0.05
0.12,0.52,0.05
0.1,0.5,0.04
0.09,0.5,0.04
0.08,0.5,0.04
0.08,0.51,0.05
0.09,0.5,0.05
0.1,0.5,0.04
0.12,0.51,0.05
0.13,0.52,0.05
0.13,0.54,0.06
0.13,0.56,0.05
0.14,0.57,0.05
0.14,0.59,0.05
0.15,0.62,0.05
0.17,0.67,0.07
0.19,0.71,0.08
0.19,0.61,0.07
0.2,0.83,0.04
0.23,0.88,0.06
0.24,0.9,0.06
0.25,0.94,0.06
0.27,0.98,0.06
0.29,1.01,0.05
0.31,1.08,0.06
0.33,1.21,0.06
0.34,1.33,0.05
0.31,1.44,0.05
0.34,1.52,0.05
0.39,1.58,0.05
0.38,1.68,0.07
0.37,1.75,0.13
0.4,1.82,0.13
0.52,1.85,0.11
0.56,1.81,0.11
0.5,1.77,0.12
0.47,1.76,0.14
0.52,1.76,0.14
0.58,1.75,0.15
0.59,1.73,0.18
0.56,1.77,0.21
0.58,1.85,0.21
0.61,1.82,0.22
0.59,1.75,0.22
0.59,1.64,0.19
0.63,1.56,0.22
0.61,1.47,0.24
0.62,1.39,0.24
0.62,1.32,0.26
0.61,1.26,0.28
0.61,1.22,0.3
0.61,1.19,0.32
0.6,1.16,0.33
0.59,1.11,0.33
0.6,1.06,0.34
0.6,1.02,0.35
0.62,0.99,0.36
0.62,0.97,0.36
0.63,0.95,0.37
0.63,0.92,0.38
0.64,0.88,0.39
0.64,0.85,0.4
0.65,0.82,0.41
0.65,0.79,0.41
0.66,0.75,0.42
0.67,0.72,0.43
0.68,0.7,0.42
0.68,0.7,0.41
0.66,0.71,0.41
0.64,0.74,0.4
0.62,0.79,0.38
0.58,0.83,0.35
0.57,0.88,0.33
0.56,0.93,0.31
0.56,0.99,0.29
0.55,1.04,0.29
0.54,1.09,0.3
0.54,1.13,0.29
0.54,1.17,0.26
0.53,1.2,0.25
0.52,1.23,0.24
0.51,1.25,0.24
0.51,1.27,0.24
0.51,1.3,0.24
0.5,1.34,0.22
0.5,1.39,0.2
0.5,1.44,0.17
0.51,1.48,0.14
0.53,1.52,0.12
0.55,1.55,0.1
0.57,1.59,0.08
0.6,1.61,0.07
0.6,1.64,0.06
0.6,1.66,0.05
0.6,1.68,0.03
0.59,1.69,0
0.57,1.63,-0.02
0.53,1.61,-0.02
0.51,1.63,0
0.5,1.61,-0.01
0.49,1.6,-0.04
0.5,1.6,-0.07
0.51,1.6,-0.07
0.49,1.64,-0.07
0.41,1.68,-0.05
0.41,1.63,-0.05
0.39,1.51,-0.05
0.37,1.4,-0.03
0.4,1.24,-0.02
0.43,1.12,-0.02
0.45,1.12,-0.03
0.41,1.13,-0.02
0.37,1.1,0
0.36,1.05,0
0.37,1.02,-0.01
0.32,0.98,0.01
0.28,0.93,0.04
0.28,0.89,0.02
0.27,0.84,0.03
0.24,0.77,0.07
0.24,0.71,0.06
0.24,0.66,0.04
0.22,0.56,0.06
0.21,0.53,0.07
0.21,0.5,0.07
0.18,0.46,0.07
0.15,0.41,0.08
0.14,0.39,0.07
0.14,0.39,0.07
0.13,0.39,0.07
0.13,0.38,0.07
0.12,0.38,0.07
0.12,0.39,0.08
0.12,0.4,0.08
0.13,0.41,0.08
0.13,0.43,0.08
0.13,0.45,0.09
0.14,0.47,0.09
0.16,0.5,0.08
0.17,0.52,0.07
0.18,0.55,0.07
0.19,0.57,0.06
0.21,0.6,0.05
0.24,0.63,0.06
0.25,0.68,0.05
0.25,0.74,0.04
0.22,0.67,0.02
0.25,0.72,0
0.27,1.01,0.04
0.25,1.08,0.02
0.28,1.12,0.01
0.32,1.19,0.01
0.35,1.31,0.02
0.36,1.46,0.01
0.36,1.59,0.02
0.36,1.66,0.03
0.42,1.67,0.03
0.49,1.67,0.03
0.48,1.72,0.04
0.47,1.81,0.06
0.52,1.92,0.07
0.56,1.99,0.06
0.54,2.06,0.1
0.5,2.08,0.11
0.5,2.02,0.12
0.56,1.93,0.13
0.6,1.8,0.12
0.59,1.67,0.14
0.57,1.6,0.19
0.58,1.64,0.22
0.59,1.67,0.2
0.55,1.63,0.22
0.49,1.59,0.23
0.44,1.56,0.24
0.38,1.44,0.24
0.34,1.4,0.26
0.34,1.37,0.28
0.35,1.31,0.3
0.34,1.25,0.33
0.34,1.18,0.33
0.37,1.11,0.33
0.38,1.07,0.34
0.37,1.05,0.36
0.39,1.04,0.36
0.42,1.01,0.35
0.43,0.99,0.36
0.45,0.97,0.38
0.47,0.95,0.39
0.47,0.94,0.4
0.48,0.93,0.4
0.51,0.91,0.4
0.54,0.88,0.4
0.57,0.85,0.41
0.58,0.83,0.42
0.59,0.8,0.43
0.6,0.78,0.43
0.61,0.76,0.41
0.61,0.75,0.39
0.6,0.76,0.37
0.59,0.77,0.35
0.58,0.81,0.32
0.58,0.84,0.29
0.57,0.88,0.27
0.56,0.92,0.25
0.56,0.96,0.22
0.57,1,0.2
0.57,1.04,0.18
0.56,1.08,0.16
0.56,1.12,0.15
0.55,1.16,0.13
0.55,1.21,0.12
0.55,1.27,0.1
0.55,1.34,0.1
0.56,1.41,0.08
0.57,1.48,0.07
0.58,1.55,0.05
0.59,1.6,0.03
0.6,1.63,0.01
0.6,1.64,0.01
0.6,1.63,-0.01
0.6,1.62,-0.02
0.58,1.62,-0.03
0.57,1.63,-0.04
0.56,1.65,-0.04
0.54,1.7,-0.04
0.53,1.77,-0.06
0.55,1.92,-0.08
0.51,2.03,-0.08
0.45,1.96,-0.09
0.4,1.98,-0.1
0.38,2.1,-0.09
0.35,2.01,-0.1
0.33,1.87,-0.11
0.33,1.76,-0.1
0.32,1.68,-0.07
0.29,1.62,-0.07
0.26,1.52,-0.09
0.29,1.39,-0.1
0.32,1.26,-0.1
0.28,1.14,-0.09
0.26,1.09,-0.09
0.26,1.03,-0.08
0.23,0.98,-0.07
0.21,0.93,-0.09
0.22,0.86,-0.09
0.2,0.81,-0.08
0.18,0.78,-0.07
0.16,0.75,-0.05
0.14,0.72,-0.04
0.12,0.69,-0.03
0.11,0.65,-0.03
0.1,0.62,-0.04
0.09,0.56,-0.03
0.04,0.53,-0.02
0.03,0.5,-0.01
0.02,0.48,-0.01
0.01,0.45,0
0.01,0.43,0
0.02,0.41,0
0.02,0.4,0
0.04,0.4,0
0.06,0.41,0
0.08,0.42,0.01
0.1,0.43,0.01
0.13,0.45,0.01
0.17,0.48,0.01
0.19,0.53,0.01
0.2,0.58,0.01
0.21,0.63,0.01
0.23,0.69,0.01
0.23,0.75,0.02
0.23,0.82,0.03
0.23,0.9,0.02
0.24,0.96,0.02
0.25,1.04,0.02
0.23,1.1,0.05
0.27,1.15,0.06
0.33,1.24,0.03
0.31,1.5,0.05
0.32,1.62,0.05
0.37,1.69,0.05
0.43,1.72,0.05
0.48,1.79,0.04
0.48,1.89,0.05
0.47,1.98,0.06
0.48,2.06,0.04
0.5,2.11,0.06
0.53,2.1,0.1
0.57,2.06,0.17
0.61,2,0.16
0.7,1.9,0.07
0.71,1.77,0.07
0.63,1.64,0.15
0.58,1.56,0.2
0.56,1.51,0.22
0.57,1.49,0.21
0.58,1.43,0.2
0.54,1.37,0.23
0.52,1.36,0.25
0.52,1.34,0.24
0.53,1.31,0.22
0.56,1.27,0.21
0.55,1.24,0.22
0.55,1.21,0.25
0.56,1.15,0.25
0.6,1.12,0.26
0.61,1.09,0.26
0.62,1.03,0.26
0.64,0.98,0.26
0.65,0.93,0.28
0.66,0.86,0.3
0.67,0.82,0.31
0.68,0.79,0.33
0.68,0.75,0.35
0.69,0.72,0.37
0.7,0.71,0.38
0.7,0.71,0.38
0.69,0.71,0.38
0.66,0.74,0.38
0.63,0.77,0.38
0.6,0.82,0.38
0.57,0.87,0.37
0.53,0.92,0.37
0.5,0.98,0.36
0.48,1.04,0.36
0.45,1.08,0.35
0.44,1.11,0.33
0.44,1.13,0.32
0.45,1.14,0.3
0.45,1.14,0.28
0.45,1.15,0.26
0.45,1.17,0.25
0.45,1.19,0.24
0.44,1.22,0.23
0.43,1.24,0.21
0.41,1.25,0.19
0.41,1.27,0.18
0.4,1.29,0.17
0.39,1.33,0.17
0.38,1.35,0.16
0.38,1.37,0.14
0.4,1.39,0.14
0.42,1.41,0.13
0.47,1.41,0.11
0.5,1.39,0.09
0.52,1.42,0.08
0.54,1.46,0.1
0.55,1.45,0.1
0.57,1.44,0.09
0.59,1.44,0.08
0.59,1.43,0.08
0.57,1.43,0.05
0.54,1.42,0.04
0.52,1.41,0.03
0.49,1.41,0.03
0.46,1.42,0.03
0.47,1.36,0.05
0.46,1.33,0.07
0.42,1.31,0.08
0.47,1.23,0.04
0.52,1.15,0.02
0.5,1.13,0.02
0.44,1.13,0.02
0.39,1.09,0.04
0.36,1.01,0.03
0.33,0.93,0.04
0.32,0.87,0.08
0.32,0.85,0.1
0.34,0.81,0.07
0.33,0.77,0.08
0.27,0.75,0.12
0.28,0.76,0.11
0.31,0.74,0.09
0.29,0.71,0.1
0.27,0.69,0.1
0.28,0.65,0.1
0.27,0.59,0.1
0.27,0.56,0.09
0.27,0.54,0.1
0.27,0.5,0.12
0.27,0.46,0.12
0.26,0.42,0.11
0.24,0.38,0.11
0.24,0.38,0.11
0.24,0.37,0.11
0.25,0.37,0.11
0.25,0.37,0.12
0.26,0.38,0.12
0.26,0.4,0.12
0.27,0.41,0.13
0.28,0.44,0.13
0.28,0.48,0.13
0.29,0.52,0.14
0.29,0.57,0.13
0.28,0.61,0.12
0.28,0.66,0.12
0.27,0.69,0.12
0.26,0.72,0.1
0.26,0.75,0.11
0.26,0.78,0.11
0.29,0.79,0.12
0.35,0.83,0.14
0.35,0.96,0.15
0.32,1.03,0.13
0.35,1.06,0.11
0.37,1.11,0.11
0.36,1.18,0.12
0.36,1.23,0.11
0.31,1.35,0.11
0.31,1.37,0.12
0.36,1.35,0.11
0.38,1.35,0.1
0.4,1.37,0.09
0.41,1.44,0.11
0.44,1.55,0.12
0.46,1.68,0.13
0.46,1.77,0.13
0.47,1.79,0.13
0.48,1.77,0.14
0.5,1.69,0.15
0.5,1.57,0.14
0.56,1.48,0.12
0.58,1.44,0.13
0.53,1.41,0.15
0.53,1.43,0.16
0.56,1.45,0.18
0.57,1.43,0.21
0.58,1.42,0.23
0.58,1.4,0.23
0.57,1.37,0.22
0.57,1.32,0.21
0.59,1.27,0.21
0.59,1.22,0.23
0.6,1.17,0.24
0.63,1.06,0.27
0.62,1.03,0.28
0.62,1,0.29
0.63,0.96,0.31
0.63,0.93,0.32
0.63,0.91,0.34
0.63,0.89,0.36
0.64,0.88,0.38
0.64,0.87,0.4
0.63,0.86,0.41
0.63,0.86,0.42
0.62,0.86,0.43
0.61,0.86,0.44
0.6,0.86,0.44
0.59,0.87,0.44
0.58,0.87,0.45
0.56,0.89,0.44
0.55,0.91,0.43
0.53,0.93,0.43
0.5,0.96,0.41
0.48,0.99,0.4
0.46,1.01,0.39
0.43,1.05,0.37
0.42,1.08,0.35
0.4,1.1,0.33
0.38,1.13,0.29
0.37,1.18,0.27
0.36,1.2,0.26
0.34,1.21,0.24
0.34,1.22,0.22
0.34,1.23,0.2
0.35,1.23,0.19
0.32,1.27,0.21
0.33,1.26,0.21
0.35,1.28,0.2
0.3,1.33,0.18
0.29,1.31,0.16
0.3,1.26,0.15
0.29,1.24,0.11
0.32,1.23,0.1
0.3,1.22,0.12
0.27,1.2,0.12
0.28,1.14,0.11
0.29,1.08,0.09
0.29,1.02,0.08
0.32,0.97,0.05
0.33,0.97,0.04
0.32,0.97,0.06
0.33,0.99,0.06
0.35,1.01,0.06
0.36,1,0.05
0.36,1,0.02
0.36,0.97,0.01
0.38,0.95,0.01
0.39,0.94,0.01
0.4,0.94,0.02
0.4,0.95,0.03
0.42,0.95,0.03
0.43,0.94,0.02
0.45,0.93,0.01
0.45,0.91,0.01
0.45,0.89,0.01
0.45,0.87,0.02
0.46,0.85,0.02
0.45,0.84,0.03
0.44,0.83,0.04
0.43,0.84,0.05
0.43,0.84,0.05
0.43,0.83,0.05
0.43,0.8,0.05
0.42,0.77,0.05
0.41,0.74,0.06
0.42,0.71,0.06
0.42,0.68,0.05
0.41,0.65,0.06
0.43,0.63,0.05
0.43,0.61,0.05
0.42,0.61,0.1
0.43,0.61,0.11
0.45,0.62,0.11
0.45,0.63,0.12
0.45,0.63,0.13
0.46,0.63,0.14
0.47,0.64,0.15
0.48,0.65,0.17
0.49,0.67,0.18
0.51,0.69,0.2
0.52,0.73,0.22
0.51,0.76,0.23
0.51,0.78,0.24
0.51,0.81,0.24
0.52,0.85,0.24
0.5,0.88,0.24
0.49,0.91,0.24
0.47,0.94,0.24
0.45,0.97,0.24
0.43,0.99,0.22
0.4,1.02,0.21
0.37,1.04,0.2
0.36,1.05,0.19
0.34,1.05,0.17
0.31,1.05,0.15
0.26,1.07,0.12
0.17,1.11,0.07
0.15,1.12,0.05
0.2,1.13,0.05
0.2,1.18,0.07
0.2,1.24,0.07
0.23,1.29,0.05
0.25,1.34,0.03
0.23,1.34,0.03
0.17,1.31,0.05
0.08,1.26,0.09
0.03,1.22,0.13
0.04,1.2,0.15
0.08,1.19,0.16
0.08,1.17,0.18
0.04,1.15,0.22
0.04,1.17,0.23
0.07,1.2,0.21
0.11,1.21,0.21
0.13,1.2,0.21
0.13,1.19,0.22
0.12,1.2,0.24
0.16,1.22,0.25
0.17,1.22,0.25
0.15,1.21,0.27
0.17,1.21,0.29
0.22,1.21,0.28
0.27,1.2,0.28
0.34,1.11,0.28
0.36,1.05,0.3
0.39,0.98,0.32
0.4,0.93,0.35
0.4,0.88,0.38
0.4,0.84,0.4
0.4,0.8,0.41
0.41,0.78,0.4
0.4,0.77,0.39
0.39,0.77,0.38
0.37,0.77,0.38
0.36,0.78,0.38
0.37,0.78,0.37
0.39,0.79,0.35
0.42,0.79,0.33
0.44,0.79,0.32
0.46,0.8,0.3
0.49,0.81,0.28
0.52,0.82,0.25
0.53,0.84,0.23
0.52,0.86,0.22
0.51,0.87,0.2
0.52,0.89,0.19
0.52,0.9,0.17
0.52,0.92,0.17
0.53,0.96,0.17
0.54,1.06,0.17
0.54,1.12,0.16
0.54,1.19,0.16
0.53,1.25,0.15
0.52,1.31,0.14
0.5,1.36,0.14
0.48,1.41,0.14
0.47,1.45,0.14
0.45,1.48,0.14
0.44,1.5,0.13
0.42,1.5,0.12
0.41,1.5,0.12
0.4,1.49,0.1
0.39,1.51,0.09
0.38,1.54,0.08
0.39,1.57,0.06
0.4,1.63,0.05
0.39,1.71,0.05
0.41,1.77,0.03
0.4,1.76,0.01
0.34,1.79,0.03
0.33,1.77,0.01
0.34,1.75,-0.01
0.32,1.74,-0.01
0.27,1.66,-0.03
0.24,1.59,-0.06
0.3,1.41,-0.07
0.27,1.36,-0.04
0.27,1.32,-0.04
0.27,1.26,-0.04
0.26,1.21,-0.04
0.26,1.16,-0.04
0.26,1.1,-0.05
0.25,1.05,-0.05
0.23,1,-0.05
0.22,0.96,-0.05
0.2,0.92,-0.04
0.17,0.88,-0.04
0.15,0.83,-0.03
0.12,0.79,-0.01
0.1,0.77,-0.01
0.07,0.72,-0.01
0.06,0.68,0.01
0.04,0.65,0.01
0.03,0.61,0.02
0.02,0.58,0.02
0.01,0.55,0.03
0.02,0.54,0.04
0.03,0.54,0.04
0.03,0.54,0.05
0.05,0.55,0.05
0.08,0.56,0.06
0.13,0.6,0.07
0.16,0.62,0.07
0.18,0.65,0.07
0.2,0.67,0.07
0.22,0.7,0.08
0.23,0.74,0.08
0.23,0.77,0.09
0.24,0.8,0.1
0.25,0.84,0.11
0.26,0.86,0.11
0.26,0.9,0.1
0.26,0.95,0.1
0.27,1,0.09
0.25,1.08,0.1
0.24,1.16,0.1
0.27,1.22,0.09
0.26,1.29,0.1
0.25,1.34,0.1
0.28,1.38,0.08
0.32,1.43,0.07
0.36,1.46,0.05
0.39,1.48,0.06
0.42,1.51,0.06
0.45,1.53,0.06
0.53,1.59,0.07
0.55,1.56,0.08
0.58,1.52,0.08
0.59,1.51,0.1
0.58,1.49,0.12
0.58,1.48,0.13
0.6,1.45,0.13
0.59,1.42,0.16
0.54,1.41,0.17
0.54,1.37,0.15
0.54,1.33,0.15
0.5,1.28,0.16
0.48,1.21,0.17
0.5,1.16,0.17
0.5,1.12,0.19
0.5,1.07,0.2
0.51,1.05,0.2
0.51,1.05,0.19
0.5,1.03,0.19
0.48,1.02,0.2
0.47,1.02,0.2
0.47,1.02,0.2
0.46,1.03,0.21
0.45,1.02,0.22
0.46,1.01,0.22
0.45,0.99,0.22
0.45,0.96,0.22
0.46,0.93,0.26
0.47,0.86,0.28
0.48,0.84,0.3
0.49,0.81,0.31
0.5,0.79,0.33
0.49,0.79,0.34
0.46,0.78,0.34
0.44,0.79,0.35
0.41,0.81,0.35
0.39,0.83,0.36
0.35,0.86,0.37
0.31,0.9,0.37
0.28,0.94,0.37
0.26,0.98,0.36
0.24,1.02,0.35
0.22,1.05,0.35
0.21,1.08,0.35
0.2,1.1,0.33
0.19,1.1,0.31
0.19,1.1,0.3
0.2,1.09,0.29
0.2,1.09,0.27
0.21,1.07,0.27
0.23,1.06,0.26
0.24,1.08,0.26
0.25,1.09,0.24
0.24,1.1,0.21
0.24,1.07,0.19
0.22,1.12,0.18
0.2,1.16,0.19
0.19,1.16,0.19
0.17,1.15,0.19
0.18,1.16,0.19
0.2,1.15,0.17
0.22,1.15,0.14
0.23,1.16,0.14
0.21,1.15,0.14
0.21,1.12,0.13
0.23,1.11,0.13
0.23,1.09,0.12
0.22,1.07,0.1
0.22,1.04,0.09
0.21,1.01,0.09
0.21,0.98,0.08
0.21,0.96,0.08
0.21,0.95,0.07
0.21,0.94,0.07
0.22,0.93,0.07
0.22,0.93,0.06
0.23,0.93,0.06
0.23,0.92,0.06
0.24,0.9,0.06
0.24,0.9,0.04
0.23,0.89,0.03
0.24,0.88,0.03
0.24,0.87,0.04
0.24,0.87,0.04
0.24,0.89,0.04
0.23,0.87,0.07
0.27,0.84,0.06
0.31,0.82,0.01
0.3,0.81,0
0.27,0.82,0.02
0.28,0.8,0.03
0.31,0.79,0.03
0.31,0.8,0.04
0.31,0.82,0.05
0.32,0.83,0.05
0.33,0.84,0.06
0.33,0.86,0.06
0.33,0.88,0.06
0.33,0.89,0.07
0.33,0.9,0.07
0.34,0.9,0.07
0.34,0.9,0.07
0.35,0.91,0.08
0.35,0.92,0.09
0.36,0.92,0.08
0.38,0.92,0.09
0.38,0.96,0.09
0.38,0.98,0.1
0.39,0.99,0.1
0.4,0.99,0.1
0.41,1.01,0.11
0.41,1.01,0.12
0.42,0.99,0.12
0.43,0.99,0.12
0.42,0.97,0.13
0.42,0.96,0.13
0.42,0.96,0.13
0.41,0.96,0.13
0.41,0.95,0.13
0.41,0.95,0.14
0.4,0.94,0.13
0.4,0.96,0.13
0.4,0.98,0.14
0.41,0.98,0.13
0.4,1,0.14
0.4,1.02,0.14
0.41,1.03,0.13
0.43,1.05,0.13
0.43,1.06,0.13
0.42,1.07,0.13
0.43,1.08,0.13
0.43,1.08,0.13
0.41,1.07,0.13
0.39,1.06,0.12
0.37,1.04,0.11
0.33,1,0.13
0.3,0.96,0.14
0.25,0.93,0.14
0.18,0.93,0.15
0.13,0.95,0.15
0.11,0.97,0.17
0.1,0.96,0.19
0.03,0.95,0.19
-0.09,0.94,0.18
-0.17,0.92,0.17
-0.2,0.91,0.16
-0.23,0.91,0.15
-0.26,0.9,0.16
-0.29,0.9,0.17
-0.38,0.9,0.19
-0.38,0.93,0.07
-0.38,0.95,0.02
-0.42,0.98,0.13
-0.44,1.06,0.14
-0.46,1.13,0.14
-0.47,1.17,0.13
-0.46,1.21,0.12
-0.42,1.23,0.11
-0.37,1.22,0.12
-0.29,1.22,0.12
-0.25,1.21,0.14
-0.2,1.19,0.15
-0.14,1.18,0.16
-0.14,1.18,0.18
-0.14,1.17,0.19
-0.1,1.13,0.19
-0.09,1.09,0.2
-0.09,1.06,0.23
-0.08,1.03,0.26
-0.04,1,0.28
0.01,0.96,0.27
0.03,0.93,0.26
0.04,0.94,0.29
0.07,0.92,0.27
0.11,0.88,0.26
0.15,0.88,0.28
0.18,0.91,0.29
0.21,0.91,0.29
0.24,0.89,0.28
0.25,0.88,0.27
0.26,0.88,0.28
0.28,0.86,0.28
0.31,0.84,0.29
0.35,0.82,0.29
0.41,0.76,0.28
0.43,0.75,0.27
0.47,0.74,0.25
0.49,0.73,0.24
0.51,0.73,0.23
0.53,0.74,0.21
0.55,0.74,0.19
0.57,0.76,0.18
0.59,0.8,0.16
0.6,0.84,0.15
0.6,0.89,0.14
0.6,0.94,0.13
0.6,0.98,0.12
0.6,1.03,0.11
0.58,1.08,0.12
0.57,1.13,0.13
0.56,1.2,0.13
0.57,1.26,0.13
0.59,1.34,0.12
0.6,1.43,0.11
0.6,1.51,0.11
0.6,1.59,0.11
0.58,1.66,0.11
0.57,1.72,0.11
0.57,1.77,0.1
0.55,1.82,0.07
0.49,1.89,0.06
0.47,1.87,0.05
0.45,1.82,0.03
0.46,1.81,0.03
0.43,1.82,0.03
0.42,1.82,0
0.44,1.85,-0.03
0.43,1.87,-0.03
0.47,1.71,-0.02
0.47,1.75,-0.02
0.32,1.94,0
0.24,1.87,0.01
0.33,1.69,-0.04
0.38,1.54,-0.07
0.36,1.45,-0.08
0.36,1.36,-0.09
0.38,1.28,-0.09
0.41,1.2,-0.05
0.44,1.11,-0.03
0.47,1.04,-0.02
0.47,1.01,-0.02
0.43,0.99,-0.04
0.4,0.97,-0.05
0.37,0.93,-0.03
0.32,0.86,-0.03
0.29,0.8,-0.02
0.27,0.77,-0.01
0.27,0.75,-0.01
0.24,0.68,-0.02
0.21,0.6,-0.02
0.18,0.54,0
0.18,0.51,0.03
0.17,0.47,0.03
0.16,0.42,0.03
0.15,0.39,0.03
0.14,0.36,0.02
0.14,0.34,0.02
0.14,0.35,0.02
0.14,0.36,0.02
0.12,0.36,0.02
0.13,0.38,0.02
0.13,0.41,0.02
0.13,0.43,0.02
0.13,0.46,0.03
0.14,0.49,0.03
0.17,0.53,0.03
0.2,0.58,0.03
0.22,0.62,0.04
0.23,0.68,0.05
0.23,0.72,0.05
0.23,0.75,0.05
0.24,0.79,0.05
0.26,0.86,0.06
0.28,0.9,0.07
0.28,0.95,0.07
0.29,0.99,0.08
0.3,1.05,0.09
0.24,0.8,0.08
0.24,0.87,0.07
0.29,1.29,0.09
0.32,1.38,0.09
0.35,1.38,0.07
0.33,1.43,0.07
0.3,1.52,0.08
0.32,1.62,0.07
0.35,1.73,0.06
0.37,1.79,0.04
0.4,1.88,0.05
0.4,1.95,0.06
0.4,1.95,0.04
0.44,1.91,0.06
0.5,1.83,0.06
0.53,1.74,0.06
0.55,1.7,0.08
0.57,1.62,0.08
0.57,1.57,0.09
0.59,1.62,0.11
0.6,1.62,0.12
0.55,1.56,0.11
0.54,1.57,0.12
0.51,1.58,0.11
0.47,1.59,0.11
0.44,1.57,0.13
0.41,1.51,0.14
0.41,1.45,0.15
0.4,1.38,0.16
0.43,1.29,0.16
0.47,1.2,0.16
0.5,1.13,0.17
0.5,1.04,0.19
0.49,0.96,0.19
0.5,0.89,0.19
0.5,0.85,0.2
0.48,0.83,0.21
0.47,0.82,0.22
0.48,0.81,0.22
0.51,0.81,0.22
0.53,0.81,0.23
0.53,0.82,0.23
0.56,0.83,0.22
0.57,0.84,0.22
0.58,0.84,0.23
0.6,0.83,0.25
0.62,0.82,0.27
0.66,0.78,0.27
0.67,0.76,0.27
0.66,0.75,0.27
0.64,0.75,0.27
0.63,0.76,0.26
0.6,0.77,0.26
0.58,0.78,0.25
0.57,0.8,0.24
0.56,0.83,0.23
0.55,0.87,0.24
0.55,0.91,0.24
0.54,0.97,0.24
0.55,1.02,0.22
0.56,1.06,0.2
0.57,1.12,0.17
0.58,1.18,0.16
0.58,1.24,0.15
0.57,1.31,0.15
0.58,1.39,0.15
0.59,1.46,0.15
0.59,1.54,0.14
0.58,1.61,0.13
0.58,1.67,0.12
0.58,1.73,0.09
0.58,1.79,0.05
0.61,1.84,-0.05
0.63,1.91,-0.09
0.64,1.9,-0.12
0.61,1.89,-0.14
0.57,1.91,-0.12
0.54,1.94,-0.11
0.58,1.94,-0.16
0.63,1.89,-0.18
0.61,1.76,-0.2
0.61,1.75,-0.22
0.62,1.76,-0.22
0.57,1.71,-0.22
0.52,1.63,-0.2
0.45,1.54,-0.16
0.44,1.48,-0.15
0.42,1.44,-0.17
0.43,1.36,-0.21
0.46,1.31,-0.22
0.38,1.33,-0.19
0.34,1.3,-0.15
0.42,1.23,-0.15
0.41,1.22,-0.15
0.31,1.21,-0.13
0.27,1.12,-0.14
0.28,1.04,-0.13
0.25,0.96,-0.11
0.22,0.85,-0.09
0.22,0.72,-0.08
0.18,0.65,-0.07
0.15,0.6,-0.06
0.14,0.55,-0.04
0.13,0.48,-0.05
0.13,0.43,-0.05
0.14,0.41,-0.03
0.15,0.39,-0.02
0.16,0.37,-0.01
0.15,0.37,0
0.14,0.37,0.01
0.14,0.39,0.02
0.14,0.41,0.03
0.14,0.44,0.03
0.14,0.47,0.03
0.14,0.49,0.03
0.13,0.51,0.03
0.14,0.51,0.04
0.15,0.51,0.05
0.17,0.52,0.06
0.19,0.55,0.05
0.21,0.58,0.05
0.23,0.61,0.05
0.24,0.66,0.06
0.26,0.72,0.06
0.27,0.77,0.07
0.31,0.92,0.08
0.32,0.99,0.07
0.32,1.03,0.07
0.33,1.08,0.09
0.35,1.12,0.09
0.34,0.99,0.1
0.36,1.07,0.09
0.41,1.35,0.09
0.44,1.39,0.11
0.47,1.38,0.12
0.45,1.39,0.12
0.45,1.42,0.11
0.5,1.41,0.07
0.5,1.4,0.05
0.5,1.45,0.05
0.52,1.55,0.08
0.55,1.63,0.1
0.61,1.69,0.11
0.64,1.74,0.13
0.63,1.78,0.16
0.6,1.8,0.17
0.68,1.82,0.1
0.66,1.79,0.09
0.54,1.8,0.13
0.65,1.85,0.08
0.73,1.77,0.09
0.61,1.68,0.13
0.65,1.63,0.13
0.68,1.53,0.12
0.65,1.46,0.13
0.61,1.43,0.14
0.57,1.37,0.14
0.58,1.32,0.16
0.6,1.29,0.19
0.59,1.23,0.18
0.59,1.17,0.18
0.59,1.12,0.19
0.58,1.07,0.19
0.59,1.02,0.2
0.61,0.97,0.2
0.62,0.92,0.2
0.63,0.87,0.21
0.64,0.82,0.22
0.66,0.78,0.23
0.68,0.75,0.25
0.69,0.73,0.26
0.68,0.71,0.26
0.68,0.71,0.26
0.67,0.7,0.26
0.66,0.71,0.27
0.66,0.72,0.27
0.66,0.74,0.26
0.65,0.77,0.26
0.65,0.79,0.24
0.66,0.82,0.23
0.66,0.85,0.22
0.65,0.89,0.23
0.64,0.92,0.24
0.63,0.96,0.25
0.62,1,0.26
0.61,1.04,0.26
0.6,1.08,0.25
0.58,1.13,0.25
0.56,1.18,0.26
0.55,1.23,0.25
0.55,1.29,0.23
0.56,1.34,0.21
0.57,1.4,0.19
0.58,1.46,0.16
0.6,1.52,0.13
0.63,1.58,0.1
0.67,1.65,0.08
0.71,1.72,0.05
0.74,1.81,0.02
0.76,1.89,0
0.73,1.93,-0.02
0.68,1.94,-0.06
0.65,1.91,-0.11
0.57,1.77,-0.12
0.62,1.63,-0.12
0.6,1.57,-0.1
0.53,1.58,-0.09
0.48,1.55,-0.08
0.48,1.46,-0.09
0.52,1.42,-0.08
0.54,1.41,-0.07
0.5,1.43,-0.07
0.46,1.42,-0.08
0.44,1.4,-0.09
0.42,1.36,-0.09
0.39,1.31,-0.09
0.37,1.23,-0.09
0.36,1.16,-0.02
0.38,1.11,-0.02
0.4,1.08,-0.08
0.37,1.06,-0.07
0.33,1.03,-0.06
0.3,0.99,-0.06
0.28,0.94,-0.05
0.25,0.89,-0.05
0.22,0.82,-0.02
0.18,0.75,0
0.19,0.69,0
0.22,0.65,0
0.2,0.52,0.01
0.19,0.51,0
0.19,0.48,0.02
0.18,0.45,0.04
0.16,0.42,0.04
0.16,0.42,0.04
0.16,0.42,0.06
0.16,0.41,0.06
0.15,0.42,0.06
0.15,0.44,0.06
0.15,0.46,0.06
0.16,0.49,0.05
0.17,0.51,0.04
0.17,0.52,0.05
0.18,0.52,0.05
0.19,0.53,0.06
0.2,0.53,0.06
0.21,0.55,0.07
0.23,0.57,0.07
0.24,0.59,0.07
0.25,0.62,0.06
0.26,0.65,0.07
0.26,0.67,0.08
0.27,0.67,0.09
0.3,0.7,0.11
0.33,0.81,0.11
0.34,0.87,0.13
0.36,0.94,0.13
0.36,1.03,0.13
0.35,1.13,0.14
0.35,1.22,0.15
0.34,1.3,0.14
0.33,1.36,0.13
0.35,1.17,0.14
0.36,1.28,0.13
0.36,1.59,0.13
0.41,1.56,0.15
0.47,1.49,0.14
0.51,1.48,0.1
0.51,1.56,0.07
0.51,1.63,0.08
0.54,1.65,0.11
0.56,1.69,0.16
0.59,1.73,0.14
0.59,1.71,0.16
0.58,1.73,0.17
0.61,1.75,0.08
0.58,1.72,0.08
0.5,1.64,0.13
0.48,1.58,0.17
0.52,1.59,0.19
0.57,1.57,0.14
0.53,1.44,0.14
0.53,1.4,0.15
0.5,1.37,0.16
0.48,1.34,0.16
0.48,1.33,0.16
0.5,1.33,0.15
0.51,1.3,0.16
0.53,1.28,0.16
0.56,1.26,0.17
0.59,1.21,0.17
0.61,1.16,0.18
0.63,1.09,0.19
0.64,1.02,0.19
0.65,0.94,0.2
0.68,0.88,0.21
0.7,0.84,0.22
0.72,0.81,0.24
0.74,0.79,0.25
0.76,0.77,0.26
0.77,0.76,0.26
0.77,0.76,0.27
0.76,0.76,0.27
0.75,0.77,0.27
0.74,0.78,0.27
0.71,0.79,0.27
0.69,0.81,0.25
0.66,0.85,0.24
0.65,0.89,0.24
0.63,0.92,0.23
0.62,0.95,0.22
0.62,0.97,0.21
0.61,1,0.2
0.6,1.03,0.2
0.59,1.07,0.2
0.61,1.11,0.19
0.62,1.17,0.17
0.64,1.23,0.16
0.65,1.3,0.16
0.64,1.36,0.14
0.66,1.41,0.12
0.68,1.45,0.1
0.69,1.55,0.09
0.74,1.62,0.08
0.77,1.66,0.06
0.79,1.71,0.05
0.82,1.74,0.06
0.8,1.76,0.04
0.8,1.78,0.01
0.8,1.79,-0.02
0.8,1.79,-0.06
0.73,1.83,-0.07
0.69,1.84,-0.09
0.75,1.79,-0.03
0.71,1.69,-0.04
0.59,1.73,-0.05
0.54,1.77,-0.05
0.54,1.68,-0.07
0.51,1.6,-0.06
0.42,1.58,-0.06
0.42,1.55,-0.09
0.46,1.48,-0.1
0.39,1.44,-0.07
0.31,1.4,-0.04
0.3,1.32,-0.05
0.27,1.22,-0.08
0.25,1.14,-0.09
0.25,1.11,-0.05
0.2,1.03,-0.04
0.19,0.92,-0.07
0.18,0.84,-0.09
0.16,0.8,-0.06
0.16,0.76,-0.04
0.16,0.68,-0.07
0.18,0.62,-0.06
0.17,0.59,-0.04
0.16,0.55,-0.03
0.16,0.52,-0.03
0.15,0.48,-0.01
0.15,0.44,-0.01
0.14,0.41,0
0.13,0.39,0
0.13,0.38,0.01
0.13,0.38,0.02
0.13,0.39,0.03
0.14,0.39,0.04
0.15,0.4,0.04
0.16,0.41,0.05
0.16,0.43,0.06
0.17,0.45,0.06
0.17,0.46,0.07
0.18,0.48,0.08
0.19,0.51,0.08
0.2,0.55,0.08
0.21,0.6,0.09
0.22,0.64,0.09
0.23,0.67,0.09
0.23,0.7,0.09
0.23,0.74,0.08
0.25,0.8,0.09
0.26,0.86,0.1
0.27,0.88,0.09
0.29,0.92,0.09
0.31,1.01,0.09
0.3,1.1,0.08
0.31,1.28,0.06
0.35,1.25,0.07
0.34,1.39,0.04
0.28,1.67,0.03
0.3,1.77,0.06
0.37,1.83,0.02
0.41,1.85,0
0.4,1.89,0.02
0.41,1.94,0.02
0.45,2.01,0.01
0.49,2.24,0.02
0.42,2.18,0.04
0.46,1.96,0.05
0.58,1.97,0.06
0.55,1.91,0.08
0.63,1.86,0.12
0.69,1.81,0.09
0.66,1.74,0.05
0.64,1.69,0.09
0.61,1.65,0.09
0.59,1.63,0.11
0.55,1.61,0.14
0.55,1.58,0.14
0.55,1.54,0.13
0.51,1.53,0.13
0.49,1.47,0.14
0.48,1.41,0.15
0.49,1.35,0.15
0.52,1.28,0.14
0.54,1.2,0.15
0.53,1.13,0.19
0.54,1.05,0.19
0.56,0.98,0.19
0.57,0.92,0.18
0.57,0.85,0.16
0.58,0.81,0.15
0.6,0.78,0.15
0.6,0.76,0.16
0.6,0.73,0.16
0.61,0.71,0.15
0.62,0.7,0.14
0.62,0.69,0.14
0.62,0.69,0.13
0.61,0.71,0.14
0.59,0.72,0.14
0.57,0.74,0.14
0.55,0.77,0.14
0.52,0.81,0.14
0.5,0.84,0.14
0.48,0.87,0.15
0.49,0.9,0.15
0.47,0.96,0.17
0.44,0.99,0.18
0.42,1.01,0.18
0.4,1.03,0.18
0.37,1.04,0.18
0.33,1.06,0.18
0.3,1.08,0.17
0.28,1.08,0.17
0.27,1.1,0.18
0.27,1.14,0.18
0.29,1.17,0.19
0.32,1.17,0.19
0.34,1.19,0.17
0.35,1.22,0.17
0.38,1.23,0.14
0.45,1.24,0.08
0.5,1.26,0.05
0.46,1.32,0.04
0.54,1.38,0.04
0.71,1.35,0.06
0.73,1.33,0.07
0.69,1.4,0.08
0.67,1.4,0.07
0.65,1.4,0.03
0.64,1.39,0
0.63,1.38,-0.05
0.61,1.57,0.04
0.7,1.64,0.04
0.39,1.63,0.07
0.16,1.55,0.2
0.21,1.43,0.16
0.45,1.36,0.04
0.56,1.26,0
0.47,1.18,0.02
0.49,1.16,0
0.59,1.08,-0.03
0.57,1.02,-0.02
0.5,1.05,0.04
0.47,1.06,0.07
0.47,1.03,0.04
0.46,0.97,0.03
0.41,0.89,0.04
0.39,0.83,0.06
0.4,0.79,0.06
0.42,0.76,0.04
0.42,0.73,0.04
0.41,0.71,0.05
0.43,0.68,0.06
0.46,0.66,0.07
0.48,0.66,0.09
0.49,0.63,0.11
0.5,0.6,0.11
0.5,0.55,0.12
0.46,0.53,0.12
0.44,0.51,0.11
0.43,0.49,0.1
0.46,0.48,0.11
0.48,0.48,0.11
0.49,0.49,0.11
0.52,0.49,0.11
0.53,0.49,0.11
0.54,0.5,0.12
0.54,0.5,0.13
0.54,0.5,0.14
0.54,0.5,0.16
0.53,0.49,0.17
0.51,0.48,0.16
0.49,0.49,0.17
0.51,0.49,0.18
0.53,0.49,0.21
0.56,0.48,0.22
0.58,0.48,0.21
0.59,0.46,0.22
0.61,0.43,0.21
0.62,0.41,0.22
0.62,0.39,0.24
0.64,0.38,0.26
0.67,0.35,0.25
0.68,0.32,0.26
0.66,0.31,0.28
0.63,0.29,0.33
0.66,0.24,0.37
0.6,0.16,0.3
0.67,0.18,0.26
0.81,0.28,0.3
0.87,0.31,0.31
0.92,0.36,0.35
0.95,0.41,0.38
0.97,0.45,0.34
0.99,0.49,0.34
1.04,0.52,0.38
1.07,0.55,0.39
1.1,0.57,0.43
1.13,0.55,0.44
1.13,0.53,0.44
1.13,0.53,0.44
1.11,0.53,0.47
1.07,0.52,0.5
1.06,0.52,0.53
1.03,0.51,0.54
0.99,0.51,0.53
0.95,0.5,0.51
0.91,0.48,0.51
0.88,0.48,0.52
0.86,0.5,0.52
0.8,0.51,0.52
0.76,0.51,0.53
0.75,0.5,0.52
0.73,0.49,0.53
0.73,0.48,0.53
0.73,0.48,0.54
0.72,0.46,0.55
0.7,0.45,0.55
0.67,0.45,0.53
0.67,0.43,0.51
0.68,0.42,0.52
0.66,0.42,0.57
0.65,0.42,0.63
0.66,0.45,0.7
0.68,0.5,0.76
0.7,0.55,0.8
0.7,0.58,0.81
0.68,0.57,0.82
0.65,0.53,0.8
0.64,0.48,0.77
0.63,0.43,0.75
0.62,0.38,0.75
0.6,0.35,0.77
0.58,0.34,0.8
0.59,0.33,0.84
0.63,0.34,0.86
0.58,0.31,0.84
0.54,0.27,0.8
0.51,0.23,0.79
0.42,0.21,0.81
0.41,0.17,0.81
0.51,0.16,0.82
0.57,0.19,0.87
0.6,0.24,0.91
0.6,0.26,0.92
0.57,0.24,0.89
0.53,0.22,0.87
0.48,0.2,0.85
0.45,0.19,0.82
0.45,0.19,0.81
0.48,0.18,0.8
0.52,0.15,0.78
0.57,0.13,0.76
0.6,0.12,0.75
0.58,0.11,0.77
0.53,0.1,0.8
0.47,0.09,0.82
0.4,0.08,0.85
0.35,0.07,0.88
0.34,0.07,0.89
0.37,0.08,0.89
0.43,0.09,0.86
0.53,0.1,0.87
0.56,0.12,0.86
0.56,0.16,0.9
0.57,0.28,1.02
0.59,0.29,1.17
0.62,0.16,1.25
0.56,0.09,1.24
0.43,0.13,1.12
0.36,0.15,0.95
0.37,0.13,0.86
0.42,0.1,0.87
0.43,0.09,0.92
0.43,0.08,0.93
0.44,0.05,0.9
0.45,0.04,0.86
0.49,0.04,0.85
0.5,0.06,0.86
0.44,0.1,0.89
0.38,0.13,0.92
0.36,0.13,0.91
0.35,0.13,0.89
0.36,0.13,0.89
0.35,0.12,0.89
0.34,0.11,0.91
0.33,0.11,0.92
0.31,0.12,0.93
0.26,0.1,0.91
0.22,0.11,0.95
0.26,0.17,1.05
0.33,0.2,1.11
0.34,0.19,1.07
0.33,0.15,1
0.33,0.13,0.94
0.31,0.13,0.93
0.29,0.13,0.94
0.28,0.14,0.94
0.33,0.14,0.9
0.41,0.14,0.88
0.45,0.14,0.88
0.42,0.15,0.9
0.35,0.15,0.93
0.31,0.17,0.96
0.31,0.18,0.96
0.37,0.18,0.95
0.42,0.16,0.91
0.42,0.16,0.89
0.4,0.17,0.9
0.37,0.18,0.93
0.35,0.18,0.94
0.34,0.17,0.93
0.36,0.16,0.91
0.39,0.15,0.92
0.4,0.16,0.94
0.39,0.16,0.94
0.4,0.15,0.92
0.41,0.14,0.91
0.4,0.14,0.91
0.41,0.14,0.91
0.42,0.13,0.9
0.42,0.13,0.9
0.42,0.14,0.9
0.42,0.14,0.9
0.41,0.14,0.91
0.41,0.14,0.91
0.4,0.14,0.91
0.39,0.15,0.91
0.39,0.15,0.92
0.39,0.15,0.91
0.39,0.15,0.91
0.4,0.15,0.9
0.42,0.15,0.9
0.42,0.15,0.91
0.41,0.15,0.91
0.4,0.16,0.92
0.38,0.16,0.92
0.37,0.16,0.91
0.38,0.16,0.91
0.39,0.15,0.91
0.39,0.16,0.92
0.38,0.16,0.92
0.4,0.15,0.91
0.41,0.15,0.9
0.42,0.15,0.9
0.41,0.15,0.9
0.4,0.15,0.9
0.4,0.15,0.9
0.41,0.14,0.9
0.41,0.14,0.91
0.41,0.14,0.91
0.4,0.14,0.92
0.39,0.14,0.93
0.38,0.14,0.93
0.38,0.14,0.92
0.39,0.14,0.92
0.39,0.14,0.91
0.41,0.14,0.91
0.42,0.14,0.91
0.42,0.14,0.9
0.41,0.13,0.91
0.4,0.14,0.91
0.38,0.14,0.92
0.36,0.15,0.93
0.34,0.15,0.93
0.35,0.15,0.93
0.37,0.15,0.93
0.37,0.14,0.92
0.37,0.14,0.92
0.37,0.14,0.92
0.37,0.14,0.93
0.36,0.15,0.93
0.36,0.14,0.93
0.36,0.14,0.93
0.37,0.14,0.92
0.39,0.13,0.91
0.4,0.13,0.91
0.4,0.13,0.92
0.39,0.13,0.92
0.38,0.13,0.92
0.37,0.14,0.92
0.37,0.14,0.93
0.37,0.14,0.93
0.38,0.14,0.92
0.39,0.14,0.92
0.38,0.14,0.92
0.37,0.13,0.92
0.36,0.13,0.93
0.36,0.13,0.93
0.36,0.13,0.93
0.37,0.13,0.93
0.37,0.13,0.92
0.4,0.12,0.92
0.4,0.12,0.92
0.39,0.12,0.92
0.38,0.12,0.92
0.38,0.12,0.92
0.37,0.13,0.93
0.37,0.13,0.93
0.37,0.13,0.93
0.38,0.13,0.92
0.39,0.13,0.92
0.39,0.13,0.92
0.38,0.12,0.92
0.37,0.12,0.92
0.36,0.13,0.93
0.36,0.14,0.94
0.36,0.14,0.93
