Acc_x,Acc_y,Acc_z
0,0,0
0,0,0
0,0,0
0,0,0
0,0,0
0,0,0
0,0,0
0,0,0
0,0,0
0,0,0
0,0,0
0,0,0
0,0,0
0,0,0
0,0,0
0,0,0
0,0,0
0,0,0
0,0,0
0,0,0
0,0,0
0,0,0
0,0,0
0,0,0
0,0,0
0,0,0
0,0,0
0,0,0
0,0,0
0,0,0
0,0,0
0,0,0
0,0,0
0,0,0
0,0,0
0,0,0
0,0,0
0,0,0
0,0,0
0,0,0
0,0,0
0,0,0
0,0,0
0,0,0
0,0,0
0,0,0
0,0,0
0,0,0
0,0,0
0,0,0
0,0,0
0,0,0
0,0,0
0,0,0
0,0,0
0,0,0
0,0,0
0,0,0
0,0,0
0,0,0
0,0,0
0,0,0
0,0,0
0,0,0
0,0,0
0,0,0
0,0,0
0,0,0
0,0,0
0,0,0
0,0,0
0,0,0
0,0,0
0,0,0
0,0,0
0,0,0
0,0,0
0,0,0
0,0,0
0,0,0
0,0,0
0,0,0
0,0,0
0,0,0
0,0,0
0,0,0
0,0,0
0,0,0
0,0,0
0,0,0
0,0,0
0,0,0
0,0,0
0,0,0
0,0,0
0,0,0
0,0,0
0,0,0
0,0,0
0,0,0
0,0,0
0,0,0
0,0,0
0,0,0
0,0,0
0,0,0
0,0,0
0,0,0
0,0,0
0,0,0
0,0,0
0,0,0
0,0,0
0,0,0
0,0,0
0,0,0
0,0,0
0,0,0
0,0,0
0,0,0
0,0,0
0,0,0
0,0,0
0,0,0
0,0,0
0,0,0
0,0,0
0,0,0
0,0,0
0,0,0
0,0,0
0,0,0
0,0,0
0,0,0
0,0,0
0,0,0
0,0,0
0,0,0
0,0,0
0,0,0
0,0,0
0,0,0
0,0,0
0,0,0
0,0,0
0,0,0
0,0,0
0,0,0
0,0,0
0,0,0
0,0,0
0,0,0
0,0,0
0,0,0
0,0,0
0,0,0
0,0,0
0,0,0
0,0,0
0,0,0
0,0,0
0,0,0
0,0,0
0,0,0
0,0,0
0,0,0
0,0,0
0,0,0
0,0,0
0,0,0
0,0,0
0,0,0
0,0,0
0,0,0
0,0,0
0,0,0
0,0,0
0,0,0
0,0,0
0,0,0
0,0,0
0,0,0
0,0,0
0,0,0
0,0,0
0,0,0
0,0,0
0,0,0
0,0,0
0,0,0
0,0,0
0,0,0
0,0,0
0,0,0
0,0,0
0,0,0
0,0,0
0,0,0
0,0,0
0,0,0
0,0,0
0,0,0
0,0,0
0,0,0
0,0,0
0,0,0
0,0,0
0,0,0
0,0,0
0,0,0
0,0,0
0,0,0
0,0,0
0,0,0
0,0,0
0,0,0
0,0,0
0,0,0
0,0,0
0,0,0
0,0,0
0,0,0
0,0,0
0,0,0
0,0,0
0,0,0
0,0,0
0,0,0
0,0,0
0,0,0
0,0,0
0,0,0
0,0,0
0,0,0
0,0,0
0,0,0
0,0,0
0,0,0
0,0,0
0,0,0
0,0,0
0,0,0
0,0,0
0,0,0
0,0,0
0,0,0
0,0,0
0,0,0
0,0,0
0,0,0
0,0,0
0,0,0
0,0,0
0,0,0
0,0,0
0,0,0
0,0,0
0,0,0
0,0,0
0,0,0
0,0,0
0,0,0
0,0,0
0,0,0
0,0,0
0,0,0
0,0,0
0,0,0
0,0,0
0,0,0
0,0,0
0,0,0
0,0,0
0,0,0
0,0,0
0,0,0
0,0,0
0,0,0
0,0,0
0,0,0
0,0,0
0,0,0
0,0,0
0,0,0
0,0,0
0,0,0
0,0,0
0,0,0
0,0,0
0,0,0
0,0,0
0,0,0
0,0,0
0,0,0
0,0,0
0,0,0
0,0,0
0,0,0
0,0,0
0,0,0
0,0,0
0,0,0
0,0,0
0,0,0
0,0,0
0,0,0
0,0,0
0,0,0
0,0,0
0,0,0
0,0,0
0,0,0
0,0,0
0,0,0
0,0,0
0,0,0
0,0,0
0,0,0
0,0,0
0,0,0
0,0,0
0,0,0
0,0,0
0,0,0
0,0,0
0,0,0
0,0,0
0,0,0
0,0,0
0,0,0
0,0,0
0,0,0
0,0,0
0,0,0
0,0,0
0,0,0
0,0,0
0,0,0
0,0,0
0,0,0
0,0,0
0,0,0
0,0,0
0,0,0
0,0,0
0,0,0
0,0,0
0,0,0
0,0,0
0,0,0
0,0,0
0,0,0
0,0,0
0,0,0
0,0,0
0,0,0
0,0,0
0,0,0
0,0,0
0,0,0
0,0,0
0,0,0
0,0,0
0,0,0
0,0,0
0,0,0
0,0,0
0,0,0
0,0,0
0,0,0
0,0,0
0,0,0
0,0,0
0,0,0
0,0,0
0,0,0
0,0,0
0,0,0
0,0,0
0,0,0
0,0,0
0,0,0
0,0,0
0,0,0
0,0,0
0,0,0
0,0,0
0,0,0
0,0,0
0,0,0
0,0,0
0,0,0
0,0,0
0,0,0
0,0,0
0,0,0
0,0,0
0,0,0
0,0,0
0,0,0
0,0,0
0,0,0
0,0,0
0,0,0
0,0,0
0,0,0
0,0,0
0,0,0
0,0,0
0,0,0
0,0,0
0,0,0
0,0,0
0,0,0
0,0,0
0,0,0
0,0,0
0,0,0
0,0,0
0,0,0
0,0,0
0,0,0
0,0,0
0,0,0
0,0,0
0,0,0
0,0,0
0,0,0
0,0,0
0,0,0
0,0,0
0,0,0
0,0,0
0,0,0
0,0,0
0,0,0
0,0,0
0,0,0
0,0,0
0,0,0
0,0,0
0,0,0
0,0,0
0,0,0
0,0,0
0,0,0
0,0,0
0,0,0
0,0,0
0,0,0
0,0,0
0,0,0
0,0,0
0,0,0
0,0,0
0,0,0
0,0,0
0,0,0
0,0,0
0,0,0
0,0,0
0,0,0
0,0,0
0,0,0
0,0,0
0,0,0
0,0,0
0,0,0
0,0,0
0,0,0
0,0,0
0,0,0
0,0,0
0,0,0
0,0,0
0,0,0
0,0,0
0,0,0
0,0,0
0,0,0
0,0,0
0,0,0
0,0,0
0,0,0
0,0,0
0,0,0
0,0,0
0,0,0
0,0,0
0,0,0
0,0,0
0,0,0
0,0,0
0,0,0
0,0,0
0,0,0
0,0,0
0,0,0
0,0,0
0,0,0
0,0,0
0,0,0
0,0,0
0,0,0
0,0,0
0,0,0
0,0,0
0,0,0
0,0,0
0,0,0
0,0,0
0,0,0
0,0,0
0,0,0
0,0,0
0,0,0
0,0,0
0,0,0
0,0,0
0,0,0
0,0,0
0,0,0
0,0,0
0,0,0
0,0,0
0,0,0
0,0,0
0,0,0
0,0,0
0,0,0
0,0,0
0,0,0
0,0,0
0,0,0
0,0,0
0,0,0
0,0,0
0,0,0
0,0,0
0,0,0
0,0,0
0,0,0
0,0,0
0,0,0
0,0,0
0,0,0
0,0,0
0,0,0
0,0,0
0,0,0
0,0,0
0,0,0
0,0,0
0,0,0
0,0,0
0,0,0
0,0,0
0,0,0
0,0,0
0,0,0
0,0,0
0,0,0
0,0,0
0,0,0
0,0,0
0,0,0
0,0,0
0,0,0
0,0,0
0,0,0
0,0,0
0,0,0
0,0,0
0,0,0
0,0,0
0,0,0
0,0,0
0,0,0
0,0,0
0,0,0
0,0,0
0,0,0
0,0,0
0,0,0
0,0,0
0,0,0
0,0,0
0,0,0
0,0,0
0,0,0
0,0,0
0,0,0
0,0,0
0,0,0
0,0,0
0,0,0
0,0,0
0,0,0
0,0,0
0,0,0
0,0,0
0,0,0
0,0,0
0,0,0
0,0,0
0,0,0
0,0,0
0,0,0
0,0,0
0,0,0
0,0,0
0,0,0
0,0,0
0,0,0
0,0,0
0,0,0
0,0,0
0,0,0
0,0,0
0,0,0
0,0,0
0,0,0
0,0,0
0,0,0
0,0,0
0,0,0
0,0,0
0,0,0
0,0,0
0,0,0
0,0,0
0,0,0
0,0,0
0,0,0
0,0,0
0,0,0
0,0,0
0,0,0
0,0,0
0,0,0
0,0,0
0,0,0
0,0,0
0,0,0
0,0,0
0,0,0
0,0,0
0,0,0
0,0,0
0,0,0
0,0,0
0,0,0
0,0,0
0,0,0
0,0,0
0,0,0
0,0,0
0,0,0
0,0,0
0,0,0
0,0,0
0,0,0
0,0,0
0,0,0
0,0,0
0,0,0
0,0,0
0,0,0
0,0,0
0,0,0
0,0,0
0,0,0
0,0,0
0,0,0
0,0,0
0,0,0
0,0,0
0,0,0
0,0,0
0,0,0
0,0,0
0,0,0
0,0,0
0,0,0
0,0,0
0,0,0
0,0,0
0,0,0
0,0,0
0,0,0
0,0,0
0,0,0
0,0,0
0,0,0
0,0,0
0,0,0
0,0,0
0,0,0
0,0,0
0,0,0
0,0,0
0,0,0
0,0,0
0,0,0
0,0,0
0,0,0
0,0,0
0,0,0
0,0,0
0,0,0
0,0,0
0,0,0
0,0,0
0,0,0
0,0,0
0,0,0
0,0,0
0,0,0
0,0,0
0,0,0
0,0,0
0,0,0
0,0,0
0,0,0
0,0,0
0,0,0
0,0,0
0,0,0
0,0,0
0,0,0
0,0,0
0,0,0
0,0,0
0,0,0
0,0,0
0,0,0
0,0,0
0,0,0
0,0,0
0,0,0
0,0,0
0,0,0
0,0,0
0,0,0
0,0,0
0,0,0
0,0,0
0,0,0
0,0,0
0,0,0
0,0,0
0,0,0
0,0,0
0,0,0
0,0,0
0,0,0
0,0,0
0,0,0
0,0,0
0,0,0
0,0,0
0,0,0
0,0,0
0,0,0
0,0,0
0,0,0
0,0,0
0,0,0
0,0,0
0,0,0
0,0,0
0,0,0
0,0,0
0,0,0
0,0,0
0,0,0
0,0,0
0,0,0
0,0,0
0,0,0
0,0,0
0,0,0
0,0,0
0,0,0
0,0,0
0,0,0
0,0,0
0,0,0
0,0,0
0,0,0
0,0,0
0,0,0
0,0,0
0,0,0
0,0,0
0,0,0
0,0,0
0,0,0
-0.11,0.44,0.89
-0.12,0.44,0.89
-0.12,0.44,0.88
-0.12,0.44,0.88
-0.12,0.44,0.88
-0.12,0.44,0.88
-0.13,0.44,0.88
-0.13,0.44,0.88
-0.13,0.44,0.88
-0.13,0.44,0.88
-0.12,0.44,0.88
-0.11,0.44,0.88
-0.11,0.44,0.88
-0.11,0.44,0.88
-0.11,0.44,0.88
-0.11,0.43,0.88
-0.12,0.44,0.89
-0.12,0.44,0.89
-0.12,0.44,0.89
-0.12,0.44,0.89
-0.12,0.44,0.89
-0.12,0.44,0.89
-0.12,0.44,0.89
-0.12,0.44,0.89
-0.12,0.44,0.89
-0.12,0.44,0.89
-0.12,0.44,0.89
-0.12,0.44,0.88
-0.11,0.44,0.88
-0.11,0.45,0.88
-0.11,0.45,0.88
-0.11,0.44,0.88
-0.12,0.44,0.89
-0.12,0.44,0.89
-0.12,0.44,0.89
-0.12,0.44,0.88
-0.13,0.44,0.88
-0.12,0.44,0.88
-0.12,0.44,0.89
-0.12,0.44,0.89
-0.12,0.44,0.89
-0.11,0.44,0.89
-0.1,0.44,0.9
-0.11,0.44,0.9
-0.11,0.43,0.9
-0.11,0.43,0.91
-0.12,0.43,0.9
-0.12,0.43,0.91
-0.1,0.42,0.92
-0.1,0.42,0.92
-0.11,0.42,0.9
-0.12,0.43,0.89
-0.1,0.44,0.88
-0.09,0.44,0.88
-0.1,0.44,0.88
-0.11,0.44,0.88
-0.11,0.44,0.89
-0.1,0.44,0.89
-0.1,0.43,0.89
-0.11,0.43,0.9
-0.12,0.43,0.91
-0.12,0.43,0.91
-0.11,0.43,0.9
-0.11,0.42,0.89
-0.1,0.42,0.88
-0.1,0.42,0.87
-0.1,0.41,0.87
-0.09,0.41,0.88
-0.09,0.41,0.88
-0.09,0.41,0.89
-0.09,0.4,0.89
-0.09,0.39,0.89
-0.1,0.38,0.89
-0.1,0.37,0.87
-0.11,0.36,0.86
-0.12,0.33,0.85
-0.11,0.31,0.85
-0.09,0.32,0.85
-0.08,0.33,0.85
-0.09,0.32,0.85
-0.09,0.34,0.85
-0.09,0.38,0.84
-0.09,0.39,0.84
-0.08,0.37,0.84
-0.07,0.37,0.85
-0.07,0.37,0.87
-0.07,0.36,0.88
-0.07,0.37,0.88
-0.08,0.37,0.86
-0.07,0.37,0.86
-0.05,0.36,0.88
-0.03,0.35,0.91
-0.02,0.35,0.93
-0.03,0.35,0.94
-0.04,0.36,0.93
-0.05,0.36,0.93
-0.03,0.35,0.94
0,0.35,0.95
0.01,0.35,0.95
0.03,0.36,0.94
0.06,0.36,0.93
0.09,0.37,0.93
0.14,0.36,0.96
0.19,0.35,1
0.22,0.33,1.03
0.24,0.32,1.05
0.27,0.32,1.04
0.28,0.3,1.03
0.29,0.27,1.01
0.31,0.23,1.01
0.35,0.2,1.04
0.4,0.17,1.07
0.42,0.16,1.09
0.47,0.14,1.12
0.58,0.09,1.16
0.66,0.02,1.19
0.63,0.01,1.13
0.59,-0.02,1.03
0.59,-0.08,0.94
0.61,-0.15,0.89
0.61,-0.21,0.85
0.61,-0.26,0.85
0.6,-0.31,0.87
0.58,-0.38,0.89
0.59,-0.43,0.93
0.62,-0.48,0.96
0.62,-0.51,0.94
0.58,-0.53,0.9
0.51,-0.56,0.83
0.45,-0.58,0.74
0.41,-0.61,0.67
0.39,-0.63,0.64
0.37,-0.65,0.63
0.37,-0.67,0.63
0.37,-0.67,0.61
0.35,-0.67,0.6
0.34,-0.68,0.61
0.34,-0.69,0.6
0.33,-0.71,0.59
0.32,-0.73,0.59
0.33,-0.75,0.57
0.33,-0.75,0.49
0.33,-0.73,0.47
0.37,-0.71,0.45
0.42,-0.67,0.44
0.43,-0.64,0.43
0.4,-0.62,0.45
0.35,-0.66,0.41
0.29,-0.67,0.35
0.29,-0.61,0.37
0.28,-0.62,0.37
0.29,-0.7,0.33
0.31,-0.74,0.35
0.33,-0.65,0.39
0.39,-0.53,0.4
0.35,-0.66,0.33
0.35,-0.78,0.27
0.4,-0.71,0.29
0.39,-0.72,0.29
0.4,-0.76,0.27
0.4,-0.79,0.24
0.34,-0.85,0.18
0.31,-0.9,0.15
0.34,-0.95,0.11
0.36,-1,0.07
0.38,-1.02,0.03
0.42,-1.05,0
0.45,-1.11,-0.03
0.56,-1.15,-0.05
0.57,-1.19,-0.02
0.56,-1.17,-0.02
0.57,-1.11,-0.01
0.57,-1.05,0.02
0.6,-0.95,0.04
0.61,-0.87,0.07
0.58,-0.84,0.1
0.58,-0.88,0.08
0.58,-0.96,0.05
0.59,-1,0.04
0.62,-1.01,0.04
0.64,-1.04,0.03
0.65,-1.09,0.03
0.65,-1.17,0.04
0.64,-1.22,0.05
0.61,-1.25,0.05
0.57,-1.24,0.04
0.54,-1.21,0.05
0.52,-1.25,0.06
0.51,-1.35,0.07
0.51,-1.45,0.11
0.53,-1.52,0.13
0.53,-1.55,0.15
0.52,-1.56,0.17
0.51,-1.55,0.15
0.51,-1.51,0.12
0.54,-1.54,0.1
0.56,-1.57,0.09
0.55,-1.58,0.08
0.54,-1.59,0.08
0.52,-1.6,0.07
0.52,-1.61,0.06
0.52,-1.6,0.05
0.5,-1.58,0.05
0.48,-1.57,0.06
0.46,-1.55,0.06
0.42,-1.52,0.06
0.41,-1.48,0.07
0.44,-1.44,0.07
0.43,-1.41,0.06
0.42,-1.38,0.07
0.42,-1.34,0.08
0.4,-1.3,0.08
0.39,-1.25,0.09
0.38,-1.21,0.09
0.39,-1.19,0.08
0.38,-1.15,0.08
0.38,-1.12,0.08
0.37,-1.08,0.08
0.34,-1.05,0.08
0.32,-1.01,0.08
0.3,-0.92,0.08
0.29,-0.86,0.08
0.28,-0.82,0.08
0.28,-0.78,0.08
0.27,-0.75,0.07
0.27,-0.72,0.07
0.25,-0.69,0.08
0.25,-0.67,0.08
0.24,-0.65,0.07
0.22,-0.62,0.07
0.35,-1.64,-0.24
0.3,-1.65,-0.24
0.28,-1.68,-0.18
0.34,-1.72,-0.18
0.38,-1.71,-0.18
0.37,-1.69,-0.12
0.37,-1.68,-0.09
0.41,-1.66,-0.08
0.42,-1.6,-0.06
0.43,-1.53,-0.06
0.43,-1.48,-0.06
0.41,-1.42,-0.05
0.41,-1.35,-0.05
0.41,-1.27,-0.06
0.41,-1.2,-0.06
0.42,-1.13,-0.05
0.42,-1.07,-0.03
0.43,-0.96,0
0.43,-0.91,0
0.43,-0.86,0
0.43,-0.82,0
0.44,-0.77,0.01
0.44,-0.72,0.03
0.44,-0.69,0.06
0.45,-0.66,0.09
0.46,-0.65,0.1
0.46,-0.64,0.11
0.47,-0.65,0.11
0.48,-0.67,0.09
0.49,-0.68,0.08
0.5,-0.7,0.07
0.52,-0.72,0.06
0.54,-0.76,0.05
0.55,-0.8,0.06
0.56,-0.82,0.07
0.58,-0.84,0.09
0.59,-0.85,0.1
0.6,-0.85,0.12
0.61,-0.84,0.12
0.61,-0.83,0.13
0.61,-0.82,0.14
0.61,-0.83,0.15
0.61,-0.83,0.17
0.61,-0.86,0.11
0.64,-1.02,0.06
0.65,-1.11,0.02
0.65,-1.18,0
0.63,-1.19,0.01
0.6,-1.15,0.03
0.58,-1.09,0.04
0.57,-1.08,0.01
0.57,-1.13,-0.03
0.56,-1.21,-0.05
0.55,-1.31,-0.06
0.55,-1.39,-0.09
0.56,-1.44,-0.09
0.55,-1.47,-0.07
0.54,-1.5,-0.07
0.52,-1.52,-0.1
0.49,-1.52,-0.11
0.49,-1.51,-0.11
0.48,-1.49,-0.12
0.47,-1.44,-0.11
0.46,-1.42,-0.09
0.44,-1.41,-0.08
0.43,-1.41,-0.08
0.43,-1.43,-0.09
0.44,-1.46,-0.12
0.46,-1.5,-0.14
0.47,-1.54,-0.19
0.48,-1.6,-0.17
0.44,-1.61,-0.15
0.4,-1.59,-0.13
0.41,-1.54,-0.13
0.4,-1.49,-0.12
0.34,-1.47,-0.09
0.32,-1.41,-0.07
0.32,-1.32,-0.05
0.3,-1.22,-0.03
0.27,-1.14,-0.02
0.24,-1.06,-0.01
0.21,-0.98,0
0.2,-0.9,0.01
0.2,-0.82,0.02
0.18,-0.75,0.02
0.17,-0.69,0.03
0.17,-0.63,0.04
0.18,-0.58,0.04
0.18,-0.55,0.04
0.19,-0.54,0.03
0.2,-0.54,0.02
0.19,-0.54,0.01
0.18,-0.53,-0.01
0.19,-0.52,-0.02
0.2,-0.5,-0.02
0.2,-0.49,0.02
0.22,-0.55,0.03
0.22,-0.58,0.04
0.22,-0.6,0.05
0.21,-0.61,0.07
0.2,-0.64,0.07
0.16,-0.68,0.05
0.13,-0.69,0.03
0.15,-0.67,0.01
0.16,-0.69,0.01
0.13,-0.75,0.01
0.14,-0.77,0.01
0.15,-0.75,0.02
0.15,-0.74,0.06
0.19,-0.76,0.11
0.2,-0.89,0.14
0.25,-0.97,0.16
0.33,-1.01,0.18
0.3,-1.09,0.18
0.35,-1.1,0.45
0.35,-1.1,0.45
0.33,-1.17,0.51
0.31,-1.26,0.49
0.31,-1.41,0.48
0.27,-1.46,0.49
0.2,-1.46,0.53
0.11,-1.47,0.63
0.08,-1.47,0.69
0.12,-1.48,0.75
0.19,-1.41,0.8
0.2,-1.39,0.75
0.26,-1.37,0.69
0.38,-1.21,0.71
0.4,-1.1,0.68
0.45,-0.82,0.6
0.45,-0.82,0.6
0.44,-0.75,0.57
0.43,-0.7,0.53
0.47,-0.64,0.51
0.62,-0.47,0.44
0.62,-0.47,0.44
0.61,-0.42,0.45
0.61,-0.37,0.45
0.63,-0.32,0.44
0.64,-0.26,0.47
0.75,-0.16,0.41
0.91,-0.15,0.26
1.06,-0.12,0.19
1.09,-0.08,0.21
0.81,-0.77,0.26
0.81,-0.77,0.26
0.64,-0.85,0.35
0.51,-0.94,0.32
0.44,-1.05,0.29
0.42,-1.16,0.31
0.35,-1.25,0.25
0.28,-1.48,0.1
0.29,-1.89,-0.04
0.33,-2.48,0.17
-0.16,-1.73,0.58
-0.14,-2.06,0.32
-0.17,-1.94,0.17
0.16,-0.84,-0.12
-0.34,-1.42,-0.11
-0.8,-2.85,-0.06
-1.25,-1.68,-0.12
-1.31,-1.41,-0.34
-1.26,-1.69,-0.52
-1.36,-1.78,-0.71
-1.18,-1.57,-1.89
-2.31,-1.7,-3.46
0.17,-2.97,-0.03
3.97,-3.99,3.97
1.13,-3.27,0.7
-1.56,-2.51,-2.41
-0.62,-2.01,-0.6
-0.03,-1.22,1.21
1,-0.56,0.84
1.89,-0.31,0.44
1.17,-0.57,0.28
0.41,-0.76,0.07
0.21,-0.78,0.19
0.49,-0.37,0.54
0.95,-0.86,0.91
0.35,-0.95,0.5
0.04,-0.51,0.24
0.82,-0.35,0.46
1.24,-0.36,0.69
0.98,-0.5,0.52
0.83,-1.16,0.32
0.55,-1.01,0.19
0.42,-0.39,0.27
0.58,-0.43,0.46
0.91,-0.26,0.91
1.27,-0.04,1.19
1.19,-0.26,1.27
0.69,-0.01,1.06
0.54,0.07,0.88
0.65,-0.64,1
0.42,-0.87,0.9
0.32,-0.69,0.79
0.27,-0.85,0.72
-0.11,-0.95,0.39
-0.78,-1.17,0.14
-0.49,-1.32,0.24
0.05,-1.25,0.43
0.12,-1.06,0.64
0.73,-0.6,0.98
1.56,0.12,1.65
1.98,1.51,3.59
1,1.47,3.51
0.76,1.22,2.97
0.73,1.16,1.99
0.7,0.93,0.81
1.21,0.47,0.22
1.8,-0.01,0.19
1.78,-0.87,0.41
1.52,-1.53,0.58
1.13,-1.77,0.38
0.77,-1.71,0.01
0.76,-1.71,-0.09
0.84,-2.47,0.06
0.57,-2.75,0.07
0.2,-1.92,0.42
-0.01,-1.48,0.74
-0.24,-1.53,0.22
-0.23,-1.18,0.29
0.01,-0.77,0.97
-0.02,-0.66,0.85
1.1,-1.88,0.11
0.91,-1.03,0.47
0.12,-0.19,0.96
0.38,-0.04,0.47
0.27,0.03,0.96
0.23,0.08,1.25
0.14,0.03,1.14
0.16,0.07,1.09
0.61,0.19,0.89
0.98,0.18,0.72
0.48,-0.11,0.97
0.48,-0.11,0.97
0.48,-0.15,0.96
0.48,-0.14,0.92
0.44,-0.09,0.9
0.54,-0.09,0.85
0.54,-0.09,0.85
0.54,-0.09,0.85
0.54,-0.09,0.85
0.55,-0.09,0.84
0.57,-0.09,0.84
0.56,-0.09,0.84
0.55,-0.08,0.84
0.54,-0.09,0.85
0.53,-0.09,0.85
0.58,-0.07,0.82
0.58,-0.08,0.83
0.58,-0.09,0.85
0.57,-0.08,0.86
0.57,-0.08,0.84
0.57,-0.08,0.82
0.58,-0.08,0.82
0.56,-0.09,0.83
0.55,-0.1,0.84
0.54,-0.09,0.85
0.54,-0.09,0.85
0.54,-0.1,0.85
0.54,-0.09,0.86
0.55,-0.08,0.85
0.56,-0.08,0.84
0.55,-0.09,0.84
0.55,-0.09,0.84
0.55,-0.1,0.84
0.55,-0.1,0.85
0.55,-0.09,0.86
0.54,-0.09,0.85
0.54,-0.1,0.84
0.54,-0.1,0.84
0.54,-0.09,0.84
0.54,-0.09,0.84
0.54,-0.1,0.86
0.54,-0.1,0.86
0.55,-0.1,0.84
0.57,-0.1,0.84
0.58,-0.09,0.83
0.57,-0.1,0.84
0.55,-0.1,0.85
0.54,-0.1,0.85
0.53,-0.1,0.85
0.54,-0.1,0.85
0.54,-0.1,0.85
0.55,-0.1,0.85
0.55,-0.1,0.85
0.55,-0.1,0.85
0.55,-0.1,0.85
0.55,-0.1,0.85
0.55,-0.1,0.84
0.55,-0.1,0.84
0.56,-0.1,0.84
0.55,-0.1,0.84
0.55,-0.1,0.84
0.55,-0.1,0.85
0.55,-0.1,0.85
0.55,-0.1,0.85
0.56,-0.1,0.85
0.55,-0.1,0.85
0.55,-0.1,0.85
0.55,-0.1,0.85
0.55,-0.1,0.85
0.55,-0.1,0.85
0.55,-0.1,0.84
0.55,-0.1,0.85
0.55,-0.1,0.85
0.55,-0.1,0.84
0.55,-0.1,0.85
0.54,-0.1,0.85
0.54,-0.1,0.85
0.54,-0.1,0.85
0.54,-0.1,0.85
0.55,-0.1,0.85
0.55,-0.1,0.85
0.55,-0.1,0.84
0.55,-0.1,0.84
0.55,-0.1,0.84
0.55,-0.1,0.85
0.55,-0.1,0.85
0.55,-0.1,0.85
0.55,-0.1,0.85
0.55,-0.1,0.84
0.55,-0.1,0.85
0.55,-0.1,0.85
0.54,-0.1,0.85
0.54,-0.11,0.85
0.54,-0.1,0.85
0.54,-0.1,0.86
0.55,-0.1,0.85
0.54,-0.1,0.85
0.54,-0.1,0.85
0.55,-0.1,0.85
0.55,-0.1,0.85
0.55,-0.1,0.85
0.54,-0.1,0.85
0.54,-0.1,0.85
0.54,-0.1,0.85
0.54,-0.1,0.85
0.54,-0.1,0.85
0.54,-0.1,0.85
0.54,-0.1,0.85
0.54,-0.1,0.85
0.54,-0.1,0.85
0.54,-0.1,0.85
0.55,-0.1,0.85
0.55,-0.1,0.86
0.55,-0.1,0.85
0.55,-0.1,0.85
0.54,-0.1,0.85
0.54,-0.1,0.85
0.54,-0.1,0.85
0.55,-0.1,0.85
0.54,-0.1,0.85
0.54,-0.1,0.85
0.54,-0.1,0.85
0.54,-0.1,0.85
0.54,-0.1,0.85
0.54,-0.1,0.85
0.54,-0.1,0.85
0.55,-0.1,0.85
0.54,-0.1,0.85
0.54,-0.1,0.85
0.55,-0.1,0.85
0.54,-0.1,0.85
0.54,-0.1,0.85
0.54,-0.1,0.85
0.54,-0.1,0.85
0.54,-0.1,0.85
0.55,-0.1,0.85
0.55,-0.1,0.85
0.54,-0.1,0.85
0.54,-0.1,0.85
0.54,-0.1,0.85
0.55,-0.1,0.85
0.55,-0.1,0.85
0.55,-0.1,0.84
0.55,-0.1,0.84
0.55,-0.1,0.84
0.55,-0.1,0.84
0.55,-0.1,0.85
0.55,-0.1,0.85
0.54,-0.1,0.85
0.54,-0.1,0.85
0.54,-0.1,0.85
0.55,-0.1,0.85
0.55,-0.1,0.85
0.55,-0.1,0.84
0.55,-0.1,0.84
0.55,-0.1,0.84
0.55,-0.1,0.84
0.55,-0.1,0.85
0.55,-0.1,0.85
0.55,-0.1,0.85
0.55,-0.1,0.85
0.55,-0.1,0.85
0.55,-0.1,0.84
0.56,-0.1,0.84
0.55,-0.1,0.85
0.55,-0.1,0.85
0.55,-0.1,0.85
0.55,-0.1,0.85
0.55,-0.1,0.85
0.55,-0.1,0.85
0.55,-0.1,0.85
0.55,-0.1,0.85
0.55,-0.1,0.85
0.55,-0.1,0.85
0.55,-0.1,0.85
0.56,-0.1,0.85
0.55,-0.1,0.84
0.55,-0.1,0.84
0.55,-0.1,0.84
0.55,-0.1,0.84
0.56,-0.1,0.84
0.56,-0.1,0.84
0.56,-0.1,0.84
0.55,-0.1,0.84
0.55,-0.1,0.84
0.55,-0.1,0.85
0.55,-0.1,0.85
0.55,-0.1,0.85
0.55,-0.1,0.84
0.56,-0.1,0.84
0.56,-0.1,0.84
0.56,-0.1,0.84
0.55,-0.1,0.84
0.55,-0.1,0.84
0.55,-0.1,0.85
0.55,-0.11,0.84
0.55,-0.1,0.84
0.56,-0.1,0.84
0.56,-0.1,0.84
0.56,-0.1,0.84
0.55,-0.1,0.84
0.55,-0.1,0.84
0.55,-0.1,0.84
0.55,-0.1,0.85
0.55,-0.1,0.85
0.55,-0.1,0.84
0.55,-0.1,0.85
0.55,-0.1,0.85
0.55,-0.1,0.85
0.55,-0.1,0.85
0.54,-0.1,0.85
0.55,-0.1,0.85
0.55,-0.1,0.85
0.55,-0.1,0.85
0.55,-0.1,0.85
0.55,-0.1,0.85
0.55,-0.1,0.84
0.55,-0.1,0.84
0.55,-0.1,0.85
0.55,-0.1,0.85
0.55,-0.1,0.85
0.55,-0.1,0.85
0.55,-0.1,0.85
0.55,-0.1,0.85
0.55,-0.1,0.85
0.55,-0.1,0.85
0.55,-0.1,0.85
0.55,-0.1,0.85
0.55,-0.1,0.85
0.55,-0.1,0.85
0.55,-0.11,0.85
0.55,-0.1,0.85
0.55,-0.1,0.85
0.55,-0.1,0.85
0.55,-0.1,0.84
0.55,-0.1,0.85
0.55,-0.1,0.85
0.55,-0.1,0.85
0.55,-0.1,0.85
0.55,-0.1,0.85
0.55,-0.1,0.85
0.55,-0.1,0.85
0.55,-0.1,0.84
0.55,-0.1,0.84
0.55,-0.1,0.84
0.55,-0.1,0.84
0.55,-0.1,0.84
0.55,-0.1,0.84
0.55,-0.1,0.84
0.55,-0.1,0.84
0.55,-0.1,0.84
0.55,-0.1,0.84
0.55,-0.1,0.85
0.54,-0.1,0.85
0.55,-0.1,0.84
0.55,-0.1,0.84
0.55,-0.1,0.85
0.56,-0.1,0.84
0.55,-0.1,0.84
0.55,-0.1,0.84
0.55,-0.1,0.85
0.55,-0.1,0.84
0.56,-0.1,0.84
0.55,-0.1,0.85
0.55,-0.1,0.84
0.56,-0.1,0.84
0.55,-0.1,0.84
0.55,-0.1,0.84
0.55,-0.1,0.85
0.55,-0.1,0.85
0.54,-0.1,0.85
0.54,-0.1,0.85
0.55,-0.1,0.85
0.55,-0.1,0.85
0.55,-0.1,0.85
0.55,-0.1,0.84
0.55,-0.1,0.85
0.55,-0.1,0.85
0.55,-0.1,0.84
0.55,-0.1,0.85
0.55,-0.11,0.85
0.55,-0.1,0.85
0.55,-0.1,0.84
0.55,-0.1,0.85
0.55,-0.1,0.85
0.55,-0.11,0.85
0.55,-0.1,0.85
0.55,-0.1,0.84
0.56,-0.1,0.84
0.56,-0.1,0.84
0.56,-0.1,0.84
0.56,-0.1,0.84
0.56,-0.1,0.84
0.56,-0.1,0.84
0.56,-0.1,0.84
0.56,-0.1,0.84
0.56,-0.1,0.84
0.56,-0.11,0.84
0.55,-0.1,0.84
0.55,-0.1,0.85
0.55,-0.11,0.85
0.55,-0.11,0.85
0.55,-0.11,0.84
0.55,-0.11,0.84
0.55,-0.1,0.85
0.55,-0.1,0.85
0.55,-0.1,0.84
0.55,-0.1,0.84
0.55,-0.11,0.84
0.54,-0.11,0.84
0.54,-0.11,0.85
0.54,-0.11,0.85
0.54,-0.11,0.85
0.54,-0.1,0.85
0.55,-0.1,0.84
0.56,-0.11,0.85
0.56,-0.11,0.85
0.56,-0.1,0.84
0.57,-0.1,0.84
0.56,-0.11,0.84
0.55,-0.11,0.84
0.55,-0.1,0.84
0.55,-0.11,0.85
0.55,-0.11,0.85
0.54,-0.11,0.85
0.53,-0.11,0.86
0.53,-0.11,0.86
0.52,-0.11,0.86
0.53,-0.11,0.85
0.53,-0.11,0.85
0.53,-0.11,0.85
0.53,-0.11,0.86
0.52,-0.11,0.86
0.52,-0.11,0.86
0.53,-0.11,0.86
0.53,-0.11,0.86
0.54,-0.11,0.86
0.55,-0.11,0.84
0.57,-0.11,0.84
0.58,-0.1,0.83
0.56,-0.11,0.84
0.55,-0.11,0.85
0.53,-0.11,0.85
0.52,-0.11,0.86
0.53,-0.11,0.86
0.54,-0.1,0.86
0.55,-0.1,0.85
0.55,-0.1,0.85
0.54,-0.11,0.85
0.53,-0.11,0.86
0.53,-0.11,0.86
0.53,-0.11,0.86
0.54,-0.11,0.85
0.55,-0.11,0.84
0.56,-0.1,0.84
0.56,-0.1,0.84
0.55,-0.11,0.85
0.54,-0.11,0.85
0.55,-0.11,0.85
0.55,-0.11,0.85
0.55,-0.1,0.85
0.56,-0.1,0.84
0.56,-0.11,0.84
0.56,-0.1,0.84
0.56,-0.11,0.84
0.55,-0.11,0.84
0.55,-0.11,0.84
0.55,-0.11,0.84
0.56,-0.1,0.84
0.56,-0.1,0.84
0.56,-0.11,0.84
0.55,-0.11,0.85
0.54,-0.11,0.85
0.54,-0.11,0.85
0.54,-0.11,0.85
0.55,-0.11,0.84
0.55,-0.11,0.84
0.55,-0.11,0.85
0.55,-0.11,0.85
0.55,-0.11,0.85
0.55,-0.1,0.85
0.55,-0.11,0.84
0.55,-0.11,0.85
0.55,-0.11,0.85
0.55,-0.11,0.85
0.55,-0.11,0.85
0.55,-0.11,0.85
0.55,-0.11,0.85
0.55,-0.11,0.84
0.55,-0.11,0.84
0.55,-0.11,0.84
0.55,-0.11,0.84
0.55,-0.11,0.84
0.55,-0.11,0.84
0.55,-0.11,0.85
0.55,-0.11,0.85
0.54,-0.11,0.85
0.55,-0.11,0.85
0.55,-0.11,0.85
0.55,-0.11,0.84
0.55,-0.11,0.84
0.55,-0.11,0.84
0.55,-0.11,0.85
0.55,-0.11,0.84
0.55,-0.11,0.85
0.55,-0.11,0.85
0.55,-0.11,0.85
0.55,-0.11,0.85
0.55,-0.1,0.85
0.55,-0.11,0.84
0.55,-0.11,0.84
0.55,-0.11,0.85
0.55,-0.11,0.85
0.55,-0.11,0.85
0.55,-0.11,0.85
0.55,-0.11,0.85
0.55,-0.11,0.85
0.55,-0.11,0.84
0.55,-0.1,0.85
0.55,-0.1,0.85
0.55,-0.11,0.84
0.55,-0.11,0.85
0.55,-0.11,0.85
0.55,-0.11,0.85
0.55,-0.11,0.85
0.55,-0.11,0.84
0.55,-0.11,0.84
0.55,-0.11,0.85
0.55,-0.11,0.85
0.55,-0.11,0.84
0.55,-0.11,0.84
0.55,-0.11,0.85
0.55,-0.11,0.85
0.54,-0.11,0.85
0.54,-0.11,0.85
0.55,-0.11,0.85
0.55,-0.11,0.85
0.55,-0.11,0.85
0.55,-0.11,0.85
0.55,-0.11,0.84
0.55,-0.11,0.85
0.55,-0.11,0.85
0.55,-0.11,0.85
0.55,-0.11,0.85
0.55,-0.11,0.85
0.55,-0.11,0.85
0.55,-0.11,0.85
0.55,-0.11,0.85
0.55,-0.11,0.85
0.55,-0.11,0.85
0.56,-0.11,0.84
0.56,-0.11,0.84
0.55,-0.11,0.85
0.55,-0.11,0.84
0.55,-0.11,0.84
0.55,-0.11,0.84
0.55,-0.11,0.84
0.55,-0.11,0.84
0.55,-0.11,0.84
0.55,-0.11,0.84
0.55,-0.11,0.84
0.55,-0.11,0.84
0.55,-0.11,0.84
0.55,-0.11,0.84
0.55,-0.11,0.85
0.55,-0.11,0.85
0.55,-0.11,0.85
0.55,-0.11,0.84
0.55,-0.11,0.84
0.55,-0.11,0.84
0.55,-0.1,0.84
0.56,-0.11,0.84
0.55,-0.11,0.85
0.55,-0.11,0.84
0.55,-0.11,0.84
0.55,-0.11,0.84
0.55,-0.11,0.84
0.55,-0.11,0.84
0.55,-0.11,0.84
0.55,-0.11,0.85
0.55,-0.11,0.84
0.55,-0.11,0.84
0.55,-0.11,0.85
0.56,-0.11,0.84
0.56,-0.11,0.84
0.55,-0.11,0.84
0.55,-0.11,0.84
0.55,-0.11,0.84
0.55,-0.11,0.85
0.55,-0.11,0.85
0.55,-0.11,0.84
0.55,-0.1,0.84
0.55,-0.1,0.85
0.54,-0.11,0.85
0.55,-0.11,0.85
0.55,-0.11,0.84
0.55,-0.11,0.84
0.55,-0.11,0.84
0.55,-0.11,0.84
0.55,-0.11,0.84
0.56,-0.1,0.84
0.56,-0.1,0.84
0.56,-0.11,0.84
0.56,-0.11,0.84
0.55,-0.11,0.84
0.55,-0.1,0.84
0.55,-0.11,0.84
0.55,-0.11,0.84
0.56,-0.11,0.84
0.56,-0.11,0.84
0.56,-0.11,0.84
0.56,-0.11,0.84
0.55,-0.11,0.85
0.55,-0.11,0.85
0.55,-0.11,0.85
0.56,-0.11,0.84
0.56,-0.1,0.84
0.55,-0.1,0.84
0.55,-0.11,0.84
0.55,-0.1,0.84
0.55,-0.1,0.84
0.55,-0.1,0.84
0.55,-0.1,0.84
0.55,-0.11,0.84
0.56,-0.11,0.84
0.56,-0.1,0.84
0.57,-0.11,0.84
0.56,-0.11,0.84
0.56,-0.11,0.84
0.56,-0.11,0.84
0.55,-0.11,0.84
0.55,-0.11,0.84
0.55,-0.11,0.84
0.55,-0.11,0.84
0.56,-0.1,0.84
0.56,-0.11,0.84
0.56,-0.1,0.84
0.56,-0.1,0.84
0.56,-0.11,0.84
0.56,-0.1,0.84
0.56,-0.1,0.84
0.56,-0.11,0.84
0.56,-0.11,0.84
0.57,-0.11,0.84
0.57,-0.11,0.84
0.56,-0.11,0.83
0.56,-0.11,0.84
0.56,-0.11,0.84
0.56,-0.11,0.84
0.56,-0.11,0.84
0.56,-0.11,0.84
0.56,-0.11,0.84
0.56,-0.11,0.84
0.56,-0.11,0.84
0.56,-0.11,0.84
0.56,-0.11,0.84
0.56,-0.11,0.84
0.56,-0.11,0.84
0.56,-0.11,0.84
0.56,-0.11,0.84
0.56,-0.11,0.84
0.56,-0.11,0.84
0.56,-0.11,0.84
0.56,-0.11,0.84
0.56,-0.11,0.84
0.56,-0.11,0.84
0.57,-0.11,0.83
0.57,-0.11,0.84
0.57,-0.11,0.84
0.56,-0.11,0.83
0.57,-0.11,0.83
0.56,-0.11,0.83
0.56,-0.11,0.84
0.56,-0.11,0.84
0.56,-0.11,0.84
0.56,-0.11,0.84
0.56,-0.11,0.84
0.56,-0.11,0.84
0.56,-0.11,0.84
0.56,-0.11,0.84
0.56,-0.11,0.84
0.56,-0.11,0.84
0.56,-0.11,0.84
0.56,-0.11,0.84
0.56,-0.11,0.84
0.56,-0.11,0.84
0.56,-0.11,0.84
0.56,-0.11,0.84
0.56,-0.11,0.84
0.56,-0.11,0.84
0.56,-0.11,0.84
0.56,-0.11,0.84
0.56,-0.11,0.84
0.56,-0.11,0.84
0.56,-0.11,0.84
0.56,-0.11,0.84
0.56,-0.11,0.84
0.56,-0.11,0.84
0.56,-0.11,0.84
0.55,-0.11,0.84
0.56,-0.11,0.84
0.56,-0.11,0.84
0.56,-0.11,0.84
0.56,-0.11,0.84
0.56,-0.11,0.84
0.56,-0.11,0.84
0.56,-0.11,0.84
0.56,-0.11,0.84
0.56,-0.11,0.84
0.56,-0.11,0.84
0.55,-0.11,0.84
0.56,-0.11,0.84
0.56,-0.11,0.84
0.56,-0.11,0.84
0.56,-0.11,0.84
0.56,-0.11,0.83
0.56,-0.11,0.84
0.56,-0.11,0.84
0.56,-0.11,0.84
0.56,-0.11,0.84
0.56,-0.11,0.84
0.56,-0.11,0.84
0.56,-0.11,0.84
0.56,-0.11,0.84
0.56,-0.11,0.84
0.56,-0.11,0.84
0.56,-0.11,0.84
0.56,-0.11,0.84
0.56,-0.11,0.84
0.56,-0.11,0.84
0.56,-0.11,0.84
0.56,-0.11,0.84
0.56,-0.11,0.84
0.56,-0.11,0.84
0.56,-0.11,0.84
0.56,-0.11,0.84
0.55,-0.11,0.84
0.56,-0.11,0.84
0.56,-0.11,0.84
0.56,-0.11,0.84
0.56,-0.11,0.84
0.56,-0.11,0.84
0.56,-0.11,0.83
0.56,-0.11,0.84
0.56,-0.11,0.84
0.56,-0.11,0.84
0.56,-0.11,0.84
0.56,-0.11,0.84
0.56,-0.11,0.84
0.56,-0.11,0.84
0.56,-0.11,0.84
0.56,-0.11,0.84
0.56,-0.11,0.84
0.56,-0.11,0.84
0.56,-0.11,0.84
0.56,-0.11,0.84
0.56,-0.11,0.84
0.56,-0.11,0.84
0.56,-0.11,0.84
0.56,-0.11,0.84
0.56,-0.11,0.84
0.56,-0.11,0.84
0.56,-0.11,0.84
0.56,-0.11,0.84
0.56,-0.11,0.84
0.56,-0.11,0.84
0.56,-0.11,0.84
0.56,-0.11,0.84
0.56,-0.11,0.84
0.56,-0.11,0.84
0.56,-0.11,0.84
0.56,-0.11,0.84
0.56,-0.11,0.84
0.56,-0.1,0.84
0.56,-0.11,0.84
0.56,-0.11,0.84
0.56,-0.11,0.84
0.56,-0.11,0.84
0.56,-0.11,0.84
0.56,-0.11,0.84
0.56,-0.11,0.84
0.56,-0.11,0.84
0.56,-0.11,0.84
0.56,-0.11,0.84
0.56,-0.11,0.84
0.56,-0.11,0.84
0.56,-0.11,0.84
0.56,-0.11,0.84
0.56,-0.11,0.84
0.56,-0.11,0.84
0.56,-0.11,0.84
0.56,-0.11,0.84
0.56,-0.11,0.84
0.56,-0.11,0.84
0.56,-0.11,0.84
0.56,-0.11,0.84
0.56,-0.11,0.84
0.56,-0.11,0.84
0.56,-0.11,0.84
0.56,-0.11,0.84
0.56,-0.11,0.84
0.56,-0.11,0.84
0.56,-0.11,0.84
0.55,-0.11,0.84
0.56,-0.11,0.84
0.56,-0.11,0.84
0.56,-0.11,0.84
0.56,-0.11,0.84
0.56,-0.11,0.84
0.56,-0.11,0.84
0.56,-0.11,0.84
0.56,-0.11,0.84
0.55,-0.11,0.84
0.56,-0.11,0.84
0.56,-0.11,0.84
0.56,-0.11,0.84
0.56,-0.11,0.84
0.56,-0.11,0.84
0.56,-0.11,0.84
0.56,-0.11,0.84
0.56,-0.11,0.84
0.56,-0.11,0.84
0.56,-0.11,0.84
0.56,-0.11,0.84
0.56,-0.11,0.84
0.56,-0.11,0.84
0.56,-0.11,0.84
0.56,-0.11,0.84
0.56,-0.11,0.84
0.56,-0.11,0.84
0.56,-0.11,0.84
0.56,-0.11,0.84
0.56,-0.11,0.84
0.56,-0.11,0.84
0.56,-0.11,0.84
0.56,-0.11,0.84
0.56,-0.11,0.84
0.56,-0.11,0.84
0.56,-0.11,0.84
0.56,-0.11,0.84
0.56,-0.11,0.84
0.56,-0.11,0.84
0.55,-0.11,0.84
0.56,-0.11,0.84
0.56,-0.11,0.84
0.56,-0.11,0.84
0.56,-0.11,0.84
0.56,-0.11,0.84
0.55,-0.11,0.84
0.56,-0.11,0.84
0.56,-0.11,0.84
0.56,-0.11,0.84
0.56,-0.11,0.84
0.56,-0.11,0.84
0.56,-0.11,0.84
0.56,-0.11,0.84
0.56,-0.11,0.84
0.56,-0.11,0.84
0.56,-0.11,0.84
0.56,-0.11,0.84
0.56,-0.11,0.84
0.56,-0.11,0.84
0.56,-0.11,0.84
0.56,-0.11,0.84
0.56,-0.11,0.84
0.56,-0.11,0.84
0.56,-0.11,0.84
0.56,-0.11,0.84
0.56,-0.11,0.84
0.56,-0.11,0.84
0.56,-0.11,0.84
0.56,-0.11,0.84
0.56,-0.11,0.84
0.56,-0.11,0.84
0.56,-0.11,0.84
0.56,-0.11,0.84
0.56,-0.11,0.84
0.56,-0.11,0.84
0.56,-0.11,0.84
0.56,-0.11,0.84
0.56,-0.11,0.84
0.56,-0.11,0.84
0.56,-0.11,0.84
0.56,-0.11,0.84
0.56,-0.11,0.84
0.55,-0.11,0.84
0.56,-0.11,0.84
0.56,-0.11,0.84
0.56,-0.11,0.84
0.56,-0.11,0.84
0.56,-0.11,0.84
0.56,-0.11,0.84
0.56,-0.11,0.84
0.56,-0.11,0.84
0.56,-0.11,0.84
0.56,-0.11,0.84
0.56,-0.11,0.84
0.55,-0.11,0.84
0.56,-0.11,0.84
0.56,-0.11,0.84
0.56,-0.11,0.84
0.56,-0.11,0.84
0.56,-0.11,0.84
0.56,-0.11,0.84
0.56,-0.11,0.84
0.56,-0.11,0.84
0.56,-0.11,0.84
0.56,-0.11,0.84
0.56,-0.11,0.84
0.56,-0.11,0.84
0.56,-0.11,0.84
0.56,-0.11,0.84
0.56,-0.11,0.84
0.56,-0.11,0.84
0.56,-0.11,0.84
0.56,-0.11,0.84
0.56,-0.11,0.84
0.56,-0.11,0.84
0.56,-0.11,0.84
0.56,-0.11,0.84
0.56,-0.11,0.84
0.56,-0.11,0.84
0.56,-0.11,0.84
0.56,-0.11,0.84
0.56,-0.11,0.84
0.56,-0.11,0.84
0.56,-0.11,0.84
0.56,-0.11,0.84
0.56,-0.11,0.84
0.56,-0.11,0.84
0.56,-0.11,0.84
0.56,-0.11,0.84
0.56,-0.11,0.84
0.56,-0.11,0.84
0.56,-0.11,0.84
0.56,-0.11,0.84
0.56,-0.11,0.84
0.56,-0.11,0.84
0.56,-0.11,0.84
0.56,-0.11,0.84
0.56,-0.11,0.84
0.56,-0.11,0.84
0.56,-0.11,0.84
0.56,-0.11,0.84
0.56,-0.11,0.84
0.56,-0.11,0.84
0.56,-0.11,0.84
0.56,-0.11,0.84
0.56,-0.11,0.84
0.56,-0.11,0.84
0.56,-0.11,0.84
0.56,-0.11,0.84
0.56,-0.11,0.84
0.56,-0.11,0.84
0.56,-0.11,0.84
0.56,-0.11,0.84
0.56,-0.11,0.84
0.56,-0.11,0.84
0.56,-0.11,0.84
0.56,-0.11,0.84
0.56,-0.11,0.84
0.56,-0.11,0.84
0.56,-0.11,0.84
0.56,-0.11,0.84
0.56,-0.11,0.84
0.56,-0.11,0.84
0.56,-0.11,0.84
0.56,-0.11,0.84
0.56,-0.11,0.84
0.56,-0.11,0.84
0.56,-0.11,0.84
0.56,-0.11,0.84
0.56,-0.11,0.84
0.56,-0.11,0.84
0.56,-0.11,0.84
0.56,-0.11,0.84
0.56,-0.11,0.84
0.56,-0.11,0.84
0.56,-0.11,0.84
0.56,-0.11,0.84
0.56,-0.11,0.84
0.56,-0.11,0.84
0.56,-0.11,0.84
0.56,-0.11,0.84
0.56,-0.11,0.84
0.56,-0.11,0.84
0.56,-0.11,0.84
0.56,-0.11,0.84
0.56,-0.11,0.84
0.56,-0.11,0.84
0.56,-0.11,0.84
0.56,-0.11,0.84
0.56,-0.11,0.84
0.56,-0.11,0.84
0.56,-0.11,0.84
0.56,-0.11,0.84
0.56,-0.11,0.84
0.56,-0.11,0.84
0.56,-0.11,0.84
0.56,-0.11,0.84
0.56,-0.11,0.84
0.56,-0.11,0.84
0.56,-0.11,0.84
0.56,-0.11,0.84
0.56,-0.11,0.84
0.56,-0.11,0.84
0.56,-0.11,0.84
0.56,-0.11,0.84
0.56,-0.11,0.84
0.56,-0.11,0.84
0.56,-0.11,0.84
0.56,-0.11,0.84
0.56,-0.11,0.84
0.56,-0.11,0.84
0.56,-0.11,0.84
0.56,-0.11,0.84
0.55,-0.11,0.83
0.56,-0.11,0.84
0.56,-0.11,0.84
0.56,-0.11,0.84
0.55,-0.11,0.84
0.55,-0.11,0.84
0.56,-0.11,0.84
0.55,-0.11,0.84
0.54,-0.11,0.85
0.56,-0.12,0.84
0.56,-0.12,0.84
0.56,-0.11,0.84
0.56,-0.11,0.84
0.56,-0.11,0.84
0.56,-0.11,0.84
0.57,-0.11,0.83
0.57,-0.11,0.83
0.56,-0.11,0.84
0.56,-0.11,0.84
0.56,-0.11,0.84
0.56,-0.11,0.84
0.56,-0.11,0.84
0.56,-0.11,0.85
0.56,-0.11,0.84
0.56,-0.11,0.84
0.56,-0.11,0.83
0.57,-0.11,0.83
0.56,-0.11,0.84
0.55,-0.11,0.84
0.56,-0.11,0.84
0.55,-0.11,0.84
0.54,-0.11,0.84
0.55,-0.11,0.84
0.55,-0.11,0.84
0.56,-0.11,0.84
0.55,-0.11,0.84
0.55,-0.11,0.84
0.56,-0.11,0.84
0.56,-0.11,0.84
0.55,-0.11,0.84
0.55,-0.11,0.84
0.55,-0.11,0.84
0.55,-0.11,0.84
0.55,-0.11,0.84
0.55,-0.11,0.84
0.56,-0.11,0.84
0.56,-0.11,0.84
0.55,-0.11,0.84
0.55,-0.11,0.84
0.56,-0.11,0.84
0.56,-0.11,0.84
0.55,-0.11,0.84
0.55,-0.11,0.84
0.55,-0.11,0.84
0.55,-0.11,0.84
0.55,-0.11,0.84
0.55,-0.11,0.84
0.55,-0.11,0.84
0.55,-0.11,0.84
0.55,-0.11,0.84
0.56,-0.11,0.84
0.55,-0.11,0.84
0.55,-0.11,0.84
0.55,-0.11,0.84
0.55,-0.11,0.85
0.55,-0.11,0.85
0.55,-0.11,0.85
0.55,-0.11,0.84
0.55,-0.11,0.84
0.55,-0.11,0.84
0.55,-0.11,0.84
0.56,-0.11,0.84
0.56,-0.11,0.84
0.56,-0.11,0.84
0.56,-0.11,0.84
0.55,-0.11,0.84
0.55,-0.11,0.85
0.55,-0.11,0.85
0.55,-0.11,0.85
0.55,-0.11,0.84
0.55,-0.11,0.84
0.55,-0.11,0.84
0.55,-0.11,0.84
0.56,-0.11,0.84
0.55,-0.11,0.84
0.55,-0.11,0.84
0.55,-0.11,0.84
0.55,-0.11,0.84
0.56,-0.11,0.84
0.56,-0.11,0.84
0.55,-0.11,0.84
0.55,-0.11,0.84
0.55,-0.11,0.84
0.55,-0.11,0.84
0.55,-0.11,0.84
0.56,-0.11,0.84
0.56,-0.11,0.85
0.55,-0.11,0.85
0.55,-0.11,0.84
0.55,-0.11,0.84
0.55,-0.11,0.84
0.55,-0.11,0.84
0.55,-0.11,0.84
0.55,-0.11,0.84
0.55,-0.11,0.85
0.55,-0.11,0.84
0.55,-0.11,0.84
0.55,-0.11,0.84
0.55,-0.11,0.84
0.55,-0.11,0.84
55,-0.11,0.84
0.55,-0.11,0.84
0.56,-0.11,0.84
0.56,-0.11,0.84
0.56,-0.11,0.84
0.56,-0.11,0.84
0.55,-0.11,0.84
0.55,-0.11,0.84
0.55,-0.11,0.84
0.55,-0.11,0.84
0.55,-0.11,0.84
0.55,-0.11,0.84
0.55,-0.11,0.84
0.55,-0.11,0.84
0.55,-0.11,0.84
0.55,-0.11,0.85
0.55,-0.11,0.84
0.55,-0.11,0.84
0.55,-0.11,0.84
0.55,-0.11,0.84
0.55,-0.11,0.84
0.55,-0.11,0.84
0.55,-0.11,0.84
0.56,-0.11,0.84
0.55,-0.11,0.84
0.55,-0.11,0.84
0.56,-0.11,0.84
0.56,-0.11,0.84
0.56,-0.11,0.84
0.55,-0.11,0.84
0.55,-0.11,0.84
0.55,-0.11,0.84
0.55,-0.11,0.84
0.56,-0.11,0.84
0.56,-0.11,0.84
0.56,-0.11,0.84
0.56,-0.11,0.84
0.55,-0.11,0.84
0.55,-0.11,0.84
0.55,-0.11,0.84
0.55,-0.11,0.85
0.55,-0.11,0.84
0.55,-0.11,0.84
0.56,-0.11,0.84
0.56,-0.11,0.84
0.56,-0.11,0.84
0.55,-0.11,0.84
0.56,-0.11,0.84
0.56,-0.11,0.84
0.56,-0.11,0.84
0.56,-0.11,0.84
0.55,-0.11,0.84
0.55,-0.11,0.84
0.55,-0.11,0.84
0.55,-0.11,0.84
0.55,-0.11,0.84
0.55,-0.11,0.84
0.55,-0.11,0.84
0.55,-0.11,0.84
0.56,-0.11,0.84
0.56,-0.11,0.84
0.56,-0.11,0.84
0.55,-0.11,0.84
0.55,-0.11,0.84
0.56,-0.11,0.85
0.56,-0.11,0.85
0.56,-0.11,0.84
0.56,-0.11,0.84
0.55,-0.11,0.84
0.54,-0.11,0.85
0.53,-0.11,0.85
0.54,-0.11,0.85
0.56,-0.11,0.84
0.58,-0.11,0.83
0.57,-0.11,0.84
0.57,-0.11,0.84
0.56,-0.11,0.84
0.56,-0.11,0.84
0.56,-0.11,0.84
0.55,-0.11,0.84
0.55,-0.11,0.84
0.55,-0.1,0.85
0.54,-0.11,0.84
0.54,-0.1,0.85
0.54,-0.1,0.84
0.56,-0.11,0.84
0.59,-0.11,0.83
0.6,-0.11,0.82
0.6,-0.11,0.82
0.58,-0.11,0.83
0.56,-0.11,0.85
0.56,-0.11,0.84
0.58,-0.11,0.84
0.59,-0.11,0.83
0.6,-0.1,0.82
0.6,-0.11,0.82
0.59,-0.11,0.83
0.57,-0.11,0.85
0.56,-0.1,0.87
0.55,-0.1,0.87
0.56,-0.11,0.86
0.57,-0.11,0.84
0.57,-0.09,0.82
0.56,-0.1,0.82
0.55,-0.1,0.83
0.54,-0.1,0.83
0.55,-0.1,0.82
0.54,-0.08,0.85
0.59,-0.08,0.85
0.58,-0.1,0.83
0.5,-0.1,0.85
0.48,-0.08,0.89
0.49,-0.09,0.91
0.48,-0.1,0.89
0.45,-0.09,0.87
0.47,-0.07,0.87
0.5,-0.07,0.87
0.53,-0.09,0.87
0.57,-0.09,0.86
0.6,-0.1,0.89
0.6,-0.12,0.88
0.57,-0.12,0.87
0.57,-0.12,0.87
0.56,-0.14,0.86
0.56,-0.14,0.85
0.57,-0.14,0.84
0.56,-0.15,0.85
0.51,-0.15,0.87
0.47,-0.15,0.87
0.47,-0.15,0.88
0.48,-0.14,0.88
0.49,-0.14,0.87
0.52,-0.15,0.87
0.53,-0.15,0.88
0.54,-0.14,0.89
0.5,-0.15,0.87
0.44,-0.16,0.9
0.41,-0.16,0.93
0.48,-0.3,0.86
0.49,-0.29,0.83
0.47,-0.29,0.81
0.43,-0.3,0.79
0.43,-0.3,0.79
0.46,-0.3,0.82
0.47,-0.32,0.84
0.46,-0.35,0.83
0.44,-0.35,0.84
0.44,-0.42,0.78
0.47,-0.4,0.79
0.48,-0.37,0.82
0.47,-0.4,0.84
0.45,-0.42,0.83
0.43,-0.44,0.83
0.42,-0.47,0.83
0.41,-0.5,0.82
0.41,-0.52,0.8
0.39,-0.52,0.81
0.38,-0.52,0.84
0.39,-0.51,0.85
0.4,-0.52,0.85
0.43,-0.53,0.82
0.52,-0.58,0.79
0.58,-0.75,0.68
0.52,-0.9,0.6
0.47,-0.94,0.54
0.51,-1.03,0.53
0.5,-1.02,0.61
0.31,-1.06,0.66
0.32,-1.28,0.68
0.35,-1.29,0.55
0.33,-1.25,0.42
0.3,-1.19,0.43
0.22,-1.05,0.43
0.28,-1,0.48
0.2,-0.79,0.46
0.14,-0.73,0.45
0.11,-0.68,0.47
0.03,-0.63,0.54
-0.07,-0.6,0.69
-0.1,-0.55,0.77
-0.39,-1.5,0.45
-0.39,-1.5,0.45
-0.19,-1.28,0.38
0.19,-1.02,0.55
0.29,-0.88,0.61
0.08,-0.92,0.43
0.22,-0.98,0.47
0.23,-0.98,0.47
0.15,-0.95,0.46
0.1,-0.87,0.47
0.1,-0.79,0.57
0.13,-0.88,0.5
0.18,-0.88,0.48
0.16,-0.82,0.55
0.17,-0.79,0.64
0.23,-0.74,0.72
0.24,-0.69,0.68
0.19,-0.74,0.62
0.25,-0.82,0.62
0.3,-0.83,0.62
0.2,-0.9,0.63
0,-0.96,0.54
-0.08,-0.85,0.51
0.13,-0.65,0.69
0.35,-0.59,0.83
0.29,-0.69,0.8
0.13,-0.83,0.74
0.08,-0.91,0.63
0.12,-0.9,0.49
0.2,-0.87,0.41
0.26,-0.77,0.49
0.3,-0.71,0.6
0.4,-0.62,0.72
0.37,-0.63,0.75
0.21,-0.73,0.73
0.08,-0.8,0.71
0.11,-0.78,0.65
0.24,-0.74,0.63
0.33,-0.72,0.7
0.37,-0.75,0.72
0.37,-0.79,0.72
0.35,-0.8,0.67
0.28,-0.75,0.58
0.27,-0.68,0.57
0.34,-0.67,0.65
0.35,-0.71,0.72
0.35,-0.72,0.77
0.31,-0.76,0.81
0.27,-0.82,0.8
0.24,-0.84,0.76
0.22,-0.84,0.74
0.25,-0.87,0.78
0.25,-0.84,0.74
0.32,-0.78,0.73
0.44,-0.78,0.84
0.28,-1.16,1.08
0.29,-1.22,1.15
0,-1.28,1.15
-0.19,-1.21,0.96
-0.02,-1,0.76
0.12,-0.89,0.67
0.19,-0.88,0.67
0.28,-0.91,0.71
0.27,-0.9,0.71
0.2,-0.86,0.74
0.2,-0.84,0.67
0.23,-0.84,0.47
0.14,-0.84,0.23
0.01,-0.88,0.04
0.07,-0.99,-0.06
0.07,-1.07,-0.09
-0.03,-1.1,-0.14
-0.04,-1.09,-0.18
0,-1.06,-0.23
0,-1.06,-0.29
0,-1.05,-0.28
0.02,-1.04,-0.25
-0.03,-1.03,-0.26
-0.09,-1,-0.25
-0.12,-0.99,-0.23
-0.06,-1.08,-0.09
0,-1.12,-0.03
0.01,-1.11,0.02
0.04,-1.12,0.01
0.16,-1.11,0.02
0.19,-1.15,0
0.18,-1.18,-0.09
0.1,-1.11,-0.12
0.08,-1.07,-0.07
0.04,-1.08,-0.03
-0.05,-1.15,0.02
0.03,-1.23,0.11
0.14,-1.26,0.12
0.16,-1.19,0.1
0.1,-1.1,0.01
0.06,-1.25,-0.1
0.03,-1.36,-0.12
-0.02,-1.47,-0.1
0.06,-1.56,-0.11
0.08,-1.33,-0.02
0.07,-1.24,0.01
0,-1.13,0.09
-0.03,-1.16,0.03
-0.06,-1.14,0
-0.08,-1.12,-0.03
-0.02,-1.12,-0.07
0.05,-1.17,-0.1
0.06,-1.21,-0.1
0.02,-1.24,-0.12
-0.03,-1.26,-0.18
-0.07,-1.24,-0.22
-0.12,-1.23,-0.24
-0.17,-1.24,-0.25
-0.21,-1.23,-0.29
-0.27,-1.22,-0.32
-0.29,-1.2,-0.3
-0.25,-1.19,-0.28
-0.2,-1.22,-0.26
-0.19,-1.23,-0.25
-0.2,-1.17,-0.28
-0.18,-1.09,-0.32
-0.17,-1.06,-0.34
-0.14,-1.04,-0.33
-0.08,-1.05,-0.28
-0.01,-1.08,-0.18
0.03,-1.07,-0.1
0.03,-1.02,-0.06
0,-0.86,0.04
-0.05,-0.82,0.06
-0.06,-0.81,0.08
-0.06,-0.8,0.1
-0.06,-0.83,0.12
-0.05,-0.87,0.12
-0.03,-0.91,0.09
-0.01,-0.95,0.06
-0.01,-0.99,0.04
-0.05,-1.03,0.05
-0.11,-1.06,0.06
-0.19,-1.08,0.07
-0.25,-1.09,0.05
-0.29,-1.13,0.01
-0.33,-1.16,-0.05
-0.37,-1.18,-0.13
-0.37,-1.18,-0.19
-0.34,-1.18,-0.25
-0.32,-1.15,-0.28
-0.3,-1.12,-0.29
-0.3,-1.1,-0.3
-0.29,-1.07,-0.29
-0.29,-1.03,-0.29
-0.31,-1.01,-0.29
-0.33,-1,-0.3
-0.33,-0.99,-0.3
-0.32,-1.02,-0.34
-0.33,-1.05,-0.36
-0.3,-1.03,-0.36
-0.25,-0.99,-0.34
-0.17,-0.95,-0.31
-0.1,-0.94,-0.28
-0.06,-0.94,-0.26
-0.06,-0.96,-0.26
-0.06,-1,-0.28
-0.05,-1,-0.29
-0.05,-0.97,-0.3
-0.07,-0.93,-0.29
-0.07,-0.88,-0.26
-0.03,-0.84,-0.22
0.02,-0.8,-0.18
0.26,-1.2,-0.18
0.25,-1.15,-0.18
0.23,-1.09,-0.17
0.21,-1.04,-0.17
0.17,-0.99,-0.18
0.23,-0.84,-0.03
0.23,-0.84,-0.03
0.22,-0.84,-0.02
0.22,-0.83,-0.01
0.22,-0.79,0
0.21,-0.76,0.02
0.21,-0.74,0.04
0.22,-0.73,0.05
0.24,-0.72,0.06
0.25,-0.72,0.07
0.26,-0.74,0.06
0.29,-0.79,0.06
0.33,-0.82,0.03
0.35,-0.84,0.01
0.36,-0.85,-0.01
0.35,-0.88,-0.04
0.34,-0.91,-0.05
0.32,-0.91,-0.03
0.3,-0.93,-0.03
0.28,-0.94,-0.02
0.28,-0.94,-0.01
0.3,-0.93,-0.02
0.3,-0.92,-0.02
0.29,-0.91,-0.07
0.25,-0.84,-0.1
0.25,-0.8,-0.13
0.27,-0.75,-0.15
0.29,-0.71,-0.15
0.32,-0.68,-0.12
0.32,-0.66,-0.08
0.29,-0.65,-0.01
0.25,-0.67,0.09
0.24,-0.71,0.21
0.23,-0.76,0.31
0.18,-0.8,0.36
0.12,-0.86,0.33
0.09,-0.94,0.24
0.08,-1.05,0.15
0.12,-1.2,0.15
0.2,-1.37,0.22
0.27,-1.52,0.33
0.35,-1.61,0.43
0.41,-1.64,0.5
0.42,-1.66,0.53
0.39,-1.68,0.51
0.32,-1.7,0.47
0.22,-1.66,0.43
0.13,-1.59,0.36
0.07,-1.5,0.27
0.02,-1.42,0.23
-0.07,-1.24,0.26
-0.08,-1.14,0.3
-0.04,-1.03,0.33
-0.01,-0.93,0.34
0.03,-0.86,0.34
0.08,-0.8,0.35
0.12,-0.74,0.33
0.13,-0.67,0.29
0.15,-0.62,0.23
0.18,-0.6,0.19
0.22,-0.59,0.16
0.26,-0.59,0.14
0.29,-0.6,0.13
0.32,-0.62,0.12
0.35,-0.65,0.11
0.37,-0.69,0.09
0.39,-0.72,0.07
0.41,-0.75,0.05
0.42,-0.76,0.03
0.44,-0.76,0.01
0.47,-0.75,0
0.5,-0.75,-0.01
0.54,-0.75,-0.02
0.57,-0.75,-0.04
0.61,-0.76,-0.05
0.64,-0.78,-0.07
0.69,-0.79,-0.09
0.72,-0.8,-0.1
0.74,-0.79,-0.12
0.77,-0.79,-0.12
0.79,-0.77,-0.13
0.8,-0.77,-0.14
0.81,-0.78,-0.14
0.82,-0.79,-0.14
0.83,-0.81,-0.15
0.83,-0.85,-0.14
0.83,-0.89,-0.13
0.84,-0.93,-0.12
0.87,-0.98,-0.14
0.92,-1.05,-0.16
0.96,-1.16,-0.18
0.98,-1.28,-0.19
1,-1.38,-0.17
1.03,-1.44,-0.16
1.07,-1.46,-0.14
1.08,-1.46,-0.12
1.06,-1.44,-0.12
1.01,-1.44,-0.15
0.95,-1.48,-0.19
0.89,-1.52,-0.22
0.84,-1.56,-0.24
0.79,-1.59,-0.22
0.68,-1.59,-0.18
0.65,-1.6,-0.15
0.62,-1.59,-0.14
0.55,-1.53,-0.13
0.49,-1.44,-0.14
0.43,-1.33,-0.15
0.37,-1.25,-0.15
0.33,-1.16,-0.14
0.29,-1.09,-0.12
0.28,-1.02,-0.09
0.27,-0.95,-0.07
0.26,-0.89,-0.05
0.27,-0.86,-0.04
0.28,-0.83,-0.03
0.29,-0.81,-0.04
0.29,-0.79,-0.05
0.31,-0.76,-0.03
0.31,-0.74,-0.04
0.29,-0.73,-0.06
0.3,-0.71,-0.05
0.3,-0.7,-0.03
0.29,-0.68,0
0.3,-0.66,0.02
0.31,-0.64,0.03
0.32,-0.61,0.04
0.34,-0.59,0.06
0.35,-0.59,0.08
0.38,-0.6,0.1
0.39,-0.61,0.11
0.4,-0.61,0.13
0.42,-0.61,0.15
0.45,-0.62,0.16
0.48,-0.64,0.18
0.51,-0.68,0.19
0.53,-0.72,0.2
0.56,-0.76,0.2
0.59,-0.79,0.2
0.63,-0.83,0.19
0.66,-0.88,0.19
0.69,-0.93,0.19
0.72,-0.97,0.2
0.74,-1,0.22
0.77,-1.02,0.24
0.82,-1.03,0.27
0.85,-1.02,0.28
0.84,-0.97,0.29
0.81,-0.92,0.29
0.8,-0.87,0.27
0.79,-0.84,0.27
0.75,-0.81,0.27
0.7,-0.79,0.28
0.65,-0.77,0.27
0.62,-0.72,0.26
0.64,-0.73,0.26
0.67,-0.78,0.26
0.7,-0.84,0.26
0.71,-0.9,0.25
0.72,-0.95,0.24
0.73,-0.97,0.23
0.74,-0.98,0.21
0.74,-0.97,0.2
0.73,-0.96,0.19
0.71,-0.92,0.17
0.71,-0.88,0.16
0.72,-0.83,0.14
0.73,-0.79,0.14
0.75,-0.76,0.13
0.77,-0.73,0.12
0.78,-0.71,0.12
0.81,-0.69,0.11
0.84,-0.67,0.11
0.86,-0.67,0.1
0.88,-0.65,0.09
0.89,-0.63,0.09
0.91,-0.61,0.1
0.93,-0.58,0.1
0.95,-0.56,0.11
0.96,-0.53,0.13
0.95,-0.47,0.14
0.95,-0.44,0.15
0.94,-0.41,0.15
0.93,-0.38,0.17
0.91,-0.37,0.18
0.89,-0.36,0.19
0.87,-0.35,0.2
0.86,-0.36,0.21
0.85,-0.37,0.22
0.85,-0.39,0.22
0.84,-0.4,0.23
0.81,-0.42,0.23
0.8,-0.43,0.22
0.83,-0.43,0.21
0.88,-0.44,0.21
0.93,-0.5,0.2
0.97,-0.56,0.18
1.02,-0.64,0.16
1.06,-0.71,0.16
1.08,-0.77,0.17
1.07,-0.81,0.19
1.03,-0.81,0.21
0.99,-0.78,0.23
0.96,-0.73,0.24
0.95,-0.71,0.25
0.96,-0.73,0.25
0.96,-0.85,0.25
0.94,-0.91,0.25
0.93,-0.94,0.24
0.91,-0.95,0.24
0.86,-0.93,0.25
0.8,-0.88,0.27
0.74,-0.83,0.28
0.69,-0.78,0.29
0.67,-0.73,0.28
0.66,-0.69,0.27
0.65,-0.65,0.25
0.63,-0.63,0.24
0.62,-0.6,0.23
0.61,-0.57,0.22
0.62,-0.53,0.21
0.64,-0.51,0.21
0.64,-0.5,0.23
0.64,-0.5,0.25
0.65,-0.5,0.27
0.67,-0.49,0.27
0.69,-0.49,0.27
0.71,-0.48,0.27
0.74,-0.47,0.28
0.77,-0.45,0.28
0.81,-0.43,0.28
0.82,-0.42,0.29
0.81,-0.41,0.31
0.76,-0.37,0.31
0.75,-0.35,0.3
0.73,-0.34,0.32
0.74,-0.33,0.34
0.78,-0.33,0.37
0.82,-0.34,0.41
0.82,-0.35,0.44
0.79,-0.33,0.44
0.73,-0.29,0.41
0.71,-0.22,0.39
0.75,-0.18,0.38
0.79,-0.16,0.4
0.77,-0.16,0.43
0.7,-0.16,0.47
0.67,-0.12,0.52
0.7,-0.08,0.58
0.76,-0.04,0.62
0.83,-0.03,0.64
0.84,-0.03,0.65
0.81,-0.04,0.68
0.79,-0.06,0.68
0.8,-0.08,0.68
0.77,-0.1,0.72
0.74,-0.1,0.74
0.7,-0.07,0.76
0.66,-0.03,0.73
0.65,0.05,0.74
0.66,0.06,0.78
0.65,0.07,0.84
0.6,0.08,0.87
0.54,0.09,0.86
0.51,0.1,0.83
0.52,0.13,0.79
0.54,0.17,0.77
0.51,0.19,0.78
0.44,0.22,0.82
0.4,0.24,0.89
0.38,0.25,0.96
0.39,0.25,1.03
0.41,0.23,1.08
0.43,0.21,1.09
0.42,0.21,1.05
0.36,0.23,0.99
0.29,0.25,0.94
0.22,0.27,0.92
0.17,0.29,0.92
0.13,0.31,0.92
0.14,0.31,0.95
0.19,0.32,1.01
0.21,0.31,1.05
0.24,0.3,1.08
0.23,0.29,1.1
0.07,0.28,1.06
-0.01,0.29,1.02
-0.06,0.31,0.98
-0.06,0.32,0.97
-0.02,0.33,1
0.03,0.34,1.05
0.05,0.32,1.12
0.06,0.31,1.19
0.03,0.32,1.22
0.01,0.33,1.23
-0.01,0.34,1.2
-0.03,0.34,1.14
-0.08,0.34,1.07
-0.13,0.33,1
-0.16,0.32,0.96
-0.16,0.32,0.95
-0.15,0.29,0.96
-0.09,0.28,0.97
-0.04,0.26,0.97
-0.05,0.24,0.95
-0.05,0.28,0.9
-0.09,0.29,0.89
-0.1,0.32,0.91
-0.09,0.33,0.9
-0.08,0.32,0.91
-0.08,0.31,0.88
-0.03,0.3,0.84
0,0.33,0.8
-0.02,0.33,0.8
-0.06,0.33,0.82
-0.08,0.33,0.85
-0.08,0.3,0.88
-0.02,0.29,0.91
-0.02,0.27,0.95
-0.05,0.26,0.95
-0.07,0.27,0.94
-0.07,0.29,0.94
-0.03,0.3,0.93
0.01,0.31,0.92
0.04,0.32,0.92
0.04,0.32,0.92
0.05,0.32,0.93
0.04,0.34,0.96
0.02,0.36,0.96
0.03,0.38,0.96
0.05,0.39,0.96
0.07,0.38,0.96
0.09,0.4,0.93
0.09,0.42,0.9
0.04,0.41,0.88
0,0.4,0.87
0,0.41,0.89
-0.02,0.38,0.92
0.01,0.37,0.95
0.03,0.34,0.98
0.05,0.32,0.99
0.07,0.31,0.96
0.07,0.32,0.92
0.06,0.33,0.87
0.03,0.35,0.85
-0.01,0.37,0.85
-0.04,0.38,0.85
-0.06,0.37,0.86
-0.09,0.37,0.87
-0.11,0.39,0.86
-0.11,0.42,0.84
-0.1,0.44,0.83
-0.1,0.45,0.83
-0.09,0.45,0.85
-0.08,0.45,0.89
-0.09,0.44,0.9
-0.1,0.42,0.94
-0.09,0.45,0.96
-0.07,0.5,1.01
