Acc_x,Acc_y,Acc_z
0,0,0
0,0,0
0,0,0
0,0,0
0,0,0
0,0,0
0,0,0
0,0,0
0,0,0
0,0,0
0,0,0
0,0,0
0,0,0
0,0,0
0,0,0
0,0,0
0,0,0
0,0,0
0,0,0
0,0,0
0,0,0
0,0,0
0,0,0
0,0,0
0,0,0
0,0,0
0,0,0
0,0,0
0,0,0
0,0,0
0,0,0
0,0,0
0,0,0
0,0,0
0,0,0
0,0,0
0,0,0
0,0,0
0,0,0
0,0,0
0,0,0
0,0,0
0,0,0
0,0,0
0,0,0
0,0,0
0,0,0
0,0,0
0,0,0
0,0,0
0,0,0
0,0,0
0,0,0
0,0,0
0,0,0
0,0,0
0,0,0
0,0,0
0,0,0
0,0,0
0,0,0
0,0,0
0,0,0
0,0,0
0,0,0
0,0,0
0,0,0
0,0,0
0,0,0
0,0,0
0,0,0
0,0,0
0,0,0
0,0,0
0,0,0
0,0,0
0,0,0
0,0,0
0,0,0
0,0,0
0,0,0
0,0,0
0,0,0
0,0,0
0,0,0
0,0,0
0,0,0
0,0,0
0,0,0
0,0,0
0,0,0
0,0,0
0,0,0
0,0,0
0,0,0
0,0,0
0,0,0
0,0,0
0,0,0
0,0,0
0,0,0
0,0,0
0,0,0
0,0,0
0,0,0
0,0,0
0,0,0
0,0,0
0,0,0
0,0,0
0,0,0
0,0,0
0,0,0
0,0,0
0,0,0
0,0,0
0,0,0
0,0,0
0,0,0
0,0,0
0,0,0
0,0,0
0,0,0
0,0,0
0,0,0
0,0,0
0,0,0
0,0,0
0,0,0
0,0,0
0,0,0
0,0,0
0,0,0
0,0,0
0,0,0
0,0,0
0,0,0
0,0,0
0,0,0
0,0,0
0,0,0
0,0,0
0,0,0
0,0,0
0,0,0
0,0,0
0,0,0
0,0,0
0,0,0
0,0,0
0,0,0
0,0,0
0,0,0
0,0,0
0,0,0
0,0,0
0,0,0
0,0,0
0,0,0
0,0,0
0,0,0
0,0,0
0,0,0
0,0,0
0,0,0
0,0,0
0,0,0
0,0,0
0,0,0
0,0,0
0,0,0
0,0,0
0,0,0
0,0,0
0,0,0
0,0,0
0,0,0
0,0,0
0,0,0
0,0,0
0,0,0
0,0,0
0,0,0
0,0,0
0,0,0
0,0,0
0,0,0
0,0,0
0,0,0
0,0,0
0,0,0
0,0,0
0,0,0
0,0,0
0,0,0
0,0,0
0,0,0
0,0,0
0,0,0
0,0,0
0,0,0
0,0,0
0,0,0
0,0,0
0,0,0
0,0,0
0,0,0
0,0,0
0,0,0
0,0,0
0,0,0
0,0,0
0,0,0
0,0,0
0,0,0
0,0,0
0,0,0
0,0,0
0,0,0
0,0,0
0,0,0
0,0,0
0,0,0
0,0,0
0,0,0
0,0,0
0,0,0
0,0,0
0,0,0
0,0,0
0,0,0
0,0,0
0,0,0
0,0,0
0,0,0
0,0,0
0,0,0
0,0,0
0,0,0
0,0,0
0,0,0
0,0,0
0,0,0
0,0,0
0,0,0
0,0,0
0,0,0
0,0,0
0,0,0
0,0,0
0,0,0
0,0,0
0,0,0
0,0,0
0,0,0
0,0,0
0,0,0
0,0,0
0,0,0
0,0,0
0,0,0
0,0,0
0,0,0
0,0,0
0,0,0
0,0,0
0,0,0
0,0,0
0,0,0
0,0,0
0,0,0
0,0,0
0,0,0
0,0,0
0,0,0
0,0,0
0,0,0
0,0,0
0,0,0
0,0,0
0,0,0
0,0,0
0,0,0
0,0,0
0,0,0
0,0,0
0,0,0
0,0,0
0,0,0
0,0,0
0,0,0
0,0,0
0,0,0
0,0,0
0,0,0
0,0,0
0,0,0
0,0,0
0,0,0
0,0,0
0,0,0
0,0,0
0,0,0
0,0,0
0,0,0
0,0,0
0,0,0
0,0,0
0,0,0
0,0,0
0,0,0
0,0,0
0,0,0
0,0,0
0,0,0
0,0,0
0,0,0
0,0,0
0,0,0
0,0,0
0,0,0
0,0,0
0,0,0
0,0,0
0,0,0
0,0,0
0,0,0
0,0,0
0,0,0
0,0,0
0,0,0
0,0,0
0,0,0
0,0,0
0,0,0
0,0,0
0,0,0
0,0,0
0,0,0
0,0,0
0,0,0
0,0,0
0,0,0
0,0,0
0,0,0
0,0,0
0,0,0
0,0,0
0,0,0
0,0,0
0,0,0
0,0,0
0,0,0
0,0,0
0,0,0
0,0,0
0,0,0
0,0,0
0,0,0
0,0,0
0,0,0
0,0,0
0,0,0
0,0,0
0,0,0
0,0,0
0,0,0
0,0,0
0,0,0
0,0,0
0,0,0
0,0,0
0,0,0
0,0,0
0,0,0
0,0,0
0,0,0
0,0,0
0,0,0
0,0,0
0,0,0
0,0,0
0,0,0
0,0,0
0,0,0
0,0,0
0,0,0
0,0,0
0,0,0
0,0,0
0,0,0
0,0,0
0,0,0
0,0,0
0,0,0
0,0,0
0,0,0
0,0,0
0,0,0
0,0,0
0,0,0
0,0,0
0,0,0
0,0,0
0,0,0
0,0,0
0,0,0
0,0,0
0,0,0
0,0,0
0,0,0
0,0,0
0,0,0
0,0,0
0,0,0
0,0,0
0,0,0
0,0,0
0,0,0
0,0,0
0,0,0
0,0,0
0,0,0
0,0,0
0,0,0
0,0,0
0,0,0
0,0,0
0,0,0
0,0,0
0,0,0
0,0,0
0,0,0
0,0,0
0,0,0
0,0,0
0,0,0
0,0,0
0,0,0
0,0,0
0,0,0
0,0,0
0,0,0
0,0,0
0,0,0
0,0,0
0,0,0
0,0,0
0,0,0
0,0,0
0,0,0
0,0,0
0,0,0
0,0,0
0,0,0
0,0,0
0,0,0
0,0,0
0,0,0
0,0,0
0,0,0
0,0,0
0,0,0
0,0,0
0,0,0
0,0,0
0,0,0
0,0,0
0,0,0
0,0,0
0,0,0
0,0,0
0,0,0
0,0,0
0,0,0
0,0,0
0,0,0
0,0,0
0,0,0
0,0,0
0,0,0
0,0,0
0,0,0
0,0,0
0,0,0
0,0,0
0,0,0
0,0,0
0,0,0
0,0,0
0,0,0
0,0,0
0,0,0
0,0,0
0,0,0
0,0,0
0,0,0
0,0,0
0,0,0
0,0,0
0,0,0
0,0,0
0,0,0
0,0,0
0,0,0
0,0,0
0,0,0
0,0,0
0,0,0
0,0,0
0,0,0
0,0,0
0,0,0
0,0,0
0,0,0
0,0,0
0,0,0
0,0,0
0,0,0
0,0,0
0,0,0
0,0,0
0,0,0
0,0,0
0,0,0
0,0,0
0,0,0
0,0,0
0,0,0
0,0,0
0,0,0
0,0,0
0,0,0
0,0,0
0,0,0
0,0,0
0,0,0
0,0,0
0,0,0
0,0,0
0,0,0
0,0,0
0,0,0
0,0,0
0,0,0
0,0,0
0,0,0
0,0,0
0,0,0
0,0,0
0,0,0
0,0,0
0,0,0
0,0,0
0,0,0
0,0,0
0,0,0
0,0,0
0,0,0
0,0,0
0,0,0
0,0,0
0,0,0
0,0,0
0,0,0
0,0,0
0,0,0
0,0,0
0,0,0
0,0,0
0,0,0
0,0,0
0,0,0
0,0,0
0,0,0
0,0,0
0,0,0
0,0,0
0,0,0
0,0,0
0,0,0
0,0,0
0,0,0
0,0,0
0,0,0
0,0,0
0,0,0
0,0,0
0,0,0
0,0,0
0,0,0
0,0,0
0,0,0
0,0,0
0,0,0
0,0,0
0,0,0
0,0,0
0,0,0
0,0,0
0,0,0
0,0,0
0,0,0
0,0,0
0,0,0
0,0,0
0,0,0
0,0,0
0,0,0
0,0,0
0,0,0
0,0,0
0,0,0
0,0,0
0,0,0
0,0,0
0,0,0
0,0,0
0,0,0
0,0,0
0,0,0
0,0,0
0,0,0
0,0,0
0,0,0
0,0,0
0,0,0
0,0,0
0,0,0
0,0,0
0,0,0
0,0,0
0,0,0
0,0,0
0,0,0
0,0,0
0,0,0
0,0,0
0,0,0
0,0,0
0,0,0
0,0,0
0,0,0
0,0,0
0,0,0
0,0,0
0,0,0
0,0,0
0,0,0
0,0,0
0,0,0
0,0,0
0,0,0
0,0,0
0,0,0
0,0,0
0,0,0
0,0,0
0,0,0
0,0,0
0,0,0
0,0,0
0,0,0
0,0,0
0,0,0
0,0,0
0,0,0
0,0,0
0,0,0
0,0,0
0,0,0
0,0,0
0,0,0
0,0,0
0,0,0
0,0,0
0,0,0
0,0,0
0,0,0
0,0,0
0,0,0
0,0,0
0,0,0
0,0,0
0,0,0
0,0,0
0,0,0
0,0,0
0,0,0
0,0,0
0,0,0
0,0,0
0,0,0
0,0,0
0,0,0
0,0,0
0,0,0
0,0,0
0,0,0
0,0,0
0,0,0
0,0,0
0,0,0
0,0,0
0,0,0
0,0,0
0,0,0
0,0,0
0,0,0
0,0,0
0,0,0
0,0,0
0,0,0
0,0,0
0,0,0
0,0,0
0,0,0
0,0,0
0,0,0
0,0,0
0,0,0
0,0,0
0,0,0
0,0,0
0,0,0
0,0,0
0,0,0
0,0,0
0,0,0
0,0,0
0,0,0
0,0,0
0,0,0
0,0,0
0,0,0
0.15,0.37,0.91
0.15,0.37,0.91
0.16,0.37,0.91
0.16,0.37,0.91
0.15,0.37,0.91
0.15,0.37,0.91
0.16,0.37,0.92
0.16,0.37,0.92
0.15,0.37,0.93
0.16,0.37,0.93
0.16,0.37,0.93
0.16,0.37,0.92
0.16,0.37,0.92
0.16,0.37,0.91
0.16,0.37,0.91
0.16,0.37,0.92
0.16,0.37,0.91
0.16,0.37,0.91
0.15,0.37,0.91
0.15,0.37,0.91
0.15,0.37,0.91
0.15,0.37,0.92
0.15,0.37,0.92
0.16,0.37,0.92
0.16,0.37,0.92
0.16,0.37,0.92
0.16,0.37,0.91
0.16,0.37,0.91
0.16,0.37,0.92
0.16,0.37,0.92
0.16,0.38,0.92
0.16,0.38,0.91
0.16,0.37,0.91
0.16,0.38,0.91
0.16,0.38,0.91
0.16,0.37,0.91
0.16,0.37,0.92
0.16,0.37,0.92
0.15,0.37,0.92
0.15,0.37,0.91
0.15,0.38,0.91
0.15,0.38,0.91
0.16,0.38,0.91
0.16,0.38,0.92
0.15,0.38,0.92
0.16,0.38,0.92
0.16,0.38,0.92
0.16,0.38,0.91
0.16,0.38,0.91
0.17,0.38,0.92
0.16,0.38,0.92
0.17,0.38,0.92
0.17,0.38,0.91
0.16,0.38,0.91
0.17,0.39,0.91
0.17,0.39,0.91
0.16,0.39,0.9
0.16,0.39,0.9
0.16,0.39,0.9
0.15,0.39,0.9
0.16,0.39,0.89
0.16,0.39,0.9
0.16,0.39,0.9
0.16,0.4,0.89
0.17,0.41,0.89
0.16,0.4,0.89
0.16,0.39,0.9
0.16,0.39,0.9
0.16,0.4,0.9
0.16,0.4,0.9
0.16,0.4,0.9
0.16,0.4,0.9
0.16,0.4,0.9
0.16,0.4,0.9
0.17,0.4,0.9
0.17,0.4,0.9
0.17,0.4,0.91
0.17,0.4,0.9
0.17,0.4,0.9
0.17,0.4,0.9
0.17,0.4,0.9
0.17,0.4,0.9
0.17,0.41,0.9
0.17,0.41,0.89
0.17,0.41,0.9
0.17,0.4,0.9
0.18,0.4,0.9
0.18,0.41,0.9
0.17,0.4,0.9
0.17,0.4,0.9
0.18,0.41,0.91
0.17,0.4,0.91
0.17,0.4,0.91
0.17,0.4,0.91
0.18,0.41,0.9
0.18,0.4,0.91
0.18,0.41,0.91
0.18,0.41,0.91
0.18,0.41,0.91
0.19,0.41,0.9
0.18,0.42,0.9
0.19,0.42,0.9
0.19,0.4,0.9
0.19,0.41,0.9
0.2,0.43,0.9
0.19,0.41,0.9
0.21,0.41,0.89
0.21,0.42,0.9
0.2,0.42,0.89
0.2,0.42,0.88
0.21,0.42,0.88
0.22,0.42,0.88
0.22,0.42,0.88
0.22,0.42,0.88
0.23,0.43,0.88
0.23,0.43,0.88
0.22,0.42,0.88
0.22,0.42,0.89
0.23,0.43,0.88
0.23,0.43,0.87
0.23,0.43,0.86
0.23,0.43,0.86
0.23,0.43,0.86
0.23,0.43,0.86
0.23,0.44,0.86
0.24,0.44,0.87
0.25,0.44,0.87
0.24,0.44,0.87
0.23,0.45,0.86
0.22,0.46,0.87
0.23,0.46,0.86
0.24,0.46,0.86
0.23,0.46,0.86
0.24,0.47,0.85
0.24,0.47,0.84
0.24,0.47,0.84
0.24,0.48,0.83
0.24,0.48,0.83
0.24,0.48,0.84
0.26,0.48,0.83
0.26,0.49,0.84
0.25,0.49,0.84
0.25,0.49,0.84
0.26,0.49,0.84
0.27,0.49,0.83
0.28,0.49,0.83
0.28,0.49,0.83
0.3,0.5,0.83
0.3,0.5,0.82
0.3,0.5,0.82
0.3,0.51,0.82
0.31,0.51,0.84
0.31,0.51,0.85
0.31,0.51,0.85
0.31,0.53,0.82
0.3,0.53,0.82
0.31,0.52,0.81
0.32,0.53,0.79
0.31,0.54,0.8
0.29,0.56,0.8
0.34,0.55,0.8
0.36,0.51,0.83
0.35,0.52,0.78
0.35,0.55,0.77
0.34,0.55,0.8
0.36,0.58,0.72
0.4,0.62,0.67
0.38,0.62,0.7
0.36,0.62,0.7
0.35,0.67,0.65
0.36,0.7,0.65
0.43,0.74,0.62
0.4,0.73,0.59
0.36,0.74,0.58
0.4,0.76,0.54
0.4,0.78,0.54
0.38,0.78,0.56
0.43,0.8,0.54
0.43,0.81,0.53
0.36,0.81,0.58
0.37,0.8,0.58
0.43,0.8,0.6
0.4,0.78,0.59
0.42,0.74,0.56
0.41,0.75,0.53
0.35,0.74,0.56
0.37,0.74,0.57
0.42,0.74,0.53
0.4,0.75,0.55
0.4,0.77,0.52
0.45,0.76,0.46
0.45,0.75,0.44
0.43,0.73,0.47
0.45,0.72,0.45
0.45,0.72,0.4
0.45,0.7,0.43
0.45,0.69,0.47
0.43,0.68,0.46
0.41,0.68,0.43
0.26,0.71,0.51
0.36,0.68,0.49
0.6,0.68,0.36
0.49,0.76,0.37
0.22,0.68,0.64
0.41,0.75,0.59
0.47,0.83,0.48
0.03,0.6,0.53
0.77,0.88,0.29
0.87,0.81,0.46
0.87,0.57,0.51
0.64,0.65,0.31
0.46,0.9,0.29
0.49,0.82,0.21
0.57,0.65,0.06
0.59,0.69,0.03
0.42,0.86,0.09
0.46,0.83,0.12
0.51,0.77,0.11
0.49,0.77,0.14
0.49,0.79,0.1
0.53,0.83,0.05
0.49,0.84,0.04
0.4,0.85,0.07
0.42,0.86,0.08
0.48,0.88,0.09
0.54,0.85,0.03
0.55,0.85,-0.05
0.53,0.85,0.01
0.5,0.84,0.11
0.51,0.85,0.15
0.52,0.85,0.09
0.46,0.84,0.09
0.46,0.88,0.09
0.49,0.88,0.07
0.46,0.89,0.07
0.46,0.89,0.07
0.45,0.87,0.03
0.44,0.86,0.05
0.44,0.86,0.05
0.41,0.84,0.05
0.4,0.84,0.06
0.41,0.85,0.06
0.43,0.87,0.07
0.49,0.9,0.06
0.52,0.91,0.02
0.51,0.92,-0.03
0.5,0.91,-0.04
0.5,0.9,-0.01
0.46,0.91,0
0.44,0.91,0.05
0.46,0.89,0.07
0.44,0.89,0.02
0.44,0.89,0.01
0.44,0.89,0.01
0.47,0.89,0.01
0.47,0.9,0
0.46,0.91,-0.02
0.46,0.9,0.01
0.45,0.89,-0.03
0.47,0.88,0
0.46,0.89,-0.02
0.5,0.87,-0.08
0.49,0.87,-0.12
0.46,0.86,-0.09
0.41,0.84,-0.1
0.41,0.83,-0.11
0.45,0.84,-0.14
0.46,0.85,-0.16
0.47,0.84,-0.19
0.43,0.84,-0.21
0.4,0.84,-0.22
0.4,0.85,-0.2
0.42,0.85,-0.21
0.41,0.83,-0.26
0.4,0.83,-0.25
0.39,0.84,-0.29
0.37,0.85,-0.33
0.35,0.84,-0.33
0.36,0.83,-0.33
0.39,0.83,-0.33
0.39,0.82,-0.32
0.39,0.82,-0.33
0.39,0.82,-0.35
0.38,0.82,-0.37
0.39,0.82,-0.35
0.4,0.83,-0.37
0.37,0.83,-0.39
0.34,0.82,-0.39
0.33,0.83,-0.37
0.33,0.85,-0.38
0.35,0.86,-0.39
0.37,0.87,-0.39
0.36,0.85,-0.4
0.34,0.83,-0.37
0.36,0.83,-0.39
0.35,0.84,-0.42
0.34,0.84,-0.41
0.35,0.84,-0.42
0.32,0.84,-0.41
0.32,0.83,-0.41
0.35,0.85,-0.42
0.31,0.81,-0.42
0.33,0.81,-0.46
0.41,0.85,-0.46
0.38,0.83,-0.42
0.33,0.83,-0.43
0.32,0.82,-0.43
0.31,0.81,-0.45
0.32,0.82,-0.44
0.34,0.83,-0.42
0.36,0.8,-0.45
0.35,0.81,-0.42
0.41,0.78,-0.38
0.42,0.79,-0.4
0.35,0.79,-0.4
0.35,0.81,-0.42
0.31,0.84,-0.4
0.31,0.81,-0.41
0.35,0.82,-0.45
0.36,0.8,-0.45
0.34,0.8,-0.42
0.37,0.8,-0.44
0.43,0.77,-0.46
0.41,0.74,-0.46
0.32,0.75,-0.48
0.29,0.78,-0.5
0.3,0.78,-0.53
0.31,0.81,-0.53
0.29,0.79,-0.45
0.35,0.77,-0.46
0.41,0.79,-0.51
0.45,0.76,-0.53
0.45,0.75,-0.51
0.39,0.75,-0.49
0.41,0.78,-0.51
0.47,0.78,-0.5
0.48,0.77,-0.49
0.45,0.78,-0.48
0.51,0.81,-0.52
0.43,0.86,-0.48
0.44,0.84,-0.51
0.45,0.76,-0.62
0.3,0.73,-0.57
0.4,0.75,-0.49
0.4,0.81,-0.46
0.39,0.79,-0.48
0.32,0.78,-0.46
0.25,0.79,-0.45
0.25,0.72,-0.47
0.22,0.71,-0.47
0.28,0.76,-0.48
0.32,0.79,-0.47
0.35,0.8,-0.48
0.37,0.83,-0.48
0.36,0.81,-0.46
0.36,0.78,-0.47
0.37,0.76,-0.44
0.39,0.78,-0.44
0.4,0.79,-0.46
0.41,0.8,-0.46
0.42,0.82,-0.46
0.41,0.81,-0.49
0.39,0.78,-0.49
0.35,0.78,-0.49
0.34,0.78,-0.48
0.37,0.79,-0.49
0.37,0.8,-0.48
0.36,0.8,-0.46
0.38,0.79,-0.42
0.43,0.81,-0.43
0.39,0.84,-0.45
0.35,0.74,-0.5
0.33,0.72,-0.41
0.28,0.79,-0.25
0.27,0.78,-0.34
0.33,0.82,-0.43
0.39,0.86,-0.43
0.41,0.82,-0.4
0.33,0.71,-0.29
0.31,0.77,-0.32
0.24,0.92,-0.4
0.23,0.92,-0.35
0.35,0.84,-0.36
0.36,0.8,-0.4
0.34,0.8,-0.39
0.33,0.8,-0.36
0.16,0.83,-0.15
0.04,0.87,-0.31
0.5,0.86,-0.28
0.53,0.81,-0.33
0.43,0.86,-0.34
0.39,0.84,-0.32
0.38,0.8,-0.37
0.41,0.79,-0.31
0.4,0.8,-0.22
0.61,0.87,0.09
0.67,0.92,0.08
0.5,0.87,-0.29
0.49,0.85,-0.31
0.44,0.84,-0.27
0.44,0.84,-0.25
0.43,0.81,-0.25
0.43,0.79,-0.26
0.45,0.83,-0.26
0.44,0.87,-0.27
0.41,0.89,-0.28
0.42,0.85,-0.32
0.45,0.86,-0.31
0.47,0.84,-0.28
0.48,0.81,-0.26
0.49,0.86,-0.27
0.49,0.81,-0.31
0.49,0.77,-0.28
0.48,0.79,-0.21
0.5,0.87,-0.22
0.5,0.81,-0.19
0.46,0.8,-0.16
0.5,0.85,-0.27
0.61,0.81,-0.1
0.49,0.75,0.02
0.5,0.78,-0.14
0.59,0.78,-0.2
0.56,0.8,-0.12
0.58,0.85,-0.12
0.61,0.79,-0.19
0.61,0.81,-0.2
0.59,0.83,-0.17
0.57,0.83,-0.13
0.55,0.84,-0.13
0.58,0.82,-0.14
0.59,0.83,-0.12
0.6,0.84,-0.15
0.66,0.8,-0.17
0.59,0.75,-0.14
0.47,0.82,-0.13
0.3,0.88,-0.11
0.33,0.86,-0.05
0.54,0.83,-0.01
0.57,0.82,-0.05
0.53,0.8,-0.01
0.5,0.79,-0.1
0.25,0.79,0.21
0.23,0.95,0.23
0.56,0.92,-0.06
0.62,0.79,-0.18
0.51,0.86,-0.12
0.52,0.93,-0.02
0.45,0.83,0.07
0.39,0.78,0.09
0.56,0.77,0.09
0.66,0.74,0.09
0.62,0.81,0.12
0.62,0.86,0.1
0.66,0.86,0.06
0.66,0.85,0.05
0.63,0.81,0.02
0.61,0.72,-0.02
0.6,0.67,-0.02
0.61,0.74,0.03
0.58,0.76,0.08
0.57,0.79,0.12
0.56,0.82,0.13
0.55,0.82,0.13
0.57,0.83,0.15
0.57,0.83,0.14
0.55,0.83,0.07
0.54,0.82,0.03
0.56,0.81,0.04
0.55,0.83,0.06
0.57,0.81,0.08
0.6,0.8,0.1
0.61,0.8,0.12
0.63,0.79,0.1
0.64,0.78,0.08
0.65,0.81,0.09
0.66,0.78,0.07
0.65,0.76,0.05
0.6,0.79,0.05
0.58,0.79,0.04
0.59,0.79,0.04
0.62,0.81,0.05
0.63,0.82,0.08
0.63,0.81,0.1
0.63,0.8,0.11
0.63,0.8,0.1
0.61,0.8,0.1
0.61,0.8,0.08
0.62,0.8,0.06
0.62,0.81,0.05
0.6,0.81,0.04
0.6,0.81,0.06
0.63,0.8,0.09
0.65,0.79,0.12
0.65,0.76,0.11
0.63,0.75,0.1
0.62,0.77,0.08
0.59,0.77,0.04
0.53,0.78,0.03
0.51,0.8,0.05
0.69,0.72,0.09
0.71,0.66,0.09
0.52,0.72,0.09
0.56,0.78,0.15
0.59,0.76,0.14
0.58,0.75,0.13
0.58,0.77,0.12
0.58,0.73,0.12
0.58,0.73,0.11
0.57,0.75,0.12
0.58,0.75,0.14
0.56,0.77,0.16
0.57,0.78,0.17
0.6,0.76,0.17
0.61,0.76,0.18
0.62,0.76,0.18
0.64,0.75,0.16
0.65,0.74,0.16
0.66,0.74,0.17
0.64,0.72,0.18
0.8,0.73,0.21
0.71,0.71,0.19
0.62,0.72,0.18
0.67,0.71,0.19
0.64,0.74,0.21
0.62,0.76,0.22
0.6,0.74,0.21
0.6,0.74,0.2
0.64,0.75,0.16
0.64,0.77,0.16
0.6,0.75,0.16
0.59,0.72,0.15
0.58,0.69,0.16
0.58,0.73,0.2
0.57,0.76,0.23
0.58,0.69,0.23
0.63,0.68,0.25
0.65,0.72,0.26
0.65,0.72,0.24
0.68,0.68,0.21
0.72,0.71,0.2
0.76,0.76,0.2
0.76,0.73,0.18
0.76,0.7,0.16
0.75,0.67,0.13
0.72,0.64,0.06
0.68,0.71,-0.05
0.64,0.71,0.04
0.71,0.73,0.14
0.8,0.71,0.07
0.82,0.69,0.07
0.8,0.68,0.07
0.81,0.67,0.06
0.84,0.66,0.05
0.87,0.65,0.03
0.89,0.64,0.03
0.9,0.61,0.03
0.91,0.59,0.02
0.92,0.56,0.02
0.96,0.54,0.03
1.01,0.53,0.04
1.04,0.49,0.06
1.08,0.42,0.06
1.2,0.41,0.02
1.25,0.39,-0.02
1.19,0.34,-0.02
1.19,0.31,-0.01
1.23,0.29,-0.02
1.23,0.28,-0.02
1.2,0.27,-0.01
1.19,0.24,0.02
1.16,0.19,0.06
1.1,0.13,0.07
1.14,0.1,0.06
1.11,0.04,0.04
1.03,-0.04,0.05
0.98,-0.07,0.05
0.93,-0.1,0.04
0.9,-0.14,0.05
0.89,-0.16,0.05
0.84,-0.16,0.07
0.79,-0.19,0.11
0.69,-0.29,0.17
0.64,-0.34,0.19
0.7,-0.37,0.15
0.73,-0.38,0.13
0.72,-0.37,0.13
0.65,-0.44,0.08
0.63,-0.51,0.03
0.71,-0.54,0.03
0.81,-0.61,0.05
0.8,-0.64,0.09
0.78,-0.59,0.12
0.77,-0.53,0.15
0.69,-0.53,0.18
0.61,-0.56,0.21
0.62,-0.57,0.22
0.6,-0.56,0.21
0.59,-0.53,0.2
0.6,-0.53,0.19
0.61,-0.54,0.17
0.62,-0.54,0.17
0.63,-0.55,0.17
0.63,-0.56,0.18
0.63,-0.56,0.19
0.64,-0.56,0.19
0.65,-0.55,0.19
0.68,-0.54,0.2
0.7,-0.54,0.21
0.7,-0.55,0.23
0.68,-0.55,0.24
0.67,-0.55,0.24
0.65,-0.56,0.24
0.66,-0.56,0.24
0.67,-0.57,0.25
0.68,-0.59,0.26
0.69,-0.6,0.27
0.71,-0.6,0.29
0.73,-0.62,0.3
0.73,-0.64,0.3
0.71,-0.64,0.29
0.7,-0.65,0.28
0.69,-0.67,0.28
0.67,-0.69,0.27
0.62,-0.69,0.26
0.62,-0.7,0.25
0.64,-0.73,0.24
0.67,-0.77,0.24
0.69,-0.81,0.25
0.68,-0.83,0.24
0.65,-0.85,0.24
0.63,-0.85,0.23
0.61,-0.86,0.22
0.6,-0.91,0.21
0.59,-0.97,0.2
0.59,-1.03,0.17
0.59,-1.08,0.15
0.58,-1.11,0.13
0.57,-1.13,0.1
0.55,-1.13,0.08
0.53,-1.13,0.06
0.52,-1.15,0.04
0.51,-1.18,0.02
0.51,-1.21,0.01
0.5,-1.23,-0.01
0.5,-1.23,-0.03
0.51,-1.22,-0.04
0.52,-1.21,-0.04
0.51,-1.22,-0.03
0.51,-1.23,-0.01
0.5,-1.27,0
0.49,-1.31,-0.01
0.47,-1.32,-0.02
0.45,-1.3,-0.03
0.42,-1.24,-0.04
0.4,-1.18,-0.06
0.4,-1.11,-0.08
0.39,-1.04,-0.09
0.38,-0.98,-0.08
0.41,-0.98,-0.07
0.42,-1,-0.06
0.4,-1,-0.05
0.37,-0.98,-0.04
0.36,-0.95,-0.04
0.35,-0.91,-0.06
0.34,-0.88,-0.07
0.32,-0.86,-0.07
0.32,-0.83,-0.07
0.31,-0.82,-0.05
0.31,-0.84,-0.05
0.31,-0.85,-0.05
0.3,-0.85,-0.06
0.3,-0.84,-0.06
0.3,-0.83,-0.07
0.3,-0.81,-0.06
0.31,-0.8,-0.06
0.3,-0.79,-0.06
0.3,-0.8,-0.06
0.3,-0.81,-0.06
0.29,-0.82,-0.06
0.29,-0.83,-0.07
0.28,-0.84,-0.07
0.28,-0.85,-0.08
0.28,-0.86,-0.09
0.28,-0.87,-0.09
0.28,-0.88,-0.09
0.28,-0.9,-0.09
0.28,-0.91,-0.09
0.29,-0.92,-0.1
0.29,-0.93,-0.1
0.29,-0.94,-0.11
0.3,-0.95,-0.12
0.29,-0.96,-0.13
0.31,-0.97,-0.12
0.34,-0.99,-0.12
0.33,-1,-0.11
0.33,-1,-0.1
0.35,-1,-0.11
0.35,-1,-0.11
0.34,-1,-0.1
0.35,-1,-0.09
0.36,-1.01,-0.09
0.36,-1.01,-0.08
0.36,-1.01,-0.07
0.37,-1,-0.05
0.37,-1,-0.04
0.37,-0.99,-0.03
0.37,-0.99,-0.03
0.37,-0.99,-0.02
0.37,-0.99,-0.02
0.37,-0.99,-0.02
0.36,-0.99,-0.02
0.36,-0.98,-0.02
0.36,-0.98,-0.02
0.35,-0.98,-0.01
0.35,-0.97,-0.01
0.35,-0.97,-0.01
0.35,-0.97,-0.01
0.35,-0.97,0
0.35,-0.96,0
0.35,-0.97,0
0.35,-0.98,0
0.35,-0.98,0
0.34,-0.97,0
0.34,-0.98,-0.01
0.34,-0.98,-0.02
0.34,-0.98,-0.02
0.34,-0.99,-0.02
0.33,-1.01,-0.03
0.32,-1.04,-0.05
0.32,-1.04,-0.06
0.31,-1.04,-0.06
0.28,-1.03,-0.07
0.26,-1.03,-0.08
0.25,-1.02,-0.1
0.22,-1.01,-0.11
0.18,-0.99,-0.12
0.14,-0.96,-0.13
0.09,-0.93,-0.13
0.05,-0.91,-0.12
0.06,-0.87,-0.12
0.06,-0.86,-0.14
0.04,-0.86,-0.13
0.01,-0.86,-0.12
0.03,-0.86,-0.12
0.07,-0.88,-0.13
0.07,-0.93,-0.13
0.07,-0.96,-0.13
0.08,-0.99,-0.14
0.1,-1.01,-0.16
0.1,-1.04,-0.18
0.08,-1.07,-0.18
0.07,-1.08,-0.19
0.08,-1.08,-0.15
0.13,-1.06,-0.12
0.15,-1.04,-0.08
0.15,-1.01,-0.03
0.15,-0.99,0
0.15,-0.97,0.02
0.15,-0.95,0.03
0.15,-0.96,0.03
0.15,-0.98,0.02
0.16,-1,0.01
0.18,-1,0
0.19,-1,-0.01
0.18,-1,0
0.18,-1.01,0.02
0.21,-1.01,0.04
0.24,-1.02,0.06
0.27,-1.04,0.08
0.3,-1.07,0.09
0.33,-1.1,0.09
0.35,-1.12,0.1
0.38,-1.12,0.1
0.41,-1.11,0.1
0.41,-1.08,0.1
0.4,-1.05,0.12
0.41,-1.01,0.13
0.42,-0.98,0.14
0.42,-0.97,0.14
0.43,-0.98,0.14
0.42,-0.97,0.13
0.43,-0.95,0.13
0.43,-0.93,0.13
0.44,-0.9,0.13
0.43,-0.89,0.14
0.42,-0.88,0.14
0.41,-0.86,0.15
0.41,-0.85,0.15
0.4,-0.84,0.15
0.4,-0.82,0.15
0.4,-0.83,0.15
0.4,-0.86,0.16
0.4,-0.91,0.16
0.4,-0.97,0.16
0.4,-1.03,0.16
0.41,-1.1,0.17
0.41,-1.18,0.18
0.41,-1.25,0.17
0.38,-1.29,0.13
0.34,-1.29,0.06
0.3,-1.27,0
0.27,-1.25,-0.07
0.24,-1.25,-0.11
0.23,-1.25,-0.14
0.23,-1.23,-0.13
0.23,-1.19,-0.12
0.23,-1.18,-0.12
0.22,-1.15,-0.12
0.22,-1.1,-0.12
0.22,-1.03,-0.12
0.23,-0.95,-0.1
0.25,-0.89,-0.09
0.28,-0.86,-0.08
0.3,-0.84,-0.07
0.31,-0.83,-0.05
0.31,-0.85,-0.05
0.3,-0.85,-0.06
0.29,-0.84,-0.07
0.27,-0.82,-0.08
0.26,-0.82,-0.09
0.25,-0.82,-0.09
0.25,-0.84,-0.09
0.24,-0.86,-0.08
0.24,-0.9,-0.07
0.24,-0.96,-0.07
0.24,-1.01,-0.07
0.26,-1.04,-0.08
0.27,-1.05,-0.09
0.28,-1.04,-0.09
0.29,-1.01,-0.08
0.29,-0.99,-0.05
0.3,-1,-0.04
0.3,-1,-0.04
0.3,-1,-0.05
0.3,-1,-0.06
0.3,-0.99,-0.07
0.3,-0.97,-0.07
0.31,-0.94,-0.07
0.31,-0.93,-0.06
0.32,-0.93,-0.04
0.32,-0.92,-0.03
0.32,-0.91,-0.01
0.33,-0.91,0
0.33,-0.91,0
0.33,-0.92,0.01
0.33,-0.92,0.01
0.33,-0.94,0.02
0.32,-0.97,0.02
0.33,-1,0.02
0.33,-1.01,0.01
0.32,-1.01,0
0.32,-1.01,-0.01
0.31,-1.01,-0.01
0.31,-1,-0.01
0.32,-0.99,-0.01
0.33,-0.98,0
0.33,-0.97,0.01
0.35,-0.95,0.02
0.35,-0.95,0.03
0.36,-0.95,0.03
0.36,-0.95,0.03
0.36,-0.96,0.03
0.35,-0.96,0.03
0.34,-0.96,0.04
0.34,-0.96,0.04
0.33,-0.97,0.04
0.32,-0.97,0.04
0.32,-0.97,0.04
0.32,-0.97,0.05
0.32,-0.96,0.05
0.32,-0.96,0.06
0.32,-0.96,0.08
0.32,-0.97,0.09
0.31,-0.98,0.09
0.31,-0.99,0.08
0.3,-0.99,0.08
0.3,-0.98,0.09
0.29,-0.97,0.09
0.29,-0.97,0.1
0.29,-0.97,0.11
0.28,-0.98,0.11
0.28,-0.98,0.11
0.27,-0.97,0.12
0.24,-0.97,0.11
0.24,-0.97,0.11
0.23,-0.97,0.12
0.23,-0.97,0.12
0.23,-0.97,0.12
0.22,-0.98,0.12
0.22,-0.99,0.12
0.22,-1.02,0.12
0.21,-1.03,0.12
0.2,-1.04,0.12
0.2,-1.05,0.12
0.2,-1.05,0.12
0.19,-1.04,0.12
0.19,-1.02,0.12
0.18,-1.02,0.13
0.18,-1.02,0.12
0.17,-1.01,0.12
0.16,-1.01,0.12
0.16,-1.01,0.12
0.15,-1.01,0.12
0.15,-1.01,0.12
0.14,-1.01,0.12
0.14,-1.02,0.12
0.14,-1.03,0.12
0.13,-1.03,0.12
0.12,-1.02,0.11
0.12,-1.02,0.1
0.11,-1.01,0.1
0.11,-1,0.11
0.11,-0.99,0.11
0.1,-0.97,0.11
0.1,-0.96,0.11
0.09,-0.95,0.11
0.09,-0.94,0.12
0.09,-0.94,0.12
0.08,-0.93,0.13
0.08,-0.93,0.13
0.08,-0.93,0.13
0.07,-0.93,0.12
0.07,-0.93,0.12
0.06,-0.93,0.12
0.06,-0.94,0.12
0.07,-0.96,0.12
0.08,-0.98,0.12
0.08,-0.99,0.12
0.07,-1,0.13
0.08,-1.01,0.14
0.08,-1.02,0.14
0.08,-1.01,0.14
0.08,-1.01,0.15
0.08,-1.01,0.15
0.08,-1.01,0.16
0.08,-0.99,0.16
0.09,-0.99,0.16
0.1,-0.99,0.17
0.11,-0.99,0.18
0.11,-1,0.19
0.1,-1.01,0.19
0.1,-1.03,0.19
0.1,-1.05,0.2
0.1,-1.07,0.2
0.09,-1.09,0.21
0.09,-1.09,0.2
0.09,-1.06,0.2
0.08,-1.02,0.2
0.06,-0.98,0.21
0.04,-0.93,0.21
0.03,-0.89,0.22
0.02,-0.86,0.23
0,-0.83,0.23
-0.02,-0.8,0.23
-0.03,-0.77,0.23
-0.05,-0.74,0.23
-0.08,-0.72,0.24
-0.1,-0.7,0.24
-0.12,-0.69,0.24
-0.13,-0.68,0.23
-0.13,-0.69,0.2
-0.16,-0.72,0.19
-0.2,-0.74,0.16
-0.24,-0.76,0.13
-0.26,-0.79,0.12
-0.28,-0.8,0.1
-0.29,-0.81,0.1
-0.29,-0.82,0.1
-0.29,-0.85,0.1
-0.28,-0.88,0.1
-0.26,-0.91,0.08
-0.25,-0.94,0.05
-0.26,-0.95,0.04
-0.23,-0.93,0.05
-0.19,-0.92,0.06
-0.15,-0.93,0.07
-0.14,-0.96,0.08
-0.15,-0.99,0.11
-0.18,-1,0.17
-0.18,-1,0.2
-0.16,-1,0.18
-0.18,-1.04,0.13
-0.22,-1.08,0.1
-0.23,-1.1,0.08
-0.23,-1.13,0.1
-0.22,-1.19,0.16
-0.21,-1.25,0.27
-0.09,-1.3,0.31
-0.04,-1.27,0.34
0.02,-1.28,0.33
0.07,-1.32,0.31
0.12,-1.39,0.33
0.19,-1.45,0.37
0.28,-1.45,0.42
0.38,-1.39,0.47
0.51,-1.32,0.53
0.64,-1.27,0.56
0.68,-1.23,0.55
0.68,-1.1,0.57
0.68,-0.88,0.63
0.7,-0.65,0.65
0.76,-0.44,0.62
0.87,-0.26,0.57
1,-0.08,0.39
1.2,0.18,0.07
1.43,0.55,-0.22
1.61,1.04,-0.4
1.7,1.55,-0.46
1.83,1.82,-0.32
2.02,1.74,-0.08
2.07,1.31,-0.03
2.06,0.79,-0.13
2.08,0.39,-0.29
2.11,-0.19,-0.26
1.9,-0.44,-0.2
1.54,-0.66,-0.11
1.21,-0.8,-0.03
1.03,-0.89,-0.03
0.79,-0.96,-0.08
0.43,-0.97,-0.17
0.26,-1.26,-0.31
0.13,-1.51,-0.36
-0.03,-1.25,-0.19
0.03,-1,-0.08
0.12,-1.07,-0.02
0.16,-1.24,0.11
0.16,-1.29,0.19
0.14,-1.36,0.22
0.13,-1.5,0.22
0.01,-1.69,0.21
-0.22,-1.89,0.23
-0.25,-1.92,0.18
-0.23,-1.75,0.07
-0.3,-1.57,0.03
-0.38,-1.27,0.01
-0.52,-1.14,-0.04
-0.54,-1.06,-0.02
-0.46,-0.85,0.07
-0.4,-0.69,0.36
-0.42,-1.05,0.28
-0.64,-1.13,0.05
-0.64,-1.32,-0.16
-0.5,-1.48,-0.17
-0.45,-1.54,-0.18
-0.32,-1.64,-0.24
-0.34,-1.61,-0.3
-0.17,-1.63,-1.22
0.38,-1.79,-2.68
2.32,-2.98,0.33
1.01,-3.31,3.97
-2.96,-2.24,0.03
-1.64,-2.07,-1.43
0.84,-1.27,0.5
1.3,-0.53,0.58
1.39,-1.27,0.38
1.05,-1.35,0.21
0.59,-0.74,0.9
0.22,-0.46,0.55
0.59,-0.4,0.48
0.65,-0.46,0.77
0.42,-0.56,0.73
0.55,-0.65,0.73
0.5,-0.74,0.75
0.41,-0.75,0.61
0.47,-0.66,0.58
0.54,-0.61,0.62
0.49,-0.65,0.6
0.39,-0.69,0.54
0.43,-0.67,0.56
0.49,-0.67,0.66
0.45,-0.71,0.69
0.42,-0.71,0.63
0.41,-0.66,0.54
0.43,-0.67,0.51
0.43,-0.75,0.56
0.37,-0.79,0.58
0.34,-0.81,0.52
0.34,-0.76,0.46
0.38,-0.78,0.49
0.41,-0.82,0.53
0.38,-0.8,0.53
0.4,-0.81,0.51
0.4,-0.82,0.46
0.33,-0.81,0.4
0.26,-0.84,0.38
0.32,-0.9,0.44
0.38,-0.89,0.47
0.35,-0.83,0.42
0.35,-0.78,0.4
0.37,-0.8,0.42
0.37,-0.85,0.49
0.33,-0.92,0.46
0.35,-0.88,0.42
0.33,-0.86,0.37
0.3,-0.87,0.37
0.32,-0.87,0.38
0.35,-0.85,0.4
0.38,-0.85,0.43
0.37,-0.85,0.45
0.37,-0.84,0.45
0.35,-0.88,0.43
0.32,-0.91,0.41
0.31,-0.88,0.37
0.34,-0.85,0.35
0.38,-0.85,0.38
0.4,-0.87,0.41
0.37,-0.87,0.42
0.35,-0.88,0.41
0.33,-0.9,0.39
0.34,-0.89,0.35
0.34,-0.9,0.34
0.32,-0.9,0.33
0.34,-0.89,0.33
0.36,-0.88,0.37
0.34,-0.89,0.4
0.29,-0.88,0.35
0.28,-0.88,0.41
0.35,-0.87,0.43
0.35,-0.87,0.44
0.36,-0.88,0.43
0.36,-0.88,0.4
0.37,-0.88,0.37
0.36,-0.88,0.35
0.34,-0.89,0.34
0.36,-0.89,0.37
0.37,-0.88,0.39
0.36,-0.88,0.38
0.36,-0.88,0.38
0.32,-0.88,0.34
0.34,-0.89,0.36
0.36,-0.89,0.37
0.36,-0.88,0.37
0.34,-0.88,0.38
0.32,-0.89,0.37
0.31,-0.88,0.36
0.33,-0.89,0.4
0.33,-0.89,0.39
0.32,-0.89,0.35
0.31,-0.89,0.38
0.31,-0.89,0.41
0.3,-0.88,0.41
0.32,-0.89,0.39
0.33,-0.9,0.37
0.26,-0.88,0.45
0.26,-0.88,0.45
0.33,-0.89,0.46
0.37,-0.87,0.45
0.4,-0.85,0.44
0.3,-0.88,0.42
0.28,-0.88,0.47
0.28,-0.88,0.47
0.31,-0.86,0.46
0.35,-0.87,0.49
0.31,-0.89,0.42
0.32,-0.88,0.34
0.37,-0.86,0.38
0.38,-0.85,0.38
0.31,-0.85,0.43
0.31,-0.89,0.48
0.29,-0.87,0.43
0.31,-0.86,0.42
0.39,-0.87,0.46
0.37,-0.85,0.39
0.38,-0.85,0.43
0.4,-0.87,0.5
0.3,-0.85,0.41
0.25,-0.85,0.4
0.31,-0.87,0.5
0.37,-0.85,0.49
0.38,-0.84,0.38
0.35,-0.86,0.33
0.33,-0.87,0.38
0.38,-0.84,0.46
0.4,-0.84,0.48
0.32,-0.86,0.45
0.29,-0.88,0.47
0.36,-0.87,0.49
0.41,-0.84,0.43
0.43,-0.83,0.39
0.35,-0.84,0.34
0.3,-0.86,0.38
0.34,-0.88,0.5
0.34,-0.87,0.47
0.34,-0.85,0.43
0.33,-0.83,0.37
0.32,-0.85,0.38
0.32,-0.88,0.43
0.3,-0.89,0.44
0.31,-0.87,0.45
0.33,-0.86,0.46
0.33,-0.85,0.42
0.34,-0.86,0.39
0.34,-0.86,0.38
0.34,-0.87,0.39
0.38,-0.87,0.39
0.35,-0.89,0.38
0.3,-0.91,0.36
0.29,-0.91,0.36
0.29,-0.91,0.37
0.29,-0.91,0.38
0.29,-0.91,0.38
0.31,-0.91,0.36
0.33,-0.91,0.35
0.32,-0.9,0.34
0.32,-0.9,0.33
0.32,-0.9,0.33
0.31,-0.9,0.32
0.3,-0.9,0.32
0.31,-0.9,0.33
0.32,-0.9,0.36
0.3,-0.9,0.36
0.3,-0.9,0.36
0.29,-0.91,0.33
0.29,-0.91,0.33
0.29,-0.91,0.34
0.28,-0.92,0.34
0.29,-0.92,0.33
0.3,-0.92,0.32
0.31,-0.91,0.31
0.31,-0.92,0.3
0.31,-0.92,0.3
0.3,-0.93,0.31
0.3,-0.93,0.31
0.29,-0.92,0.3
0.31,-0.92,0.31
0.32,-0.92,0.32
0.32,-0.92,0.32
0.32,-0.92,0.31
0.31,-0.91,0.32
0.3,-0.91,0.33
0.29,-0.91,0.34
0.27,-0.91,0.35
0.27,-0.91,0.35
0.27,-0.91,0.35
0.27,-0.91,0.35
0.27,-0.91,0.35
0.27,-0.91,0.36
0.26,-0.91,0.36
0.28,-0.91,0.35
0.29,-0.91,0.35
0.29,-0.92,0.34
0.3,-0.91,0.34
0.31,-0.91,0.34
0.31,-0.92,0.34
0.31,-0.91,0.34
0.31,-0.91,0.34
0.31,-0.91,0.34
0.3,-0.91,0.33
0.3,-0.91,0.34
0.3,-0.92,0.34
0.29,-0.92,0.34
0.28,-0.92,0.34
0.28,-0.92,0.34
0.28,-0.92,0.34
0.29,-0.91,0.34
0.29,-0.91,0.34
0.29,-0.91,0.34
0.29,-0.91,0.34
0.29,-0.92,0.35
0.29,-0.92,0.34
0.29,-0.92,0.34
0.28,-0.92,0.34
0.29,-0.92,0.33
0.3,-0.92,0.34
0.3,-0.92,0.34
0.29,-0.92,0.34
0.29,-0.92,0.34
0.28,-0.92,0.35
0.28,-0.92,0.34
0.27,-0.92,0.34
0.28,-0.92,0.34
0.28,-0.92,0.34
0.28,-0.92,0.34
0.29,-0.92,0.35
0.28,-0.91,0.35
0.28,-0.91,0.35
0.29,-0.91,0.34
0.29,-0.91,0.34
0.28,-0.92,0.34
0.29,-0.92,0.34
0.29,-0.91,0.34
0.29,-0.92,0.34
0.29,-0.92,0.35
0.29,-0.92,0.35
0.29,-0.92,0.34
0.29,-0.92,0.34
0.29,-0.92,0.34
0.29,-0.92,0.34
0.29,-0.92,0.34
0.29,-0.92,0.35
0.29,-0.91,0.35
0.29,-0.91,0.34
0.29,-0.92,0.34
0.3,-0.91,0.34
0.3,-0.91,0.34
0.29,-0.92,0.34
0.29,-0.92,0.35
0.29,-0.91,0.35
0.28,-0.91,0.34
0.28,-0.92,0.35
0.27,-0.92,0.35
0.27,-0.92,0.35
0.27,-0.92,0.35
0.27,-0.92,0.35
0.28,-0.92,0.35
0.28,-0.92,0.35
0.28,-0.92,0.35
0.28,-0.92,0.35
0.28,-0.92,0.35
0.28,-0.92,0.34
0.29,-0.92,0.34
0.29,-0.92,0.34
0.28,-0.92,0.34
0.28,-0.92,0.34
0.28,-0.92,0.34
0.28,-0.92,0.34
0.28,-0.92,0.34
0.28,-0.92,0.34
0.28,-0.92,0.34
0.29,-0.92,0.34
0.29,-0.91,0.34
0.28,-0.91,0.35
0.28,-0.92,0.35
0.28,-0.92,0.35
0.28,-0.91,0.35
0.28,-0.91,0.35
0.27,-0.91,0.35
0.27,-0.91,0.35
0.27,-0.92,0.35
0.27,-0.92,0.35
0.28,-0.92,0.35
0.28,-0.92,0.34
0.28,-0.92,0.34
0.29,-0.92,0.34
0.29,-0.92,0.33
0.29,-0.92,0.33
0.29,-0.92,0.34
0.29,-0.92,0.34
0.28,-0.92,0.34
0.28,-0.92,0.34
0.28,-0.92,0.34
0.28,-0.91,0.35
0.28,-0.91,0.35
0.28,-0.92,0.35
0.28,-0.92,0.35
0.28,-0.92,0.35
0.27,-0.92,0.35
0.28,-0.91,0.35
0.28,-0.91,0.35
0.28,-0.92,0.35
0.28,-0.92,0.35
0.28,-0.92,0.35
0.28,-0.92,0.35
0.29,-0.92,0.35
0.28,-0.91,0.34
0.28,-0.92,0.34
0.28,-0.91,0.35
0.28,-0.91,0.35
0.28,-0.92,0.35
0.28,-0.92,0.34
0.28,-0.92,0.34
0.28,-0.92,0.34
0.28,-0.92,0.34
0.28,-0.92,0.34
0.28,-0.92,0.34
0.28,-0.92,0.35
0.28,-0.92,0.35
0.28,-0.92,0.34
0.28,-0.92,0.34
0.28,-0.92,0.34
0.28,-0.92,0.34
0.28,-0.92,0.34
0.28,-0.92,0.34
0.28,-0.92,0.34
0.28,-0.92,0.34
0.28,-0.92,0.34
0.28,-0.92,0.34
0.28,-0.92,0.34
0.28,-0.92,0.34
0.28,-0.92,0.35
0.28,-0.92,0.35
0.28,-0.92,0.35
0.28,-0.92,0.35
0.28,-0.91,0.35
0.28,-0.91,0.35
0.28,-0.92,0.35
0.28,-0.91,0.35
0.28,-0.91,0.35
0.28,-0.91,0.35
0.28,-0.92,0.35
0.28,-0.91,0.34
0.28,-0.91,0.34
0.28,-0.92,0.35
0.28,-0.92,0.35
0.28,-0.92,0.35
0.28,-0.92,0.35
0.28,-0.92,0.34
0.28,-0.92,0.34
0.28,-0.91,0.35
0.28,-0.92,0.35
0.28,-0.91,0.35
0.28,-0.91,0.35
0.28,-0.92,0.35
0.28,-0.92,0.35
0.28,-0.91,0.35
0.28,-0.91,0.34
0.29,-0.91,0.34
0.28,-0.91,0.34
0.27,-0.92,0.35
0.27,-0.92,0.35
0.27,-0.92,0.35
0.27,-0.92,0.36
0.27,-0.92,0.36
0.27,-0.91,0.36
0.27,-0.91,0.36
0.27,-0.91,0.36
0.27,-0.91,0.36
0.27,-0.91,0.36
0.27,-0.91,0.36
0.27,-0.91,0.35
0.28,-0.92,0.35
0.28,-0.92,0.35
0.28,-0.92,0.35
0.28,-0.91,0.36
0.28,-0.91,0.36
0.28,-0.91,0.36
0.28,-0.92,0.35
0.28,-0.92,0.35
0.28,-0.92,0.35
0.28,-0.91,0.35
0.28,-0.91,0.35
0.28,-0.91,0.35
0.28,-0.92,0.35
0.28,-0.92,0.36
0.27,-0.92,0.36
0.27,-0.92,0.36
0.27,-0.91,0.36
0.27,-0.91,0.36
0.27,-0.91,0.36
0.26,-0.92,0.36
0.26,-0.92,0.36
0.26,-0.92,0.36
0.26,-0.92,0.36
0.26,-0.92,0.36
0.26,-0.92,0.36
0.27,-0.92,0.36
0.27,-0.91,0.36
0.27,-0.91,0.36
0.27,-0.91,0.36
0.27,-0.91,0.36
0.27,-0.92,0.36
0.27,-0.92,0.36
0.27,-0.91,0.35
0.27,-0.91,0.35
0.27,-0.91,0.35
0.27,-0.91,0.36
0.27,-0.91,0.36
0.27,-0.92,0.36
0.27,-0.91,0.36
0.27,-0.92,0.35
0.27,-0.92,0.35
0.27,-0.91,0.35
0.27,-0.91,0.36
0.27,-0.91,0.36
0.27,-0.91,0.36
0.27,-0.91,0.36
0.27,-0.91,0.36
0.26,-0.91,0.36
0.26,-0.91,0.36
0.27,-0.92,0.36
0.27,-0.92,0.36
0.27,-0.92,0.36
0.27,-0.92,0.36
0.27,-0.92,0.36
0.27,-0.92,0.36
0.27,-0.92,0.36
0.27,-0.92,0.36
0.27,-0.91,0.36
0.27,-0.92,0.36
0.27,-0.92,0.36
0.27,-0.92,0.36
0.26,-0.92,0.35
0.26,-0.92,0.36
0.27,-0.92,0.35
0.26,-0.92,0.35
0.26,-0.92,0.36
0.26,-0.92,0.36
0.27,-0.92,0.35
0.27,-0.92,0.36
0.27,-0.92,0.36
0.27,-0.92,0.36
0.26,-0.92,0.36
0.26,-0.92,0.36
0.26,-0.92,0.36
0.27,-0.92,0.35
0.27,-0.92,0.35
0.27,-0.92,0.35
0.27,-0.92,0.36
0.27,-0.92,0.36
0.26,-0.92,0.36
0.26,-0.92,0.36
0.27,-0.92,0.36
0.27,-0.92,0.36
0.27,-0.92,0.35
0.27,-0.92,0.35
0.27,-0.92,0.35
0.27,-0.92,0.35
0.27,-0.92,0.35
0.27,-0.92,0.35
0.27,-0.92,0.35
0.26,-0.92,0.36
0.26,-0.92,0.36
0.27,-0.92,0.36
0.27,-0.92,0.36
0.26,-0.92,0.36
0.26,-0.91,0.36
0.26,-0.92,0.36
0.26,-0.92,0.36
0.26,-0.92,0.36
0.26,-0.91,0.36
0.26,-0.91,0.36
0.26,-0.91,0.36
0.26,-0.91,0.36
0.26,-0.92,0.36
0.26,-0.92,0.36
0.27,-0.92,0.35
0.27,-0.92,0.35
0.27,-0.92,0.35
0.27,-0.92,0.35
0.27,-0.92,0.35
0.27,-0.92,0.35
0.27,-0.92,0.35
0.27,-0.92,0.36
0.27,-0.92,0.36
0.27,-0.92,0.35
0.27,-0.92,0.35
0.26,-0.91,0.35
0.26,-0.91,0.36
0.26,-0.92,0.36
0.26,-0.91,0.36
0.26,-0.92,0.36
0.27,-0.92,0.36
0.27,-0.92,0.36
0.26,-0.91,0.36
0.26,-0.92,0.36
0.26,-0.92,0.36
0.26,-0.92,0.36
0.26,-0.92,0.35
0.26,-0.92,0.35
0.26,-0.92,0.36
0.27,-0.92,0.35
0.26,-0.92,0.35
0.27,-0.92,0.36
0.26,-0.92,0.36
0.26,-0.92,0.36
0.26,-0.92,0.36
0.26,-0.92,0.35
0.26,-0.92,0.35
0.26,-0.92,0.36
0.26,-0.91,0.35
0.27,-0.92,0.35
0.27,-0.92,0.36
0.26,-0.92,0.36
0.26,-0.92,0.36
0.26,-0.92,0.35
0.26,-0.92,0.36
0.26,-0.91,0.35
0.27,-0.92,0.35
0.26,-0.92,0.35
0.26,-0.92,0.36
0.26,-0.91,0.36
0.26,-0.92,0.36
0.27,-0.92,0.36
0.26,-0.92,0.36
0.26,-0.92,0.36
0.26,-0.92,0.36
0.26,-0.91,0.36
0.26,-0.92,0.36
0.26,-0.92,0.36
0.27,-0.91,0.36
0.27,-0.92,0.36
0.27,-0.92,0.35
0.27,-0.92,0.35
0.27,-0.92,0.35
0.27,-0.91,0.35
0.27,-0.92,0.35
0.26,-0.92,0.35
0.27,-0.92,0.35
0.27,-0.92,0.35
0.27,-0.92,0.35
0.27,-0.92,0.35
0.26,-0.92,0.36
0.26,-0.92,0.36
0.26,-0.92,0.36
0.26,-0.92,0.36
0.26,-0.92,0.36
0.26,-0.92,0.36
0.26,-0.92,0.36
0.26,-0.91,0.36
0.26,-0.91,0.36
0.26,-0.92,0.36
0.26,-0.92,0.36
0.26,-0.92,0.36
0.26,-0.91,0.36
0.26,-0.91,0.36
0.27,-0.92,0.36
0.27,-0.92,0.36
0.26,-0.91,0.36
0.27,-0.91,0.36
0.27,-0.91,0.36
0.26,-0.91,0.36
0.26,-0.91,0.36
0.27,-0.92,0.36
0.26,-0.92,0.36
0.27,-0.92,0.36
0.27,-0.92,0.36
0.26,-0.92,0.36
0.26,-0.91,0.36
0.26,-0.92,0.36
0.26,-0.92,0.36
0.26,-0.92,0.36
0.26,-0.92,0.36
0.26,-0.92,0.36
0.26,-0.92,0.36
0.27,-0.92,0.36
0.27,-0.92,0.36
0.26,-0.92,0.36
0.26,-0.92,0.35
0.27,-0.92,0.35
0.27,-0.92,0.35
0.27,-0.92,0.35
0.27,-0.92,0.35
0.27,-0.92,0.35
0.26,-0.92,0.35
0.26,-0.92,0.35
0.27,-0.92,0.36
0.27,-0.92,0.36
0.26,-0.92,0.36
0.26,-0.92,0.36
0.26,-0.92,0.36
0.26,-0.92,0.36
0.26,-0.92,0.36
0.27,-0.92,0.36
0.26,-0.92,0.36
0.26,-0.91,0.36
0.27,-0.91,0.36
0.27,-0.92,0.36
0.27,-0.92,0.36
0.27,-0.92,0.35
0.26,-0.92,0.35
0.27,-0.92,0.35
0.27,-0.92,0.35
0.27,-0.92,0.35
0.27,-0.92,0.35
0.27,-0.92,0.35
0.27,-0.92,0.35
0.27,-0.92,0.35
0.27,-0.92,0.35
0.27,-0.92,0.35
0.27,-0.92,0.35
0.27,-0.92,0.35
0.27,-0.92,0.35
0.27,-0.92,0.35
0.27,-0.92,0.36
0.26,-0.92,0.36
0.26,-0.92,0.35
0.27,-0.91,0.36
0.27,-0.91,0.36
0.27,-0.92,0.35
0.26,-0.92,0.35
0.26,-0.92,0.35
0.27,-0.91,0.36
0.27,-0.92,0.36
0.27,-0.92,0.35
0.27,-0.92,0.35
0.27,-0.92,0.35
0.27,-0.92,0.35
0.26,-0.92,0.36
0.26,-0.92,0.36
0.27,-0.91,0.35
0.27,-0.92,0.35
0.27,-0.92,0.35
0.27,-0.92,0.35
0.27,-0.92,0.36
0.27,-0.92,0.36
0.26,-0.92,0.36
0.26,-0.91,0.36
0.26,-0.91,0.36
0.26,-0.92,0.36
0.26,-0.92,0.36
0.26,-0.92,0.36
0.27,-0.92,0.36
0.27,-0.92,0.35
0.27,-0.92,0.35
0.28,-0.92,0.35
0.28,-0.92,0.35
0.28,-0.92,0.35
0.28,-0.91,0.35
0.27,-0.91,0.35
0.27,-0.92,0.35
0.27,-0.92,0.35
0.27,-0.92,0.35
0.27,-0.92,0.35
0.27,-0.92,0.35
0.27,-0.92,0.35
0.27,-0.92,0.35
0.27,-0.91,0.35
0.27,-0.91,0.35
0.27,-0.91,0.35
0.27,-0.92,0.36
0.27,-0.92,0.36
0.27,-0.92,0.36
0.27,-0.92,0.36
0.26,-0.92,0.36
0.26,-0.92,0.36
0.26,-0.92,0.35
0.27,-0.92,0.35
0.27,-0.92,0.35
0.27,-0.92,0.35
0.27,-0.92,0.35
0.27,-0.92,0.35
0.27,-0.92,0.35
0.27,-0.92,0.35
0.27,-0.92,0.35
0.27,-0.92,0.35
0.27,-0.92,0.35
0.27,-0.91,0.35
0.27,-0.91,0.35
0.27,-0.91,0.35
0.27,-0.91,0.34
0.27,-0.92,0.35
0.27,-0.92,0.35
0.27,-0.92,0.35
0.27,-0.92,0.35
0.27,-0.92,0.35
0.27,-0.92,0.35
0.27,-0.92,0.35
0.27,-0.92,0.35
0.26,-0.92,0.35
0.27,-0.92,0.35
0.27,-0.92,0.35
0.27,-0.92,0.35
0.27,-0.92,0.35
0.27,-0.92,0.35
0.27,-0.91,0.35
0.27,-0.91,0.34
0.26,-0.91,0.34
0.26,-0.91,0.35
0.27,-0.92,0.35
0.27,-0.92,0.35
0.28,-0.92,0.35
0.28,-0.91,0.35
0.28,-0.91,0.34
0.28,-0.91,0.34
0.29,-0.91,0.34
0.29,-0.91,0.34
0.28,-0.92,0.35
0.27,-0.92,0.36
0.25,-0.92,0.35
0.26,-0.91,0.35
0.28,-0.91,0.36
0.29,-0.91,0.36
0.29,-0.9,0.35
0.29,-0.9,0.35
0.29,-0.91,0.35
0.28,-0.91,0.35
0.29,-0.91,0.35
0.31,-0.91,0.36
0.32,-0.91,0.37
0.33,-0.9,0.38
0.32,-0.9,0.39
0.32,-0.9,0.4
0.31,-0.9,0.4
0.31,-0.9,0.39
0.31,-0.89,0.38
0.32,-0.89,0.38
0.32,-0.88,0.38
0.32,-0.88,0.38
0.32,-0.88,0.38
0.32,-0.88,0.38
0.32,-0.88,0.38
0.34,-0.87,0.38
0.36,-0.87,0.39
0.37,-0.87,0.39
0.36,-0.87,0.4
0.35,-0.87,0.4
0.34,-0.88,0.39
0.35,-0.87,0.39
0.34,-0.88,0.41
0.36,-0.87,0.41
0.38,-0.86,0.4
0.37,-0.86,0.4
0.36,-0.87,0.41
0.37,-0.86,0.41
0.37,-0.86,0.41
0.36,-0.86,0.41
0.33,-0.87,0.41
0.34,-0.86,0.42
0.36,-0.85,0.44
0.36,-0.86,0.42
0.35,-0.85,0.41
0.35,-0.86,0.42
0.36,-0.85,0.44
0.36,-0.85,0.45
0.36,-0.85,0.45
0.36,-0.85,0.43
0.36,-0.85,0.42
0.37,-0.85,0.42
0.38,-0.84,0.44
0.37,-0.85,0.44
0.37,-0.85,0.43
0.36,-0.85,0.43
0.37,-0.84,0.44
0.38,-0.84,0.44
0.39,-0.83,0.43
0.4,-0.83,0.43
0.39,-0.83,0.44
0.39,-0.83,0.44
0.39,-0.83,0.46
0.38,-0.83,0.45
0.38,-0.82,0.45
0.41,-0.82,0.45
0.4,-0.83,0.47
0.4,-0.83,0.46
0.4,-0.82,0.46
0.4,-0.82,0.47
0.4,-0.81,0.46
0.4,-0.81,0.46
0.42,-0.81,0.46
0.41,-0.81,0.46
0.4,-0.81,0.46
0.39,-0.82,0.46
0.39,-0.82,0.48
0.39,-0.81,0.47
0.4,-0.81,0.46
0.4,-0.81,0.46
0.41,-0.81,0.47
0.43,-0.81,0.47
0.42,-0.8,0.48
0.39,-0.8,0.47
0.4,-0.81,0.47
0.41,-0.81,0.49
0.41,-0.81,0.49
0.41,-0.8,0.48
0.4,-0.8,0.46
0.38,-0.8,0.48
0.4,-0.79,0.51
0.39,-0.79,0.5
0.39,-0.81,0.51
0.39,-0.81,0.49
0.4,-0.82,0.47
0.41,-0.83,0.47
0.39,-0.82,0.45
0.41,-0.81,0.45
0.4,-0.82,0.48
0.37,-0.83,0.47
0.38,-0.85,0.45
0.34,-0.86,0.4
0.33,-0.87,0.39
0.37,-0.87,0.42
0.36,-0.85,0.45
0.24,-0.92,0.26
0.2,-0.91,0.25
0.25,-0.89,0.37
0.34,-0.89,0.48
0.3,-0.9,0.43
0.23,-0.94,0.32
0.29,-0.91,0.33
0.26,-0.94,0.33
0.26,-0.95,0.31
0.2,-0.94,0.29
0.19,-0.92,0.36
0.29,-0.9,0.49
0.34,-0.85,0.45
0.32,-0.88,0.39
0.29,-0.92,0.34
0.25,-0.96,0.33
0.19,-0.98,0.33
0.18,-0.97,0.34
0.24,-0.87,0.41
0.35,-0.79,0.52
0.42,-0.79,0.54
0.39,-0.81,0.5
0.33,-0.86,0.5
0.28,-0.87,0.48
0.28,-0.82,0.54
0.25,-0.82,0.54
0.27,-0.79,0.54
0.31,-0.79,0.56
0.32,-0.78,0.58
0.35,-0.76,0.59
0.31,-0.8,0.55
0.32,-0.73,0.54
0.34,-0.7,0.56
0.35,-0.73,0.59
0.36,-0.72,0.6
0.34,-0.71,0.61
0.47,-0.71,0.71
0.56,-0.66,0.73
0.61,-0.68,0.76
0.56,-0.74,0.81
0.49,-0.8,0.83
0.42,-0.84,0.78
0.39,-1.12,1.11
0.36,-1.2,1.25
0.41,-1.28,1.12
0.55,-1.29,1.02
0.39,-1.18,0.92
0.29,-1.17,0.77
0.29,-1.14,0.59
0.14,-1.02,0.41
0.03,-0.98,0.05
-0.07,-1.03,-0.27
-0.09,-1.05,-0.29
-0.07,-1.08,-0.23
-0.09,-1.14,-0.21
-0.02,-1.15,-0.22
0.03,-1.14,-0.22
0,-1.13,-0.2
-0.05,-1.13,-0.17
-0.08,-1.12,-0.25
-0.02,-1.06,-0.32
0.02,-1.08,-0.38
0,-1.11,-0.41
0.03,-1.09,-0.31
0.01,-1.11,-0.22
0,-1.14,-0.2
0.01,-1.18,-0.21
-0.02,-1.2,-0.22
0.04,-1.2,-0.21
0.08,-1.23,-0.16
0.1,-1.27,-0.12
0.13,-1.34,-0.07
0.22,-1.39,0.01
0.24,-1.45,0.08
0.18,-1.49,0.1
0.18,-1.49,0.09
0.18,-1.46,0.05
0.17,-1.47,0.04
0.21,-1.46,0.02
0.25,-1.44,0.01
0.25,-1.44,0.04
0.27,-1.42,0.05
0.25,-1.41,0.07
0.21,-1.4,0.09
0.19,-1.4,0.08
0.14,-1.38,0.02
0.04,-1.35,-0.04
-0.04,-1.32,-0.06
-0.07,-1.28,-0.02
-0.04,-1.27,-0.01
0,-1.26,-0.07
0.01,-1.21,-0.11
0,-1.13,-0.1
-0.13,-1.07,-0.07
-0.22,-1.11,-0.1
-0.3,-1.14,-0.13
-0.36,-1.14,-0.18
-0.4,-1.14,-0.21
-0.44,-1.16,-0.24
-0.45,-1.2,-0.25
-0.45,-1.25,-0.31
-0.55,-1.24,-0.34
-0.71,-1.19,-0.26
-0.76,-1.16,-0.18
-0.69,-1.14,-0.13
-0.57,-1.08,-0.08
-0.41,-0.99,-0.03
-0.26,-0.96,-0.02
-0.13,-1.02,-0.04
-0.03,-1.07,-0.05
-0.06,-1.09,0.01
-0.12,-1.09,0.09
-0.09,-1.11,0.16
-0.06,-1.16,0.23
-0.05,-1.18,0.31
-0.04,-1.15,0.35
-0.05,-1.08,0.38
-0.09,-1,0.4
-0.14,-0.91,0.39
-0.2,-0.76,0.32
-0.12,-0.77,0.3
-0.05,-0.83,0.27
-0.02,-0.91,0.26
-0.01,-0.97,0.25
0,-1.01,0.21
-0.01,-1.06,0.14
-0.01,-1.08,0.09
0.02,-1.06,0.06
0.07,-1.08,0.08
0.07,-1.16,0.09
0.03,-1.24,0.05
-0.01,-1.31,-0.01
-0.03,-1.41,-0.13
0,-1.51,-0.31
0.1,-1.54,-0.46
0.21,-1.49,-0.56
0.32,-1.42,-0.56
0.37,-1.37,-0.44
0.28,-1.37,-0.28
0.15,-1.46,-0.2
0.09,-1.54,-0.23
0.21,-1.52,-0.35
0.4,-1.46,-0.49
0.44,-1.43,-0.56
0.38,-1.32,-0.41
0.27,-1.4,-0.34
0.24,-1.53,-0.36
0.22,-1.52,-0.38
0.23,-1.39,-0.41
0.29,-1.28,-0.48
0.35,-1.21,-0.51
0.39,-1.14,-0.48
0.46,-1.08,-0.39
0.46,-1.03,-0.3
0.4,-1.01,-0.21
0.36,-1.04,-0.15
0.33,-1.1,-0.15
0.3,-1.13,-0.2
0.27,-1.1,-0.25
0.24,-1.02,-0.32
0.21,-0.95,-0.34
0.19,-0.89,-0.33
0.17,-0.84,-0.3
0.17,-0.79,-0.25
0.19,-0.75,-0.19
0.24,-0.76,-0.14
0.29,-0.82,-0.1
0.3,-0.91,-0.12
0.3,-0.97,-0.16
0.29,-0.97,-0.19
0.27,-0.95,-0.23
0.24,-0.89,-0.25
0.22,-0.87,-0.23
0.21,-0.84,-0.2
0.21,-0.8,-0.16
0.21,-0.78,-0.13
0.21,-0.76,-0.1
0.2,-0.77,-0.07
0.2,-0.77,-0.06
0.21,-0.76,-0.06
0.22,-0.76,-0.04
0.22,-0.75,-0.02
0.21,-0.75,0
0.18,-0.75,0.01
0.15,-0.73,0.03
0.08,-0.68,0.01
0.11,-0.67,-0.01
0.15,-0.68,0.03
0.07,-0.64,0.07
0.01,-0.6,0.09
0.03,-0.57,0.09
0.02,-0.55,0.07
-0.02,-0.55,0.09
-0.04,-0.56,0.14
-0.05,-0.57,0.16
-0.03,-0.58,0.22
-0.01,-0.59,0.25
0.02,-0.74,0.26
0.05,-0.88,0.19
0.06,-1.03,0.13
0.12,-1.16,0.12
0.13,-1.29,0.14
0.15,-1.36,0.18
0.18,-1.37,0.23
0.18,-1.38,0.3
0.19,-1.4,0.36
0.18,-1.44,0.36
0.17,-1.45,0.33
0.14,-1.46,0.29
0.15,-1.47,0.28
0.17,-1.46,0.31
0.19,-1.44,0.34
0.22,-1.43,0.37
0.23,-1.39,0.38
0.22,-1.34,0.34
0.23,-1.28,0.35
0.18,-1.24,0.46
0.12,-1.16,0.52
0.2,-1.06,0.48
0.35,-0.99,0.39
0.39,-0.98,0.33
0.34,-0.99,0.29
0.29,-0.96,0.27
0.24,-0.9,0.24
0.22,-0.89,0.26
0.24,-0.9,0.3
0.26,-0.93,0.35
0.27,-0.95,0.4
0.26,-0.94,0.44
0.28,-0.92,0.46
0.32,-0.91,0.46
0.36,-0.92,0.43
0.39,-0.93,0.42
0.39,-0.95,0.41
0.4,-0.96,0.4
0.44,-0.95,0.41
0.49,-0.93,0.43
0.55,-0.92,0.45
0.59,-0.91,0.46
0.62,-0.87,0.46
0.64,-0.82,0.45
0.64,-0.78,0.44
0.65,-0.75,0.43
0.65,-0.72,0.42
0.66,-0.69,0.41
0.68,-0.66,0.41
0.69,-0.64,0.4
0.71,-0.63,0.41
0.75,-0.64,0.42
0.78,-0.67,0.43
0.85,-1.3,0.43
0.85,-1.3,0.43
0.82,-1.29,0.36
0.78,-1.23,0.28
0.73,-1.15,0.21
0.69,-1.08,0.18
0.67,-1.06,0.17
0.65,-1.08,0.17
0.62,-1.13,0.18
0.6,-1.18,0.19
0.57,-1.23,0.2
0.52,-1.27,0.18
0.48,-1.26,0.15
0.45,-1.23,0.1
0.41,-1.19,0.06
0.36,-1.14,0.03
0.32,-1.09,0
0.31,-1.04,0
0.3,-1,0.01
0.29,-0.96,0.02
0.27,-0.94,0.04
0.27,-0.89,0.06
0.3,-0.86,0.07
0.32,-0.84,0.08
0.33,-0.83,0.09
0.33,-0.82,0.1
0.33,-0.8,0.09
0.33,-0.75,0.09
0.38,-0.7,0.11
0.44,-0.68,0.13
0.47,-0.66,0.16
0.47,-0.62,0.18
0.46,-0.56,0.21
0.46,-0.52,0.23
0.49,-0.5,0.26
0.51,-0.47,0.28
0.54,-0.44,0.31
0.59,-0.43,0.32
0.62,-0.42,0.35
0.64,-0.43,0.37
0.65,-0.41,0.39
0.66,-0.38,0.39
0.66,-0.35,0.39
0.68,-0.31,0.39
0.72,-0.28,0.4
0.78,-0.27,0.43
0.83,-0.26,0.48
0.86,-0.26,0.58
0.88,-0.23,0.61
0.88,-0.22,0.62
0.86,-0.21,0.61
0.86,-0.18,0.62
0.87,-0.18,0.64
0.86,-0.19,0.69
0.82,-0.2,0.8
0.79,-0.2,0.94
0.78,-0.21,1.1
0.77,-0.22,1.25
0.68,-0.23,1.28
0.57,-0.2,1.21
0.56,-0.13,1.11
0.65,-0.09,1.04
0.71,-0.11,1
0.69,-0.11,1.01
0.62,-0.11,1.02
0.55,-0.11,1.04
0.48,-0.11,1.06
0.43,-0.13,1.04
0.4,-0.12,1.01
0.4,-0.09,0.97
0.43,-0.07,0.94
0.46,-0.06,0.92
0.49,-0.06,0.9
0.55,-0.07,0.87
0.58,-0.08,0.86
0.58,-0.09,0.85
0.54,-0.08,0.82
0.5,-0.06,0.78
0.47,-0.04,0.75
0.46,-0.02,0.72
0.48,0,0.73
0.47,0.01,0.76
0.45,0.01,0.78
0.45,0.02,0.8
0.45,0.03,0.81
0.46,0.04,0.81
0.45,0.05,0.79
0.42,0.08,0.76
0.38,0.12,0.73
0.35,0.14,0.72
0.3,0.14,0.72
0.28,0.15,0.75
0.27,0.16,0.79
0.25,0.16,0.82
0.21,0.18,0.84
0.18,0.22,0.86
0.15,0.24,0.91
0.14,0.24,0.95
0.14,0.25,0.97
0.13,0.24,0.98
0.07,0.25,0.97
0.05,0.28,0.96
0.04,0.3,0.95
0.03,0.32,0.97
0.05,0.32,0.98
0.06,0.33,0.99
0.05,0.35,0.99
0.03,0.38,0.99
-0.01,0.4,0.99
-0.05,0.42,1
-0.07,0.43,1.02
-0.1,0.44,1.05
-0.15,0.43,1.1
-0.18,0.42,1.15
-0.21,0.43,1.18
-0.24,0.46,1.17
-0.26,0.47,1.14
-0.28,0.48,1.07
-0.28,0.47,0.98
-0.27,0.44,0.91
-0.26,0.41,0.89
-0.24,0.37,0.91
-0.23,0.36,0.93
-0.24,0.37,0.95
-0.27,0.39,0.92
-0.26,0.41,0.88
-0.25,0.41,0.86
-0.25,0.41,0.84
-0.26,0.42,0.82
-0.25,0.45,0.81
-0.21,0.45,0.84
-0.17,0.44,0.87
-0.15,0.43,0.89
-0.16,0.45,0.92
-0.17,0.47,0.93
-0.18,0.48,0.92
-0.17,0.47,0.9
-0.16,0.45,0.88
-0.12,0.43,0.89
-0.09,0.41,0.92
-0.06,0.4,0.94
-0.06,0.41,0.95
-0.08,0.41,0.94
-0.1,0.4,0.94
-0.1,0.37,0.96
-0.07,0.35,0.98
-0.08,0.33,1.01
-0.07,0.32,1.02
-0.03,0.32,1.02
-0.04,0.3,1.02
-0.06,0.29,0.99
-0.07,0.29,0.98
-0.11,0.26,0.99
-0.12,0.24,1
