Acc_x,Acc_y,Acc_z
0,0,0
0,0,0
0,0,0
0,0,0
0,0,0
0,0,0
0,0,0
0,0,0
0,0,0
0,0,0
0,0,0
0,0,0
0,0,0
0,0,0
0,0,0
0,0,0
0,0,0
0,0,0
0,0,0
0,0,0
0,0,0
0,0,0
0,0,0
0,0,0
0,0,0
0,0,0
0,0,0
0,0,0
0,0,0
0,0,0
0,0,0
0,0,0
0,0,0
0,0,0
0,0,0
0,0,0
0,0,0
0,0,0
0,0,0
0,0,0
0,0,0
0,0,0
0,0,0
0,0,0
0,0,0
0,0,0
0,0,0
0,0,0
0,0,0
0,0,0
0,0,0
0,0,0
0,0,0
0,0,0
0,0,0
0,0,0
0,0,0
0,0,0
0,0,0
0,0,0
0,0,0
0,0,0
0,0,0
0,0,0
0,0,0
0,0,0
0,0,0
0,0,0
0,0,0
0,0,0
0,0,0
0,0,0
0,0,0
0,0,0
0,0,0
0,0,0
0,0,0
0,0,0
0,0,0
0,0,0
0,0,0
0,0,0
0,0,0
0,0,0
0,0,0
0,0,0
0,0,0
0,0,0
0,0,0
0,0,0
0,0,0
0,0,0
0,0,0
0,0,0
0,0,0
0,0,0
0,0,0
0,0,0
0,0,0
0,0,0
0,0,0
0,0,0
0,0,0
0,0,0
0,0,0
0,0,0
0,0,0
0,0,0
0,0,0
0,0,0
0,0,0
0,0,0
0,0,0
0,0,0
0,0,0
0,0,0
0,0,0
0,0,0
0,0,0
0,0,0
0,0,0
0,0,0
0,0,0
0,0,0
0,0,0
0,0,0
0,0,0
0,0,0
0,0,0
0,0,0
0,0,0
0,0,0
0,0,0
0,0,0
0,0,0
0,0,0
0,0,0
0,0,0
0,0,0
0,0,0
0,0,0
0,0,0
0,0,0
0,0,0
0,0,0
0,0,0
0,0,0
0,0,0
0,0,0
0,0,0
0,0,0
0,0,0
0,0,0
0,0,0
0,0,0
0,0,0
0,0,0
0,0,0
0,0,0
0,0,0
0,0,0
0,0,0
0,0,0
0,0,0
0,0,0
0,0,0
0,0,0
0,0,0
0,0,0
0,0,0
0,0,0
0,0,0
0,0,0
0,0,0
0,0,0
0,0,0
0,0,0
0,0,0
0,0,0
0,0,0
0,0,0
0,0,0
0,0,0
0,0,0
0,0,0
0,0,0
0,0,0
0,0,0
0,0,0
0,0,0
0,0,0
0,0,0
0,0,0
0,0,0
0,0,0
0,0,0
0,0,0
0,0,0
0,0,0
0,0,0
0,0,0
0,0,0
0,0,0
0,0,0
0,0,0
0,0,0
0,0,0
0,0,0
0,0,0
0,0,0
0,0,0
0,0,0
0,0,0
0,0,0
0,0,0
0,0,0
0,0,0
0,0,0
0,0,0
0,0,0
0,0,0
0,0,0
0,0,0
0,0,0
0,0,0
0,0,0
0,0,0
0,0,0
0,0,0
0,0,0
0,0,0
0,0,0
0,0,0
0,0,0
0,0,0
0,0,0
0,0,0
0,0,0
0,0,0
0,0,0
0,0,0
0,0,0
0,0,0
0,0,0
0,0,0
0,0,0
0,0,0
0,0,0
0,0,0
0,0,0
0,0,0
0,0,0
0,0,0
0,0,0
0,0,0
0,0,0
0,0,0
0,0,0
0,0,0
0,0,0
0,0,0
0,0,0
0,0,0
0,0,0
0,0,0
0,0,0
0,0,0
0,0,0
0,0,0
0,0,0
0,0,0
0,0,0
0,0,0
0,0,0
0,0,0
0,0,0
0,0,0
0,0,0
0,0,0
0,0,0
0,0,0
0,0,0
0,0,0
0,0,0
0,0,0
0,0,0
0,0,0
0,0,0
0,0,0
0,0,0
0,0,0
0,0,0
0,0,0
0,0,0
0,0,0
0,0,0
0,0,0
0,0,0
0,0,0
0,0,0
0,0,0
0,0,0
0,0,0
0,0,0
0,0,0
0,0,0
0,0,0
0,0,0
0,0,0
0,0,0
0,0,0
0,0,0
0,0,0
0,0,0
0,0,0
0,0,0
0,0,0
0,0,0
0,0,0
0,0,0
0,0,0
0,0,0
0,0,0
0,0,0
0,0,0
0,0,0
0,0,0
0,0,0
0,0,0
0,0,0
0,0,0
0,0,0
0,0,0
0,0,0
0,0,0
0,0,0
0,0,0
0,0,0
0,0,0
0,0,0
0,0,0
0,0,0
0,0,0
0,0,0
0,0,0
0,0,0
0,0,0
0,0,0
0,0,0
0,0,0
0,0,0
0,0,0
0,0,0
0,0,0
0,0,0
0,0,0
0,0,0
0,0,0
0,0,0
0,0,0
0,0,0
0,0,0
0,0,0
0,0,0
0,0,0
0,0,0
0,0,0
0,0,0
0,0,0
0,0,0
0,0,0
0,0,0
0,0,0
0,0,0
0,0,0
0,0,0
0,0,0
0,0,0
0,0,0
0,0,0
0,0,0
0,0,0
0,0,0
0,0,0
0,0,0
0,0,0
0,0,0
0,0,0
0,0,0
0,0,0
0,0,0
0,0,0
0,0,0
0,0,0
0,0,0
0,0,0
0,0,0
0,0,0
0,0,0
0,0,0
0,0,0
0,0,0
0,0,0
0,0,0
0,0,0
0,0,0
0,0,0
0,0,0
0,0,0
0,0,0
0,0,0
0,0,0
0,0,0
0,0,0
0,0,0
0,0,0
0,0,0
0,0,0
0,0,0
0,0,0
0,0,0
0,0,0
0,0,0
0,0,0
0,0,0
0,0,0
0,0,0
0,0,0
0,0,0
0,0,0
0,0,0
0,0,0
0,0,0
0,0,0
0,0,0
0,0,0
0,0,0
0,0,0
0,0,0
0,0,0
0,0,0
0,0,0
0,0,0
0,0,0
0,0,0
0,0,0
0,0,0
0,0,0
0,0,0
0,0,0
0,0,0
0,0,0
0,0,0
0,0,0
0,0,0
0,0,0
0,0,0
0,0,0
0,0,0
0,0,0
0,0,0
0,0,0
0,0,0
0,0,0
0,0,0
0,0,0
0,0,0
0,0,0
0,0,0
0,0,0
0,0,0
0,0,0
0,0,0
0,0,0
0,0,0
0,0,0
0,0,0
0,0,0
0,0,0
0,0,0
0,0,0
0,0,0
0,0,0
0,0,0
0,0,0
0,0,0
0,0,0
0,0,0
0,0,0
0,0,0
0,0,0
0,0,0
0,0,0
0,0,0
0,0,0
0,0,0
0,0,0
0,0,0
0,0,0
0,0,0
0,0,0
0,0,0
0,0,0
0,0,0
0,0,0
0,0,0
0,0,0
0,0,0
0,0,0
0,0,0
0,0,0
0,0,0
0,0,0
0,0,0
0,0,0
0,0,0
0,0,0
0,0,0
0,0,0
0,0,0
0,0,0
0,0,0
0,0,0
0,0,0
0,0,0
0,0,0
0,0,0
0,0,0
0,0,0
0,0,0
0,0,0
0,0,0
0,0,0
0,0,0
0,0,0
0,0,0
0,0,0
0,0,0
0,0,0
0,0,0
0,0,0
0,0,0
0,0,0
0,0,0
0,0,0
0,0,0
0,0,0
0,0,0
0,0,0
0,0,0
0,0,0
0,0,0
0,0,0
0,0,0
0,0,0
0,0,0
0,0,0
0,0,0
0,0,0
0,0,0
0,0,0
0,0,0
0,0,0
0,0,0
0,0,0
0,0,0
0,0,0
0,0,0
0,0,0
0,0,0
0,0,0
0,0,0
0,0,0
0,0,0
0,0,0
0,0,0
0,0,0
0,0,0
0,0,0
0,0,0
0,0,0
0,0,0
0,0,0
0,0,0
0,0,0
0,0,0
0,0,0
0,0,0
0,0,0
0,0,0
0,0,0
0,0,0
0,0,0
0,0,0
0,0,0
0,0,0
0,0,0
0,0,0
0,0,0
0,0,0
0,0,0
0,0,0
0,0,0
0,0,0
0,0,0
0,0,0
0,0,0
0,0,0
0,0,0
0,0,0
0,0,0
0,0,0
0,0,0
0,0,0
0,0,0
0,0,0
0,0,0
0,0,0
0,0,0
0,0,0
0,0,0
0,0,0
0,0,0
0,0,0
0,0,0
0,0,0
0,0,0
0,0,0
0,0,0
0,0,0
0,0,0
0,0,0
0,0,0
0,0,0
0,0,0
0,0,0
0,0,0
0,0,0
0,0,0
0,0,0
0,0,0
0,0,0
0,0,0
0,0,0
0,0,0
0,0,0
0,0,0
0,0,0
0,0,0
0,0,0
0,0,0
0,0,0
0,0,0
0,0,0
0,0,0
0,0,0
0,0,0
0,0,0
0,0,0
0,0,0
0,0,0
0,0,0
0,0,0
0,0,0
0,0,0
0,0,0
0,0,0
0,0,0
0,0,0
0,0,0
0,0,0
0,0,0
0,0,0
0,0,0
0,0,0
0,0,0
0,0,0
0,0,0
0,0,0
0,0,0
0,0,0
0,0,0
0,0,0
0,0,0
0,0,0
0,0,0
0,0,0
0,0,0
0,0,0
0,0,0
0,0,0
0,0,0
0,0,0
0,0,0
0,0,0
0,0,0
0,0,0
0,0,0
0,0,0
0,0,0
0,0,0
0,0,0
0,0,0
0,0,0
0,0,0
0,0,0
0,0,0
0,0,0
0,0,0
0,0,0
0,0,0
0,0,0
0,0,0
0,0,0
0,0,0
0,0,0
0,0,0
0,0,0
0,0,0
0,0,0
0,0,0
0,0,0
0,0,0
0,0,0
0,0,0
0,0,0
0,0,0
0,0,0
0,0,0
0,0,0
0,0,0
0,0,0
0,0,0
0,0,0
0,0,0
0,0,0
0,0,0
0,0,0
0,0,0
0,0,0
0,0,0
0,0,0
0,0,0
0,0,0
0,0,0
0,0,0
0,0,0
0,0,0
0,0,0
0,0,0
0,0,0
0,0,0
0,0,0
0,0,0
0.41,0.01,0.92
0.41,0.01,0.92
0.42,0.01,0.92
0.42,0.01,0.92
0.41,0.01,0.92
0.41,0.01,0.92
0.41,0.01,0.92
0.41,0.01,0.92
0.41,0.01,0.92
0.41,0.01,0.92
0.42,0.01,0.92
0.41,0.01,0.92
0.41,0.01,0.92
0.41,0,0.92
0.41,0,0.92
0.41,0,0.92
0.41,0,0.92
0.41,0.01,0.92
0.41,0.01,0.92
0.42,0.01,0.92
0.42,0.01,0.92
0.41,0.01,0.92
0.41,0.01,0.92
0.41,0,0.92
0.4,0,0.92
0.4,0.01,0.92
0.41,0,0.92
0.41,0,0.92
0.41,0,0.92
0.41,0.01,0.92
0.41,0,0.92
0.41,0,0.92
0.41,0,0.92
0.41,0,0.92
0.41,0.01,0.92
0.41,0,0.92
0.41,0,0.92
0.41,0,0.92
0.41,0.01,0.92
0.41,0.01,0.92
0.41,0.01,0.92
0.42,0.01,0.92
0.42,0.01,0.92
0.42,0,0.92
0.41,0,0.92
0.41,0,0.91
0.41,0,0.92
0.41,0,0.92
0.41,0,0.92
0.41,0,0.92
0.41,0,0.92
0.42,0.01,0.92
0.42,0.01,0.92
0.42,0.01,0.92
0.42,0.01,0.92
0.41,0.01,0.92
0.41,0.01,0.92
0.42,0.01,0.92
0.42,0.01,0.92
0.41,0.01,0.92
0.41,0.01,0.92
0.41,0,0.92
0.41,0,0.92
0.41,0,0.92
0.41,0,0.92
0.42,0,0.92
0.42,0,0.92
0.41,0.01,0.92
0.41,0.01,0.92
0.41,0.01,0.92
0.41,0.01,0.92
0.41,0.01,0.92
0.41,0.01,0.92
0.41,0.01,0.92
0.41,0.01,0.92
0.41,0.01,0.92
0.41,0.01,0.92
0.4,0,0.92
0.4,0,0.92
0.41,0.01,0.92
0.41,0,0.92
0.41,0,0.92
0.41,0,0.92
0.41,0,0.92
0.41,0,0.92
0.41,0,0.92
0.4,0.01,0.92
0.41,0.01,0.92
0.42,0.01,0.92
0.42,0.01,0.92
0.42,0.01,0.92
0.42,0.01,0.92
0.41,0.01,0.92
0.41,0,0.92
0.41,0,0.92
0.41,0,0.92
0.41,0,0.92
0.41,0,0.92
0.4,0,0.92
0.4,0,0.92
0.41,0,0.92
0.41,0.01,0.92
0.41,0.01,0.92
0.41,0.01,0.92
0.41,0,0.92
0.41,0,0.92
0.41,0.01,0.92
0.41,0.01,0.92
0.41,0.01,0.92
0.41,0,0.92
0.41,0,0.92
0.41,0,0.92
0.41,0,0.92
0.41,0,0.92
0.41,0,0.92
0.41,0,0.92
0.41,0,0.92
0.42,0,0.92
0.42,0,0.92
0.42,0.01,0.92
0.42,0.01,0.92
0.41,0.01,0.92
0.41,0.01,0.92
0.41,0.01,0.92
0.41,0,0.92
0.41,0,0.92
0.42,0,0.92
0.42,0,0.91
0.42,0,0.92
0.42,0,0.92
0.41,0,0.92
0.41,0,0.92
0.41,0,0.92
0.41,0,0.92
0.41,0,0.92
0.42,0.01,0.92
0.43,0.01,0.92
0.42,0.01,0.92
0.42,0,0.92
0.42,0.01,0.92
0.42,0,0.92
0.42,0,0.92
0.42,0.01,0.92
0.42,0.01,0.92
0.42,0,0.92
0.42,0,0.92
0.42,0,0.92
0.42,0,0.92
0.42,0,0.92
0.42,0.01,0.92
0.42,0.01,0.92
0.42,0.01,0.91
0.42,0.01,0.91
0.43,0.01,0.91
0.43,0.01,0.92
0.43,0.01,0.92
0.42,0,0.92
0.42,0,0.92
0.42,0,0.92
0.41,0,0.92
0.41,0,0.92
0.41,0,0.92
0.41,0,0.92
0.41,0,0.92
0.4,0,0.92
0.41,0,0.93
0.42,0.01,0.93
0.41,0.01,0.92
0.41,0.01,0.92
0.41,0.01,0.93
0.42,0,0.94
0.44,0,0.95
0.46,0,0.94
0.45,0.01,0.94
0.44,0.01,0.95
0.43,-0.01,0.96
0.42,-0.02,0.97
0.43,-0.03,0.97
0.47,-0.06,0.99
0.45,-0.07,1
0.41,-0.06,1
0.41,-0.07,1.01
0.37,-0.09,1.05
0.33,-0.1,1.06
0.31,-0.09,1.02
0.29,-0.09,1.01
0.29,-0.09,1
0.3,-0.09,1.01
0.31,-0.1,1.01
0.35,-0.09,1.01
0.37,-0.06,0.99
0.39,-0.07,1
0.41,-0.09,0.96
0.41,-0.06,0.95
0.38,-0.07,0.94
0.37,-0.05,0.94
0.36,-0.03,0.95
0.35,-0.02,0.96
0.34,-0.01,0.96
0.34,-0.01,0.96
0.33,0,0.96
0.31,0.01,0.96
0.3,0.02,0.96
0.27,0.03,0.96
0.25,0.04,0.96
0.23,0.04,0.96
0.23,0.04,0.96
0.23,0.05,0.96
0.23,0.06,0.96
0.22,0.08,0.96
0.2,0.09,0.95
0.19,0.11,0.94
0.17,0.11,0.92
0.17,0.11,0.92
0.18,0.12,0.93
0.19,0.13,0.93
0.19,0.14,0.93
0.2,0.14,0.92
0.2,0.14,0.92
0.2,0.14,0.92
0.21,0.15,0.92
0.23,0.15,0.93
0.25,0.15,0.95
0.27,0.15,0.97
0.31,0.15,0.99
0.35,0.14,1.01
0.4,0.14,1.03
0.42,0.13,1.03
0.43,0.13,1.02
0.44,0.13,1.01
0.46,0.13,1.01
0.49,0.14,1
0.52,0.14,0.99
0.54,0.13,0.98
0.56,0.12,0.97
0.58,0.11,0.97
0.6,0.1,0.97
0.6,0.09,0.97
0.61,0.06,0.95
0.64,0.03,0.92
0.66,-0.01,0.91
0.68,-0.04,0.89
0.71,-0.06,0.89
0.76,-0.08,0.9
0.81,-0.1,0.92
0.84,-0.11,0.94
0.82,-0.12,0.94
0.81,-0.12,0.93
0.81,-0.14,0.91
0.81,-0.16,0.88
0.81,-0.16,0.85
0.81,-0.17,0.81
0.8,-0.17,0.78
0.8,-0.19,0.76
0.8,-0.23,0.75
0.82,-0.24,0.76
0.82,-0.25,0.75
0.79,-0.26,0.72
0.75,-0.26,0.69
0.68,-0.26,0.65
0.61,-0.27,0.61
0.56,-0.26,0.58
0.52,-0.26,0.55
0.51,-0.29,0.53
0.54,-0.3,0.54
0.58,-0.29,0.57
0.59,-0.3,0.58
0.58,-0.3,0.58
0.55,-0.29,0.56
0.52,-0.28,0.53
0.5,-0.25,0.49
0.49,-0.25,0.5
0.5,-0.25,0.52
0.52,-0.26,0.54
0.53,-0.26,0.56
0.53,-0.26,0.57
0.53,-0.26,0.57
0.52,-0.25,0.57
0.52,-0.25,0.56
0.51,-0.25,0.56
0.51,-0.25,0.56
0.54,-0.25,0.57
0.57,-0.25,0.6
0.58,-0.26,0.62
0.59,-0.27,0.64
0.6,-0.28,0.65
0.6,-0.29,0.65
0.59,-0.3,0.65
0.58,-0.3,0.65
0.58,-0.3,0.66
0.59,-0.3,0.66
0.6,-0.29,0.66
0.6,-0.29,0.67
0.6,-0.28,0.67
0.61,-0.28,0.67
0.63,-0.28,0.68
0.63,-0.28,0.66
0.63,-0.29,0.66
0.62,-0.28,0.65
0.61,-0.27,0.63
0.63,-0.27,0.61
0.65,-0.26,0.61
0.65,-0.3,0.6
0.67,-0.27,0.62
0.77,-0.26,0.63
0.76,-0.29,0.61
0.74,-0.26,0.64
0.84,-0.31,0.65
0.92,-0.33,0.67
0.98,-0.34,0.69
1,-0.4,0.7
1.02,-0.42,0.71
1.03,-0.43,0.7
1.06,-0.43,0.7
1.08,-0.43,0.7
1.09,-0.43,0.69
1.07,-0.42,0.68
1.05,-0.41,0.66
1.03,-0.4,0.63
1.02,-0.38,0.6
1.02,-0.36,0.58
1.02,-0.33,0.56
1.02,-0.3,0.56
0.96,-0.28,0.56
0.93,-0.28,0.55
0.91,-0.26,0.54
0.89,-0.26,0.52
0.87,-0.26,0.51
0.83,-0.25,0.5
0.79,-0.25,0.47
0.75,-0.25,0.46
0.75,-0.26,0.48
0.76,-0.28,0.5
0.76,-0.3,0.52
0.74,-0.31,0.52
0.7,-0.31,0.5
0.66,-0.31,0.49
0.64,-0.3,0.48
0.62,-0.28,0.48
0.61,-0.27,0.48
0.59,-0.26,0.48
0.58,-0.24,0.48
0.57,-0.24,0.48
0.6,-0.25,0.5
0.62,-0.26,0.51
0.63,-0.27,0.52
0.62,-0.28,0.52
0.59,-0.28,0.53
0.59,-0.3,0.55
0.62,-0.31,0.57
0.64,-0.32,0.6
0.65,-0.35,0.62
0.66,-0.37,0.65
0.67,-0.39,0.68
0.68,-0.41,0.68
0.66,-0.43,0.68
0.64,-0.44,0.66
0.63,-0.44,0.64
0.61,-0.45,0.64
0.61,-0.45,0.65
0.61,-0.44,0.66
0.61,-0.44,0.68
0.6,-0.44,0.69
0.59,-0.43,0.69
0.57,-0.42,0.67
0.56,-0.41,0.66
0.56,-0.4,0.66
0.55,-0.4,0.65
0.55,-0.41,0.66
0.54,-0.44,0.68
0.55,-0.46,0.69
0.56,-0.47,0.7
0.57,-0.5,0.7
0.57,-0.48,0.7
0.58,-0.56,0.67
0.58,-0.55,0.67
0.61,-0.54,0.67
0.61,-0.59,0.67
0.62,-0.61,0.69
0.65,-0.6,0.69
0.64,-0.63,0.69
0.63,-0.66,0.7
0.62,-0.68,0.7
0.63,-0.63,0.71
0.65,-0.61,0.7
0.68,-0.7,0.68
0.7,-0.75,0.68
0.71,-0.77,0.68
0.73,-0.88,0.69
0.73,-0.89,0.69
0.72,-0.81,0.69
0.67,-0.81,0.66
0.65,-0.81,0.62
0.67,-0.8,0.58
0.6,-0.72,0.54
0.53,-0.64,0.5
0.58,-0.6,0.49
0.57,-0.58,0.49
0.58,-0.59,0.48
0.61,-0.59,0.49
0.66,-0.69,0.48
0.65,-0.67,0.48
0.6,-0.67,0.49
0.56,-0.71,0.49
0.55,-0.71,0.5
0.57,-0.69,0.5
0.58,-0.67,0.48
0.57,-0.64,0.47
0.55,-0.6,0.46
0.51,-0.57,0.45
0.51,-0.53,0.44
0.52,-0.49,0.43
0.51,-0.45,0.43
0.49,-0.43,0.44
0.48,-0.41,0.45
0.48,-0.39,0.46
0.47,-0.37,0.47
0.48,-0.37,0.47
0.49,-0.37,0.48
0.49,-0.37,0.5
0.5,-0.37,0.52
0.5,-0.38,0.53
0.52,-0.39,0.54
0.53,-0.39,0.56
0.53,-0.4,0.58
0.53,-0.42,0.6
0.53,-0.44,0.6
0.58,-0.45,0.6
0.6,-0.46,0.61
0.62,-0.48,0.63
0.64,-0.5,0.64
0.64,-0.51,0.65
0.65,-0.52,0.66
0.66,-0.53,0.67
0.67,-0.54,0.66
0.66,-0.55,0.65
0.66,-0.55,0.65
0.67,-0.57,0.65
0.67,-0.59,0.66
0.66,-0.61,0.68
0.67,-0.62,0.69
0.7,-0.61,0.69
0.74,-0.64,0.69
0.81,-0.69,0.71
0.89,-0.75,0.75
0.92,-0.82,0.79
0.89,-0.86,0.8
0.87,-0.87,0.78
0.84,-0.84,0.75
0.83,-0.81,0.71
0.8,-0.76,0.65
0.79,-0.72,0.59
0.75,-0.67,0.53
0.72,-0.62,0.52
0.74,-0.62,0.52
0.76,-0.63,0.53
0.76,-0.64,0.54
0.74,-0.65,0.55
0.73,-0.67,0.55
0.73,-0.68,0.53
0.72,-0.69,0.51
0.72,-0.69,0.5
0.71,-0.67,0.48
0.71,-0.67,0.46
0.69,-0.66,0.46
0.66,-0.65,0.46
0.62,-0.62,0.45
0.59,-0.6,0.44
0.56,-0.58,0.43
0.49,-0.53,0.41
0.48,-0.52,0.41
0.48,-0.51,0.41
0.49,-0.5,0.4
0.49,-0.5,0.41
0.49,-0.51,0.41
0.49,-0.51,0.42
0.5,-0.51,0.42
0.49,-0.52,0.43
0.49,-0.53,0.44
0.49,-0.54,0.44
0.56,-0.7,0.52
0.56,-0.74,0.54
0.57,-0.76,0.55
0.57,-0.78,0.55
0.56,-0.8,0.56
0.56,-0.81,0.57
0.56,-0.8,0.57
0.56,-0.79,0.57
0.55,-0.78,0.58
0.56,-0.78,0.58
0.57,-0.8,0.58
0.58,-0.82,0.59
0.46,-0.91,0.62
0.44,-0.87,0.62
0.41,-0.83,0.59
0.39,-0.79,0.58
0.37,-0.78,0.58
0.36,-0.88,0.57
0.34,-0.85,0.58
0.34,-0.81,0.59
0.36,-0.77,0.58
0.37,-0.72,0.57
0.38,-0.68,0.57
0.4,-0.63,0.55
0.41,-0.6,0.54
0.4,-0.57,0.53
0.39,-0.55,0.54
0.38,-0.53,0.54
0.37,-0.52,0.55
0.38,-0.51,0.55
0.39,-0.51,0.55
0.39,-0.52,0.55
0.4,-0.52,0.56
0.41,-0.52,0.56
0.42,-0.53,0.57
0.44,-0.54,0.58
0.45,-0.55,0.59
0.45,-0.56,0.59
0.45,-0.57,0.59
0.46,-0.58,0.59
0.47,-0.6,0.58
0.47,-0.61,0.58
0.47,-0.63,0.58
0.48,-0.64,0.58
0.47,-0.66,0.59
0.47,-0.67,0.59
0.47,-0.69,0.59
0.46,-0.7,0.59
0.45,-0.7,0.59
0.45,-0.72,0.58
0.44,-0.73,0.57
0.43,-0.73,0.57
0.43,-0.73,0.56
0.42,-0.73,0.55
0.45,-0.75,0.55
0.58,-0.92,0.47
0.59,-0.86,0.45
0.6,-0.81,0.44
0.6,-0.79,0.43
0.6,-0.78,0.43
0.61,-0.81,0.42
0.59,-0.83,0.42
0.56,-0.85,0.4
0.54,-0.86,0.39
0.53,-0.87,0.38
0.52,-0.86,0.36
0.52,-0.84,0.33
0.51,-0.81,0.33
0.5,-0.78,0.34
0.48,-0.76,0.34
0.48,-0.74,0.33
0.48,-0.73,0.32
0.47,-0.75,0.31
0.47,-0.77,0.32
0.47,-0.78,0.33
0.48,-0.8,0.32
0.48,-0.82,0.33
0.49,-0.83,0.33
0.5,-0.83,0.33
0.5,-0.83,0.33
0.51,-0.83,0.34
0.51,-0.83,0.34
0.51,-0.85,0.35
0.5,-0.86,0.36
0.24,-0.76,0.42
0.22,-0.73,0.42
0.19,-0.7,0.42
0.18,-0.69,0.42
0.17,-0.7,0.42
0.16,-0.72,0.42
0.16,-0.75,0.42
0.17,-0.78,0.43
0.18,-0.8,0.43
0.18,-0.84,0.44
0.2,-0.87,0.46
0.21,-0.89,0.47
0.22,-0.9,0.48
0.23,-0.9,0.49
0.24,-0.9,0.49
0.25,-0.88,0.49
0.22,-0.8,0.48
0.23,-0.8,0.48
0.25,-0.82,0.47
0.26,-0.83,0.46
0.27,-0.85,0.46
0.34,-0.95,0.46
0.34,-0.97,0.47
0.34,-0.99,0.47
0.34,-1,0.47
0.35,-1,0.47
0.39,-0.98,0.32
0.38,-0.97,0.31
0.38,-0.97,0.31
0.37,-0.97,0.3
0.36,-0.95,0.29
0.34,-0.91,0.27
0.33,-0.88,0.26
0.33,-0.87,0.25
0.32,-0.85,0.24
0.31,-0.81,0.23
0.3,-0.79,0.23
0.3,-0.77,0.22
0.29,-0.76,0.22
0.28,-0.76,0.22
0.28,-0.75,0.23
0.27,-0.75,0.24
0.26,-0.76,0.25
0.24,-0.77,0.25
0.23,-0.77,0.25
0.21,-0.8,0.24
0.21,-0.8,0.23
0.21,-0.81,0.24
0.19,-0.92,0.28
0.19,-0.92,0.28
0.18,-0.95,0.28
0.16,-0.98,0.27
0.16,-1,0.27
0.18,-1.08,0.28
0.17,-1.08,0.28
0.17,-1.07,0.28
0.17,-1.06,0.28
0.18,-1.06,0.28
0.17,-1.06,0.28
0.17,-1.03,0.27
0.17,-1.03,0.28
0.17,-1.02,0.28
0.17,-1.02,0.29
0.17,-1.03,0.29
0.17,-1.03,0.29
0.17,-1.03,0.29
0.17,-1.03,0.29
0.16,-1.03,0.28
0.16,-1.03,0.28
0.16,-1.03,0.28
0.16,-1.03,0.27
0.16,-1.02,0.27
0.16,-1,0.27
0.16,-0.99,0.27
0.15,-0.99,0.27
0.15,-0.98,0.27
0.16,-0.97,0.27
0.16,-0.96,0.26
0.16,-0.95,0.26
0.16,-0.94,0.26
0.16,-0.94,0.26
0.16,-0.93,0.25
0.16,-0.93,0.25
0.17,-0.93,0.25
0.17,-0.94,0.25
0.17,-0.94,0.25
0.17,-0.94,0.25
0.17,-0.95,0.24
0.18,-0.95,0.24
0.19,-0.95,0.24
0.19,-0.95,0.23
0.19,-0.96,0.22
0.18,-0.96,0.22
0.18,-0.97,0.23
0.18,-0.97,0.23
0.18,-0.98,0.22
0.16,-0.99,0.21
0.15,-1,0.2
0.15,-1.01,0.19
0.15,-1.01,0.17
0.15,-1.02,0.15
0.15,-1,0.14
0.13,-0.99,0.1
0.07,-1.03,0.06
0.05,-1.02,0.05
0.05,-1,0.07
0.08,-0.99,0.05
0.06,-1,0.02
0.01,-1.01,0
0.01,-1.01,-0.04
0.01,-1.05,-0.06
0.01,-1.07,-0.08
0.01,-1.06,-0.09
0.01,-1.08,-0.12
0,-1.11,-0.12
0.02,-1.06,-0.12
0.01,-1.04,-0.13
0.02,-1.03,-0.12
0.02,-1.01,-0.11
0.01,-1,-0.1
0,-1,-0.09
0,-1,-0.08
0.01,-1,-0.08
0,-1.01,-0.07
0,-1.02,-0.06
0.01,-1.04,-0.05
0.01,-1.04,-0.04
0.02,-1.04,-0.02
0.03,-1.04,0
0.04,-1.05,0.03
0.05,-1.05,0.06
0.06,-1.05,0.09
0.06,-1.06,0.12
0.06,-1.07,0.15
0.08,-1.13,0.23
0.09,-1.15,0.24
0.09,-1.18,0.25
0.1,-1.22,0.27
0.09,-1.26,0.3
0.07,-1.28,0.32
-0.05,-1.09,0.35
-0.06,-1.04,0.35
-0.08,-0.99,0.34
-0.09,-0.94,0.33
-0.11,-0.92,0.32
-0.11,-0.9,0.32
-0.12,-0.88,0.32
-0.12,-0.88,0.32
-0.12,-0.88,0.32
-0.11,-0.89,0.31
-0.11,-0.91,0.31
-0.1,-0.92,0.31
-0.09,-0.94,0.3
-0.07,-0.96,0.29
-0.07,-0.97,0.28
-0.07,-0.98,0.27
-0.07,-0.98,0.26
-0.06,-0.98,0.25
-0.06,-0.98,0.25
-0.06,-0.99,0.24
-0.06,-0.98,0.24
-0.06,-0.98,0.23
-0.05,-0.98,0.23
-0.04,-0.97,0.22
-0.02,-0.97,0.22
0,-0.97,0.23
0.01,-0.97,0.23
0.01,-0.96,0.23
0.02,-0.96,0.23
0.02,-0.95,0.23
0.03,-0.94,0.23
0.04,-0.94,0.23
0.05,-0.95,0.24
0.05,-0.95,0.24
0.06,-0.95,0.24
0.06,-0.95,0.23
0.07,-0.95,0.23
0.07,-0.94,0.24
0.08,-0.95,0.24
0.08,-0.95,0.25
0.08,-0.95,0.25
0.08,-0.94,0.25
0.08,-0.93,0.25
0.08,-0.93,0.26
0.09,-0.92,0.26
0.11,-0.92,0.25
0.12,-0.92,0.24
0.12,-0.92,0.23
0.11,-0.92,0.24
0.1,-0.92,0.25
0.08,-0.93,0.27
0.07,-0.94,0.27
0.06,-0.95,0.29
0.06,-0.95,0.3
0.06,-0.96,0.3
0.07,-0.96,0.29
0.07,-0.96,0.28
0.08,-0.96,0.27
0.08,-0.96,0.26
0.07,-0.96,0.26
0.06,-0.96,0.26
0.06,-0.95,0.26
0.06,-0.95,0.26
0.05,-0.94,0.26
0.05,-0.95,0.26
0.05,-0.96,0.26
0.04,-0.98,0.25
0.04,-1,0.24
0.04,-1.01,0.22
0.03,-1.02,0.2
0.02,-1.02,0.17
0.02,-1,0.16
0.02,-0.99,0.15
0.02,-0.98,0.14
0.02,-0.97,0.12
0.03,-0.97,0.11
0.03,-0.97,0.09
0.04,-0.98,0.09
0.03,-0.99,0.07
0.04,-0.99,0.06
0.04,-1.01,0.06
0.05,-1.02,0.05
0.06,-1.05,0.04
0.07,-1.11,0.03
0.09,-1.18,0.02
0.13,-1.25,0.02
0.16,-1.32,0.03
0.18,-1.34,0.03
0.18,-1.33,0.03
0.17,-1.3,0.02
0.16,-1.26,0.02
0.17,-1.23,0.01
0.16,-1.19,0
0.15,-1.15,0
0.15,-1.12,0
0.16,-1.09,0
0.16,-1.07,0.02
0.15,-1.03,0.04
0.14,-1.02,0.06
0.15,-1.01,0.07
0.16,-1.01,0.08
0.17,-1,0.09
0.18,-0.99,0.11
0.19,-0.98,0.12
0.2,-0.96,0.14
0.21,-0.95,0.15
0.22,-0.94,0.16
0.23,-0.93,0.17
0.23,-0.92,0.18
0.25,-0.91,0.19
0.26,-0.91,0.2
0.26,-0.91,0.2
0.26,-0.9,0.2
0.27,-0.9,0.21
0.27,-0.9,0.21
0.28,-0.89,0.21
0.28,-0.89,0.21
0.28,-0.89,0.22
0.29,-0.89,0.22
0.29,-0.89,0.22
0.3,-0.9,0.23
0.3,-0.91,0.23
0.31,-0.92,0.24
0.31,-0.96,0.25
0.31,-0.98,0.25
0.31,-1,0.25
0.31,-1.02,0.25
0.31,-1.04,0.25
0.31,-1.05,0.25
0.31,-1.04,0.25
0.31,-1.01,0.25
0.3,-0.97,0.26
0.29,-0.94,0.27
0.29,-0.91,0.28
0.3,-0.9,0.29
0.31,-0.89,0.3
0.3,-0.9,0.31
0.29,-0.92,0.34
0.27,-0.94,0.36
0.25,-0.95,0.37
0.24,-0.97,0.38
0.23,-0.99,0.38
0.22,-1,0.38
0.22,-1,0.39
0.21,-0.99,0.39
0.21,-0.98,0.41
0.21,-0.98,0.4
0.2,-0.98,0.4
0.18,-0.97,0.4
0.17,-0.97,0.41
0.17,-0.98,0.41
0.16,-0.97,0.4
0.16,-0.96,0.4
0.18,-0.96,0.4
0.18,-0.96,0.39
0.18,-0.96,0.4
0.18,-0.96,0.41
0.19,-0.94,0.4
0.19,-0.94,0.4
0.19,-0.93,0.4
0.18,-0.93,0.4
0.19,-0.93,0.39
0.21,-0.93,0.33
0.21,-0.93,0.32
0.21,-0.93,0.32
0.21,-0.93,0.32
0.22,-0.92,0.32
0.22,-0.92,0.32
0.24,-0.92,0.3
0.24,-0.92,0.3
0.24,-0.91,0.3
0.24,-0.91,0.3
0.24,-0.9,0.31
0.23,-0.89,0.31
0.25,-0.84,0.36
0.25,-0.84,0.36
0.25,-0.84,0.37
0.26,-0.84,0.38
0.27,-0.83,0.39
0.27,-0.82,0.41
0.27,-0.81,0.42
0.27,-0.8,0.43
0.27,-0.79,0.44
0.29,-0.77,0.44
0.35,-0.75,0.46
0.35,-0.73,0.49
0.35,-0.7,0.52
0.35,-0.7,0.52
0.36,-0.68,0.5
0.38,-0.68,0.47
0.42,-0.64,0.45
0.46,-0.57,0.47
0.49,-0.56,0.47
0.5,-0.49,0.47
0.49,-0.46,0.46
0.48,-0.45,0.41
0.43,-0.44,0.37
0.4,-0.44,0.35
0.4,-0.38,0.33
0.38,-0.25,0.34
0.38,-0.25,0.34
0.38,-0.25,0.29
0.39,-0.28,0.25
0.45,-0.3,0.2
0.5,-0.27,0.28
0.53,-0.22,0.35
0.52,-0.2,0.38
0.5,-0.2,0.42
0.45,-0.19,0.47
0.4,-0.17,0.44
0.43,-0.15,0.34
0.5,-0.16,0.25
0.56,-0.19,0.21
0.57,-0.23,0.21
0.52,-0.27,0.22
0.44,-0.35,0.23
0.32,-0.41,0.23
0.23,-0.46,0.21
0.24,-0.57,0.19
0.32,-0.69,0.15
0.39,-0.92,0.14
0.42,-1.11,0.19
0.44,-1.44,0.23
0.41,-1.82,0.27
0.43,-1.78,0.22
0.38,-1.71,0.14
0.26,-1.56,0.14
0.25,-1.46,0.13
0.18,-1.63,0.11
0.31,-1.81,0.02
0.56,-1.82,-0.07
0.2,-1.65,-0.03
0.03,-1.63,-0.06
-0.06,-1.6,-0.09
-0.26,-1.5,-0.05
-0.46,-1.32,-0.03
-0.49,-1.26,-0.12
-0.46,-1.35,-0.24
-0.56,-1.38,-0.35
-0.84,-1.36,-0.54
-1.37,-1.39,-0.88
-1.58,-1.64,-1.37
-0.76,-1.66,-2.47
1.95,-2.72,0.33
3.14,-3.99,3.97
-0.82,-3.47,0.03
-1.27,-2.3,-1.89
1.55,-1.38,0.44
0.7,-0.82,1.08
0.75,-0.35,1.3
0.2,-0.78,-0.12
0.2,-0.78,-0.12
0.42,-0.55,0.06
0.75,-0.79,0.44
0.19,-1.18,0.28
0.44,-0.99,0.17
0.42,-0.78,-0.08
0.25,-0.75,-0.22
0.43,-0.67,-0.07
0.83,-0.75,0.43
0.79,-0.92,0.72
0.49,-0.97,0.54
0.33,-0.98,0.37
0.4,-0.71,0.19
0.71,-0.63,0.18
0.68,-0.83,0.44
0.49,-0.94,0.63
0.44,-0.93,0.56
0.33,-0.68,0.28
0.3,-0.55,0.24
0.59,-0.75,0.62
0.75,-0.76,0.92
0.74,-0.49,0.9
0.73,-0.47,0.73
0.56,-0.78,0.46
0.35,-1.08,0.2
0.3,-1.17,0.05
0.32,-1.08,-0.13
0.34,-0.8,-0.67
0.65,-1.15,-0.25
0.58,-1.06,0.25
0.56,-0.9,0.23
0.5,-0.9,0.08
0.43,-0.89,0.14
0.43,-0.9,0.22
0.5,-0.84,0.22
0.46,-0.8,0.16
0.38,-0.81,0.13
0.36,-0.89,0.2
0.29,-0.95,0.31
0.37,-0.93,0.26
0.45,-0.93,0.24
0.45,-0.93,0.23
0.42,-0.92,0.17
0.38,-0.93,0.17
0.32,-0.96,0.2
0.3,-0.94,0.15
0.34,-0.94,0.15
0.39,-0.95,0.19
0.42,-0.95,0.2
0.38,-0.93,0.21
0.34,-0.93,0.18
0.35,-0.95,0.15
0.33,-0.93,0.14
0.42,-0.94,0.15
0.39,-0.94,0.15
0.39,-0.92,0.11
0.41,-0.92,0.11
0.37,-0.93,0.12
0.35,-0.93,0.1
0.36,-0.94,0.09
0.4,-0.97,0.11
0.4,-0.95,0.11
0.4,-0.92,0.08
0.41,-0.92,0.06
0.39,-0.91,0.07
0.41,-0.93,0.12
0.39,-0.97,0.18
0.37,-0.96,0.21
0.39,-0.94,0.18
0.38,-0.92,0.13
0.37,-0.93,0.13
0.38,-0.94,0.16
0.39,-0.94,0.18
0.39,-0.93,0.17
0.4,-0.92,0.14
0.41,-0.93,0.15
0.4,-0.93,0.15
0.39,-0.91,0.13
0.39,-0.92,0.12
0.4,-0.93,0.18
0.43,-0.91,0.2
0.45,-0.89,0.17
0.44,-0.91,0.15
0.43,-0.93,0.16
0.44,-0.92,0.21
0.46,-0.87,0.25
0.45,-0.85,0.25
0.43,-0.87,0.23
0.41,-0.89,0.2
0.41,-0.9,0.2
0.44,-0.9,0.26
0.45,-0.88,0.3
0.47,-0.85,0.28
0.48,-0.85,0.28
0.48,-0.87,0.32
0.47,-0.86,0.33
0.47,-0.84,0.3
0.48,-0.83,0.29
0.5,-0.84,0.31
0.49,-0.84,0.34
0.48,-0.83,0.35
0.48,-0.83,0.35
0.47,-0.83,0.35
0.46,-0.84,0.34
0.47,-0.84,0.35
0.5,-0.83,0.38
0.49,-0.82,0.37
0.48,-0.81,0.35
0.47,-0.8,0.33
0.49,-0.8,0.35
0.5,-0.8,0.39
0.48,-0.79,0.38
0.45,-0.78,0.36
0.49,-0.78,0.4
0.52,-0.78,0.44
0.51,-0.78,0.46
0.5,-0.77,0.46
0.51,-0.77,0.46
0.5,-0.76,0.45
0.51,-0.75,0.43
0.53,-0.75,0.44
0.54,-0.75,0.45
0.53,-0.75,0.44
0.53,-0.75,0.44
0.56,-0.74,0.46
0.55,-0.74,0.48
0.53,-0.74,0.48
0.53,-0.73,0.47
0.54,-0.73,0.47
0.53,-0.73,0.47
0.53,-0.73,0.47
0.55,-0.74,0.48
0.54,-0.73,0.47
0.54,-0.72,0.45
0.53,-0.72,0.45
0.53,-0.73,0.47
0.54,-0.72,0.46
0.54,-0.73,0.46
0.55,-0.73,0.48
0.53,-0.73,0.47
0.52,-0.72,0.46
0.54,-0.73,0.47
0.54,-0.73,0.48
0.53,-0.72,0.48
0.54,-0.72,0.48
0.54,-0.73,0.48
0.53,-0.73,0.47
0.52,-0.73,0.48
0.52,-0.73,0.48
0.53,-0.72,0.48
0.53,-0.73,0.48
0.53,-0.73,0.47
0.53,-0.73,0.47
0.53,-0.72,0.48
0.53,-0.73,0.47
0.53,-0.73,0.47
0.54,-0.72,0.47
0.53,-0.72,0.48
0.53,-0.73,0.48
0.54,-0.74,0.47
0.53,-0.74,0.47
0.53,-0.74,0.47
0.53,-0.74,0.46
0.54,-0.73,0.47
0.53,-0.72,0.47
0.52,-0.73,0.47
0.52,-0.73,0.47
0.52,-0.73,0.46
0.53,-0.74,0.47
0.52,-0.74,0.46
0.53,-0.74,0.46
0.54,-0.73,0.47
0.53,-0.73,0.47
0.54,-0.73,0.48
0.54,-0.73,0.48
0.53,-0.73,0.47
0.53,-0.72,0.47
0.54,-0.72,0.48
0.53,-0.73,0.48
0.53,-0.73,0.49
0.53,-0.73,0.49
0.54,-0.72,0.48
0.53,-0.72,0.48
0.53,-0.71,0.48
0.52,-0.72,0.48
0.52,-0.72,0.48
0.53,-0.72,0.48
0.53,-0.72,0.48
0.53,-0.72,0.48
0.54,-0.72,0.47
0.55,-0.71,0.47
0.56,-0.72,0.49
0.56,-0.72,0.49
0.55,-0.72,0.49
0.55,-0.71,0.48
0.56,-0.71,0.48
0.55,-0.71,0.48
0.55,-0.71,0.49
0.55,-0.71,0.48
0.54,-0.71,0.47
0.54,-0.71,0.47
0.55,-0.71,0.49
0.55,-0.71,0.49
0.55,-0.71,0.49
0.55,-0.71,0.49
0.55,-0.71,0.49
0.54,-0.71,0.49
0.54,-0.71,0.49
0.55,-0.71,0.49
0.55,-0.71,0.48
0.54,-0.71,0.48
0.54,-0.71,0.48
0.55,-0.71,0.48
0.55,-0.71,0.49
0.55,-0.71,0.49
0.54,-0.71,0.49
0.54,-0.71,0.49
0.54,-0.71,0.47
0.53,-0.71,0.47
0.54,-0.72,0.49
0.55,-0.71,0.5
0.55,-0.71,0.5
0.55,-0.71,0.5
0.54,-0.71,0.5
0.54,-0.71,0.5
0.54,-0.71,0.49
0.53,-0.71,0.49
0.53,-0.71,0.49
0.53,-0.71,0.49
0.53,-0.71,0.49
0.53,-0.71,0.49
0.54,-0.71,0.49
0.54,-0.71,0.49
0.53,-0.71,0.49
0.53,-0.72,0.49
0.54,-0.72,0.49
0.54,-0.72,0.49
0.53,-0.72,0.48
0.53,-0.72,0.48
0.53,-0.72,0.48
0.53,-0.72,0.48
0.53,-0.72,0.48
0.53,-0.72,0.48
0.54,-0.72,0.49
0.54,-0.72,0.49
0.53,-0.73,0.49
0.53,-0.72,0.48
0.54,-0.72,0.49
0.53,-0.72,0.49
0.53,-0.72,0.48
0.53,-0.72,0.49
0.54,-0.72,0.49
0.54,-0.72,0.49
0.54,-0.72,0.49
0.54,-0.72,0.49
0.54,-0.72,0.48
0.53,-0.72,0.48
0.53,-0.72,0.48
0.53,-0.72,0.48
0.53,-0.72,0.48
0.53,-0.72,0.48
0.53,-0.72,0.47
0.53,-0.72,0.47
0.54,-0.72,0.48
0.54,-0.72,0.49
0.54,-0.72,0.49
0.54,-0.72,0.49
0.54,-0.72,0.49
0.54,-0.72,0.5
0.53,-0.72,0.49
0.53,-0.72,0.49
0.53,-0.72,0.49
0.53,-0.72,0.49
0.53,-0.72,0.49
0.53,-0.72,0.49
0.54,-0.72,0.49
0.53,-0.72,0.48
0.53,-0.72,0.47
0.54,-0.72,0.48
0.54,-0.72,0.49
0.54,-0.72,0.49
0.54,-0.72,0.48
0.54,-0.72,0.48
0.54,-0.72,0.49
0.54,-0.72,0.49
0.53,-0.72,0.48
0.53,-0.72,0.48
0.53,-0.71,0.48
0.53,-0.71,0.48
0.53,-0.71,0.49
0.54,-0.72,0.49
0.55,-0.72,0.49
0.54,-0.72,0.48
0.54,-0.72,0.48
0.54,-0.72,0.48
0.54,-0.72,0.48
0.54,-0.72,0.48
0.54,-0.72,0.48
0.54,-0.72,0.49
0.54,-0.72,0.48
0.54,-0.72,0.48
0.54,-0.72,0.48
0.54,-0.72,0.48
0.54,-0.72,0.48
0.54,-0.72,0.48
0.54,-0.72,0.48
0.54,-0.72,0.48
0.53,-0.72,0.48
0.53,-0.72,0.49
0.54,-0.72,0.49
0.54,-0.72,0.49
0.54,-0.72,0.49
0.54,-0.72,0.49
0.53,-0.72,0.49
0.53,-0.72,0.49
0.53,-0.72,0.49
0.54,-0.72,0.49
0.53,-0.72,0.48
0.53,-0.72,0.48
0.54,-0.72,0.49
0.54,-0.72,0.48
0.54,-0.72,0.48
0.54,-0.72,0.48
0.54,-0.72,0.49
0.54,-0.72,0.48
0.53,-0.72,0.48
0.53,-0.72,0.48
0.54,-0.72,0.49
0.53,-0.72,0.48
0.53,-0.71,0.47
0.53,-0.72,0.48
0.53,-0.72,0.48
0.53,-0.72,0.49
0.53,-0.72,0.49
0.53,-0.72,0.48
0.53,-0.72,0.49
0.54,-0.72,0.49
0.53,-0.72,0.49
0.52,-0.72,0.48
0.53,-0.72,0.48
0.54,-0.72,0.48
0.53,-0.72,0.48
0.53,-0.72,0.48
0.54,-0.72,0.48
0.54,-0.72,0.48
0.54,-0.72,0.48
0.54,-0.72,0.48
0.53,-0.73,0.48
0.53,-0.73,0.49
0.53,-0.72,0.49
0.53,-0.72,0.48
0.52,-0.72,0.48
0.53,-0.72,0.49
0.54,-0.72,0.49
0.53,-0.73,0.49
0.52,-0.73,0.49
0.52,-0.72,0.49
0.52,-0.73,0.49
0.52,-0.73,0.48
0.52,-0.73,0.48
0.52,-0.73,0.48
0.53,-0.73,0.49
0.53,-0.73,0.49
0.53,-0.73,0.47
0.53,-0.74,0.47
0.53,-0.73,0.48
0.53,-0.73,0.48
0.52,-0.73,0.47
0.53,-0.73,0.47
0.53,-0.73,0.47
0.53,-0.73,0.48
0.52,-0.73,0.47
0.53,-0.74,0.46
0.52,-0.74,0.46
0.52,-0.74,0.47
0.53,-0.74,0.47
0.53,-0.74,0.47
0.53,-0.74,0.47
0.53,-0.74,0.47
0.52,-0.74,0.47
0.52,-0.74,0.46
0.52,-0.74,0.46
0.52,-0.74,0.46
0.52,-0.73,0.47
0.53,-0.74,0.47
0.52,-0.74,0.46
0.52,-0.74,0.46
0.53,-0.74,0.47
0.53,-0.74,0.47
0.52,-0.74,0.46
0.52,-0.73,0.46
0.53,-0.74,0.46
0.53,-0.74,0.46
0.52,-0.73,0.46
0.54,-0.74,0.47
0.54,-0.74,0.47
0.53,-0.74,0.47
0.53,-0.74,0.47
0.52,-0.74,0.46
0.53,-0.74,0.47
0.53,-0.74,0.47
0.53,-0.74,0.47
0.53,-0.74,0.47
0.53,-0.73,0.47
0.53,-0.73,0.47
0.52,-0.73,0.47
0.52,-0.74,0.47
0.53,-0.74,0.47
0.53,-0.73,0.47
0.53,-0.73,0.47
0.53,-0.73,0.47
0.52,-0.74,0.47
0.52,-0.74,0.47
0.52,-0.74,0.46
0.53,-0.74,0.47
0.53,-0.73,0.46
0.53,-0.73,0.46
0.53,-0.74,0.47
0.53,-0.74,0.47
0.53,-0.74,0.47
0.53,-0.74,0.47
0.53,-0.74,0.46
0.53,-0.73,0.46
0.53,-0.74,0.47
0.53,-0.74,0.46
0.53,-0.74,0.46
0.53,-0.74,0.46
0.53,-0.74,0.47
0.52,-0.74,0.46
0.52,-0.74,0.46
0.53,-0.74,0.47
0.53,-0.74,0.47
0.53,-0.74,0.47
0.53,-0.74,0.47
0.52,-0.74,0.47
0.52,-0.74,0.46
0.53,-0.74,0.47
0.53,-0.74,0.46
0.53,-0.74,0.46
0.52,-0.74,0.47
0.52,-0.74,0.46
0.52,-0.74,0.46
0.52,-0.74,0.46
0.52,-0.75,0.46
0.52,-0.75,0.46
0.51,-0.75,0.46
0.52,-0.75,0.46
0.52,-0.75,0.46
0.52,-0.74,0.46
0.52,-0.74,0.46
0.53,-0.74,0.46
0.52,-0.74,0.46
0.52,-0.75,0.46
0.52,-0.75,0.46
0.51,-0.75,0.46
0.51,-0.75,0.46
0.52,-0.75,0.47
0.52,-0.75,0.47
0.52,-0.74,0.46
0.51,-0.74,0.46
0.51,-0.74,0.45
0.51,-0.74,0.45
0.52,-0.74,0.46
0.51,-0.75,0.46
0.51,-0.74,0.46
0.52,-0.74,0.47
0.53,-0.74,0.47
0.52,-0.74,0.47
0.52,-0.74,0.47
0.52,-0.74,0.47
0.52,-0.74,0.47
0.52,-0.74,0.48
0.52,-0.74,0.48
0.51,-0.74,0.47
0.52,-0.74,0.47
0.52,-0.74,0.48
0.51,-0.74,0.47
0.52,-0.74,0.47
0.52,-0.74,0.47
0.52,-0.74,0.47
0.52,-0.74,0.47
0.52,-0.74,0.47
0.52,-0.74,0.47
0.52,-0.74,0.46
0.52,-0.74,0.46
0.52,-0.74,0.46
0.52,-0.75,0.46
0.51,-0.74,0.46
0.51,-0.75,0.46
0.51,-0.75,0.47
0.51,-0.74,0.46
0.51,-0.74,0.46
0.52,-0.74,0.46
0.52,-0.73,0.46
0.52,-0.74,0.46
0.52,-0.74,0.46
0.52,-0.74,0.46
0.52,-0.74,0.47
0.52,-0.74,0.47
0.52,-0.74,0.47
0.52,-0.74,0.47
0.52,-0.74,0.47
0.52,-0.74,0.47
0.52,-0.74,0.47
0.52,-0.74,0.48
0.52,-0.74,0.48
0.52,-0.74,0.47
0.52,-0.74,0.47
0.52,-0.73,0.47
0.52,-0.73,0.47
0.52,-0.74,0.48
0.52,-0.74,0.47
0.52,-0.74,0.47
0.53,-0.74,0.47
0.52,-0.74,0.47
0.52,-0.73,0.47
0.53,-0.73,0.48
0.53,-0.73,0.48
0.52,-0.73,0.48
0.53,-0.73,0.47
0.53,-0.73,0.47
0.53,-0.73,0.47
0.53,-0.73,0.48
0.53,-0.73,0.48
0.53,-0.73,0.48
0.53,-0.73,0.48
0.53,-0.73,0.48
0.53,-0.73,0.48
0.52,-0.73,0.48
0.52,-0.73,0.47
0.52,-0.74,0.48
0.52,-0.74,0.48
0.52,-0.73,0.48
0.52,-0.74,0.47
0.52,-0.74,0.47
0.52,-0.74,0.47
0.52,-0.74,0.47
0.52,-0.74,0.47
0.52,-0.73,0.47
0.52,-0.74,0.47
0.53,-0.74,0.47
0.52,-0.74,0.47
0.52,-0.75,0.47
0.52,-0.75,0.46
0.52,-0.74,0.46
0.52,-0.74,0.46
0.52,-0.74,0.46
0.52,-0.75,0.46
0.52,-0.75,0.46
0.52,-0.75,0.46
0.53,-0.75,0.45
0.52,-0.75,0.46
0.51,-0.75,0.45
0.52,-0.75,0.46
0.52,-0.75,0.45
0.52,-0.76,0.44
0.52,-0.76,0.45
0.52,-0.75,0.45
0.52,-0.76,0.45
0.53,-0.76,0.45
0.53,-0.75,0.45
0.53,-0.75,0.45
0.53,-0.74,0.45
0.53,-0.74,0.44
0.54,-0.75,0.45
0.53,-0.74,0.46
0.52,-0.74,0.47
0.53,-0.74,0.47
0.53,-0.75,0.47
0.53,-0.74,0.47
0.53,-0.74,0.47
0.53,-0.75,0.47
0.53,-0.75,0.48
0.52,-0.74,0.48
0.51,-0.74,0.47
0.53,-0.75,0.47
0.54,-0.75,0.47
0.54,-0.74,0.46
0.54,-0.74,0.47
0.54,-0.74,0.46
0.55,-0.74,0.46
0.55,-0.74,0.46
0.53,-0.75,0.44
0.53,-0.76,0.43
0.52,-0.76,0.41
0.51,-0.76,0.4
0.51,-0.76,0.39
0.51,-0.76,0.36
0.51,-0.77,0.38
0.5,-0.76,0.37
0.52,-0.77,0.34
0.54,-0.78,0.31
0.54,-0.79,0.3
0.51,-0.79,0.32
0.51,-0.78,0.34
0.54,-0.8,0.36
0.55,-0.81,0.35
0.56,-0.8,0.35
0.56,-0.8,0.35
0.53,-0.78,0.34
0.5,-0.77,0.33
0.52,-0.78,0.35
0.54,-0.79,0.35
0.54,-0.79,0.32
0.54,-0.8,0.29
0.54,-0.79,0.31
0.53,-0.77,0.36
0.55,-0.84,0.43
0.59,-0.85,0.42
0.58,-0.83,0.4
0.56,-0.8,0.38
0.53,-0.79,0.37
0.48,-0.78,0.34
0.49,-0.78,0.33
0.52,-0.78,0.34
0.52,-0.78,0.35
0.5,-0.77,0.34
0.51,-0.78,0.36
0.5,-0.81,0.38
0.47,-0.81,0.37
0.48,-0.8,0.37
0.49,-0.78,0.36
0.5,-0.76,0.35
0.51,-0.78,0.35
0.51,-0.81,0.4
0.52,-0.81,0.45
0.51,-0.8,0.43
0.53,-0.77,0.42
0.56,-0.76,0.4
0.55,-0.8,0.37
0.49,-0.83,0.36
0.46,-0.84,0.36
0.46,-0.83,0.36
0.47,-0.83,0.34
0.51,-0.82,0.31
0.52,-0.81,0.32
0.53,-0.83,0.34
0.47,-0.83,0.33
0.45,-0.84,0.32
0.48,-0.86,0.34
0.46,-0.85,0.35
0.45,-0.83,0.35
0.46,-0.85,0.35
0.43,-0.84,0.33
0.44,-0.84,0.33
0.48,-0.85,0.33
0.48,-0.84,0.34
0.49,-0.83,0.34
0.51,-0.82,0.33
0.53,-0.82,0.34
0.52,-0.83,0.35
0.49,-0.83,0.34
0.5,-0.83,0.36
0.48,-0.85,0.38
0.44,-0.87,0.35
0.43,-0.86,0.34
0.46,-0.86,0.32
0.47,-0.84,0.3
0.48,-0.85,0.33
0.47,-0.87,0.35
0.44,-0.86,0.34
0.44,-0.87,0.34
0.45,-0.87,0.34
0.47,-0.86,0.35
0.49,-0.87,0.36
0.48,-0.87,0.37
0.48,-0.88,0.37
0.47,-0.89,0.38
0.48,-0.91,0.4
0.48,-0.93,0.4
0.46,-0.95,0.39
0.43,-0.98,0.39
0.41,-0.97,0.39
0.41,-0.97,0.39
0.38,-0.99,0.41
0.36,-1,0.43
0.38,-1.04,0.44
0.4,-1.11,0.5
0.37,-1.16,0.55
0.36,-1.23,0.56
0.44,-1.3,0.6
0.54,-1.35,0.67
0.52,-1.33,0.75
0.45,-1.32,0.79
0.52,-1.33,0.84
0.53,-1.12,0.57
0.24,-1.07,0.25
0.21,-1.08,0.12
0.18,-1.11,0.19
0.17,-1.1,0.23
0.18,-1.08,0.28
0.22,-1.08,0.27
0.25,-1.1,0.23
0.26,-1.12,0.23
0.24,-1.14,0.26
0.25,-1.15,0.29
0.22,-1.13,0.29
0.2,-1.13,0.3
0.19,-1.16,0.33
0.18,-1.19,0.37
0.23,-1.18,0.4
0.28,-1.23,0.4
0.29,-1.3,0.41
0.29,-1.3,0.41
0.26,-1.3,0.37
0.22,-1.31,0.33
0.17,-1.35,0.31
0.17,-1.38,0.33
0.21,-1.38,0.38
0.27,-1.35,0.41
0.29,-1.32,0.41
0.26,-1.17,0.4
0.29,-1.09,0.39
0.3,-1.03,0.39
0.31,-0.89,0.39
0.29,-0.79,0.42
0.29,-0.7,0.47
0.31,-0.62,0.5
0.34,-0.54,0.53
0.34,-0.49,0.53
0.33,-0.47,0.53
0.35,-0.46,0.51
0.38,-0.46,0.5
0.4,-0.47,0.5
0.39,-0.48,0.54
0.37,-0.51,0.62
0.35,-0.54,0.7
0.36,-0.55,0.73
0.37,-0.54,0.7
0.38,-0.55,0.65
0.4,-0.57,0.61
0.42,-0.61,0.58
0.43,-0.65,0.56
0.43,-0.72,0.54
0.41,-0.8,0.53
0.39,-0.88,0.57
0.38,-0.97,0.62
0.36,-1.03,0.61
0.31,-1.08,0.54
0.29,-1.09,0.45
0.29,-1.13,0.37
0.3,-1.18,0.32
0.29,-1.25,0.31
0.24,-1.3,0.32
0.18,-1.33,0.33
0.12,-1.33,0.32
0.08,-1.31,0.3
0.03,-1.28,0.28
-0.02,-1.22,0.27
-0.06,-1.15,0.29
-0.1,-1.05,0.29
-0.11,-0.95,0.27
-0.11,-0.89,0.27
-0.11,-0.84,0.28
-0.09,-0.8,0.3
-0.09,-0.77,0.3
-0.1,-0.75,0.31
-0.14,-0.74,0.31
-0.19,-0.73,0.31
-0.21,-0.73,0.3
-0.21,-0.72,0.28
-0.2,-0.72,0.26
-0.18,-0.73,0.25
-0.16,-0.74,0.24
-0.13,-0.76,0.24
-0.12,-0.75,0.24
-0.12,-0.73,0.24
-0.12,-0.72,0.24
-0.12,-0.72,0.24
-0.11,-0.72,0.23
-0.1,-0.72,0.23
-0.08,-0.74,0.22
-0.07,-0.76,0.22
-0.06,-0.77,0.22
-0.05,-0.78,0.22
-0.04,-0.78,0.21
-0.01,-0.77,0.2
0,-0.76,0.2
0.02,-0.75,0.21
0.03,-0.72,0.22
0.03,-0.7,0.23
0.02,-0.68,0.25
0.03,-0.65,0.26
0.03,-0.64,0.26
0.03,-0.61,0.26
0.04,-0.58,0.25
0.06,-0.56,0.24
0.05,-0.56,0.23
0.04,-0.56,0.24
0.05,-0.57,0.27
0.07,-0.63,0.27
0.06,-0.67,0.28
0.06,-0.71,0.28
0.07,-0.76,0.27
0.08,-0.79,0.26
0.08,-0.82,0.24
0.09,-0.85,0.21
0.11,-0.89,0.19
0.15,-0.91,0.19
0.17,-0.93,0.2
0.18,-0.92,0.22
0.19,-0.92,0.24
0.21,-0.93,0.26
0.23,-0.94,0.27
0.25,-0.95,0.27
0.26,-0.97,0.27
0.27,-0.97,0.27
0.28,-0.97,0.26
0.3,-0.97,0.25
0.32,-0.97,0.25
0.34,-0.96,0.25
0.35,-0.96,0.24
0.36,-0.96,0.24
0.38,-0.94,0.23
0.39,-0.92,0.23
0.4,-0.89,0.22
0.4,-0.83,0.22
0.41,-0.8,0.21
0.42,-0.78,0.2
0.43,-0.79,0.19
0.47,-0.86,0.18
0.51,-0.97,0.17
0.54,-1.1,0.17
0.57,-1.24,0.18
0.57,-1.35,0.18
0.55,-1.39,0.17
0.5,-1.36,0.15
0.45,-1.29,0.12
0.44,-1.21,0.08
0.48,-1.13,0.07
0.49,-1.12,0.07
0.51,-1.17,0.07
0.54,-1.24,0.07
0.55,-1.3,0.09
0.54,-1.35,0.1
0.53,-1.38,0.09
0.51,-1.4,0.06
0.48,-1.4,0.04
0.46,-1.37,0.02
0.42,-1.34,0.01
0.39,-1.3,0.02
0.36,-1.26,0.05
0.33,-1.18,0.06
0.32,-1.13,0.06
0.31,-1.08,0.05
0.3,-1.03,0.05
0.3,-0.98,0.04
0.3,-0.94,0.03
0.3,-0.92,0.03
0.3,-0.91,0.03
0.3,-0.91,0.03
0.29,-0.93,0.01
0.27,-0.95,0
0.23,-0.95,0
0.19,-0.95,0
0.2,-0.94,-0.01
0.22,-0.9,-0.02
0.22,-0.88,-0.01
0.2,-0.86,0
0.2,-0.84,0.02
0.21,-0.83,0.03
0.22,-0.83,0.03
0.23,-0.85,0.04
0.23,-0.88,0.05
0.22,-0.91,0.06
0.2,-0.93,0.07
0.21,-0.96,0.08
0.23,-0.99,0.08
0.22,-1.07,0.09
0.21,-1.12,0.09
0.2,-1.15,0.11
0.19,-1.17,0.13
0.22,-1.19,0.14
0.25,-1.22,0.14
0.25,-1.26,0.14
0.25,-1.27,0.14
0.25,-1.25,0.14
0.25,-1.22,0.13
0.24,-1.18,0.15
0.23,-1.12,0.18
0.22,-1.04,0.21
0.23,-0.97,0.23
0.24,-0.92,0.25
0.26,-0.88,0.28
0.26,-0.86,0.31
0.27,-0.89,0.33
0.28,-0.95,0.34
0.28,-1.01,0.34
0.27,-1.05,0.33
0.25,-1.1,0.29
0.21,-1.15,0.25
0.17,-1.14,0.22
0.19,-1.11,0.18
0.21,-1.08,0.17
0.21,-0.98,0.19
0.25,-0.93,0.2
0.29,-0.9,0.2
0.3,-0.89,0.22
0.32,-0.84,0.2
0.37,-0.8,0.18
0.37,-0.79,0.19
0.36,-0.76,0.16
0.38,-0.73,0.12
0.39,-0.73,0.11
0.37,-0.72,0.11
0.37,-0.73,0.13
0.38,-0.77,0.16
0.38,-0.81,0.19
0.38,-0.83,0.21
0.38,-0.85,0.24
0.39,-0.85,0.28
0.39,-0.84,0.3
0.4,-0.84,0.31
0.42,-0.83,0.29
0.45,-0.83,0.28
0.48,-0.84,0.27
0.5,-0.86,0.27
0.52,-0.87,0.28
0.54,-0.9,0.29
0.55,-0.94,0.32
0.53,-0.99,0.33
0.52,-1.01,0.34
0.52,-1.03,0.33
0.51,-1.05,0.32
0.5,-1.07,0.3
0.51,-1.11,0.28
0.53,-1.17,0.27
0.56,-1.27,0.26
0.58,-1.36,0.27
0.59,-1.43,0.28
0.58,-1.46,0.28
0.55,-1.44,0.28
0.53,-1.38,0.26
0.52,-1.3,0.23
0.51,-1.22,0.2
0.5,-1.13,0.19
0.48,-1.05,0.19
0.46,-1,0.18
0.47,-0.98,0.16
0.49,-1,0.15
0.49,-1.04,0.15
0.49,-1.09,0.16
0.48,-1.14,0.17
0.46,-1.17,0.16
0.43,-1.19,0.16
0.4,-1.19,0.17
0.35,-1.16,0.14
0.33,-1.14,0.14
0.33,-1.12,0.13
0.32,-1.09,0.12
0.31,-1.07,0.13
0.29,-1.05,0.13
0.28,-1.02,0.13
0.28,-1,0.16
0.27,-0.98,0.16
0.25,-0.97,0.16
0.22,-0.98,0.17
0.25,-0.95,0.16
0.33,-0.89,0.13
0.35,-0.89,0.09
0.29,-0.91,0.08
0.25,-0.9,0.07
0.28,-0.86,0.06
0.3,-0.83,0.07
0.28,-0.84,0.08
0.26,-0.82,0.09
0.28,-0.79,0.1
0.31,-0.76,0.1
0.31,-0.76,0.09
0.3,-0.76,0.09
0.27,-0.75,0.11
0.28,-0.76,0.1
0.34,-0.81,0.11
0.36,-0.84,0.12
0.36,-0.86,0.14
0.36,-0.9,0.15
0.36,-0.92,0.16
0.37,-0.94,0.17
0.37,-0.96,0.18
0.37,-1,0.19
0.4,-1.05,0.18
0.44,-1.09,0.18
0.45,-1.11,0.2
0.47,-1.11,0.22
0.48,-1.1,0.23
0.49,-1.09,0.25
0.49,-1.07,0.25
0.47,-1.03,0.25
0.46,-0.97,0.25
0.45,-0.92,0.25
0.45,-0.87,0.26
0.45,-0.83,0.27
0.46,-0.8,0.28
0.46,-0.79,0.28
0.45,-0.8,0.29
0.45,-0.82,0.29
0.43,-0.87,0.28
0.43,-0.92,0.28
0.43,-1.05,0.28
0.45,-1.11,0.28
0.47,-1.15,0.29
0.47,-1.18,0.28
0.45,-1.18,0.28
0.45,-1.16,0.29
0.46,-1.11,0.29
0.47,-1.06,0.29
0.48,-0.99,0.3
0.5,-0.92,0.3
0.53,-0.87,0.3
0.53,-0.8,0.3
0.55,-0.74,0.29
0.58,-0.7,0.28
0.6,-0.66,0.26
0.61,-0.64,0.27
0.61,-0.63,0.29
0.63,-0.62,0.29
0.64,-0.62,0.28
0.66,-0.63,0.3
0.7,-0.59,0.32
0.74,-0.57,0.33
0.77,-0.57,0.33
0.78,-0.56,0.35
0.79,-0.56,0.35
0.8,-0.54,0.34
0.81,-0.51,0.33
0.81,-0.49,0.33
0.81,-0.49,0.33
0.79,-0.49,0.34
0.78,-0.49,0.34
0.76,-0.5,0.35
0.75,-0.51,0.34
0.74,-0.52,0.34
0.76,-0.54,0.33
0.81,-0.57,0.32
0.88,-0.64,0.34
0.92,-0.73,0.38
0.92,-0.82,0.41
0.89,-0.89,0.43
0.85,-0.93,0.41
0.77,-0.93,0.38
0.7,-0.89,0.34
0.65,-0.82,0.31
0.62,-0.76,0.32
0.63,-0.73,0.34
0.67,-0.74,0.35
0.71,-0.76,0.37
0.75,-0.81,0.37
0.76,-0.89,0.37
0.76,-0.97,0.37
0.74,-1.03,0.35
0.72,-1.02,0.33
0.64,-0.96,0.33
0.6,-0.88,0.34
0.57,-0.8,0.34
0.54,-0.74,0.34
0.52,-0.68,0.33
0.52,-0.65,0.32
0.52,-0.63,0.31
0.52,-0.62,0.3
0.53,-0.61,0.3
0.55,-0.6,0.3
0.57,-0.6,0.3
0.6,-0.63,0.31
0.62,-0.67,0.32
0.65,-0.71,0.33
0.67,-0.74,0.32
0.68,-0.75,0.31
0.69,-0.73,0.31
0.7,-0.71,0.3
0.7,-0.67,0.3
0.71,-0.62,0.3
0.72,-0.57,0.3
0.75,-0.53,0.3
0.78,-0.52,0.3
0.8,-0.51,0.3
0.83,-0.49,0.31
0.84,-0.47,0.33
0.85,-0.45,0.33
0.84,-0.44,0.33
0.84,-0.43,0.33
0.83,-0.42,0.34
0.81,-0.41,0.35
0.8,-0.41,0.36
0.79,-0.4,0.37
0.77,-0.39,0.37
0.76,-0.38,0.38
0.75,-0.38,0.38
0.75,-0.38,0.4
0.73,-0.37,0.42
0.69,-0.38,0.43
0.66,-0.37,0.43
0.61,-0.37,0.43
0.57,-0.35,0.42
0.55,-0.33,0.41
0.54,-0.32,0.4
0.56,-0.34,0.39
0.63,-0.38,0.4
0.69,-0.41,0.45
0.66,-0.41,0.51
0.56,-0.39,0.56
0.46,-0.38,0.61
0.44,-0.39,0.65
0.51,-0.4,0.73
0.58,-0.4,0.77
0.58,-0.4,0.79
0.57,-0.39,0.81
0.58,-0.37,0.83
0.6,-0.36,0.84
0.64,-0.36,0.85
0.68,-0.36,0.85
0.7,-0.35,0.83
0.72,-0.34,0.83
0.72,-0.32,0.85
0.69,-0.31,0.88
0.63,-0.3,0.89
0.6,-0.28,0.89
0.57,-0.26,0.88
0.56,-0.22,0.86
0.57,-0.18,0.83
0.6,-0.15,0.82
0.61,-0.12,0.82
0.61,-0.11,0.85
0.61,-0.11,0.88
0.6,-0.1,0.88
0.6,-0.08,0.85
0.61,-0.05,0.82
0.61,-0.04,0.81
0.6,-0.03,0.83
0.58,0,0.89
0.53,-0.01,0.9
0.5,0.02,0.87
0.47,0.05,0.83
0.44,0.08,0.79
0.43,0.09,0.8
0.45,0.1,0.83
0.45,0.12,0.86
0.45,0.14,0.9
0.45,0.16,0.96
0.44,0.16,0.99
0.42,0.15,1
0.39,0.15,0.99
0.37,0.15,0.98
0.35,0.16,0.98
0.32,0.18,0.97
0.3,0.2,0.98
0.28,0.19,1.02
0.27,0.17,1.08
0.28,0.17,1.14
0.26,0.16,1.18
0.22,0.15,1.18
0.17,0.15,1.15
0.12,0.17,1.1
0.09,0.2,1.05
0.08,0.2,1.03
0.07,0.2,1.03
0.05,0.2,1.04
0.03,0.18,1.06
0.03,0.17,1.07
0.01,0.18,1.05
-0.02,0.17,1.02
-0.04,0.18,0.99
-0.05,0.19,0.97
-0.05,0.19,0.95
-0.06,0.18,0.95
-0.06,0.16,0.97
-0.05,0.15,1
-0.05,0.13,1.03
-0.03,0.13,1.06
-0.02,0.13,1.06
0,0.13,1.03
0.01,0.14,1
0,0.14,0.98
-0.01,0.14,0.97
-0.02,0.15,0.97
-0.01,0.16,0.97
-0.01,0.16,0.97
-0.01,0.16,0.96
-0.01,0.17,0.94
-0.02,0.16,0.93
-0.02,0.16,0.93
-0.01,0.16,0.92
0.02,0.16,0.92
0.04,0.14,0.92
0.07,0.13,0.93
0.09,0.12,0.95
0.09,0.11,0.98
0.1,0.11,1
0.11,0.1,1.01
0.12,0.1,1.01
0.13,0.12,1
0.14,0.13,0.98
0.14,0.13,0.97
0.14,0.14,0.96
0.14,0.15,0.98
0.13,0.15,0.99
0.14,0.15,0.99
0.17,0.17,0.98
0.18,0.19,0.98
0.19,0.2,0.97
0.19,0.2,0.96
0.19,0.21,0.95
0.18,0.21,0.95
0.16,0.22,0.96
0.15,0.22,0.96
0.16,0.23,0.95
0.18,0.24,0.94
0.2,0.24,0.93
0.2,0.26,0.91
0.19,0.27,0.9
0.19,0.28,0.9
0.19,0.27,0.91
0.19,0.27,0.93
0.2,0.28,0.93
0.2,0.28,0.92
0.21,0.29,0.9
0.22,0.29,0.89
0.22,0.29,0.88
0.23,0.3,0.88
0.24,0.32,0.89
0.25,0.33,0.9
0.25,0.34,0.9
0.24,0.34,0.9
0.22,0.34,0.9
0.21,0.35,0.89
0.22,0.35,0.9
0.23,0.35,0.9
0.23,0.36,0.91
0.23,0.37,0.92
0.22,0.37,0.92
0.22,0.36,0.92
0.22,0.36,0.92
0.23,0.35,0.91
0.23,0.36,0.89
0.24,0.39,0.89
0.24,0.4,0.88
0.23,0.4,0.87
0.23,0.39,0.87
0.23,0.39,0.86
0.24,0.39,0.86
0.25,0.4,0.86
0.26,0.4,0.86
0.26,0.4,0.86
0.25,0.41,0.86
0.24,0.4,0.86
0.24,0.4,0.85
0.25,0.4,0.84
0.26,0.45,0.83
0.29,0.59,0.87
0.33,0.68,0.96
0.34,0.6,1.04
0.29,0.45,1.04
0.26,0.4,0.98
0.29,0.4,0.89
0.34,0.42,0.8
0.38,0.42,0.76
0.38,0.42,0.77
0.33,0.42,0.82
0.27,0.43,0.86
0.25,0.44,0.89
0.28,0.45,0.88
0.29,0.45,0.87
0.31,0.46,0.85
0.3,0.47,0.84
0.29,0.47,0.83
0.28,0.47,0.82
0.27,0.47,0.82
0.27,0.48,0.83
0.28,0.49,0.84
0.29,0.48,0.84
0.3,0.47,0.85
0.32,0.46,0.86
0.33,0.46,0.86
0.33,0.45,0.85
0.34,0.44,0.85
0.34,0.44,0.84
0.34,0.44,0.85
0.33,0.44,0.86
0.34,0.45,0.86
0.34,0.45,0.85
0.35,0.44,0.85
0.34,0.44,0.84
0.33,0.44,0.84
0.32,0.44,0.83
0.32,0.44,0.82
0.32,0.44,0.83
0.32,0.44,0.84
0.32,0.44,0.84
0.32,0.43,0.84
0.32,0.42,0.84
0.32,0.42,0.84
0.32,0.42,0.83
