Acc_x,Acc_y,Acc_z
0,0,0
0,0,0
0,0,0
0,0,0
0,0,0
0,0,0
0,0,0
0,0,0
0,0,0
0,0,0
0,0,0
0,0,0
0,0,0
0,0,0
0,0,0
0,0,0
0,0,0
0,0,0
0,0,0
0,0,0
0,0,0
0,0,0
0,0,0
0,0,0
0,0,0
0,0,0
0,0,0
0,0,0
0,0,0
0,0,0
0,0,0
0,0,0
0,0,0
0,0,0
0,0,0
0,0,0
0,0,0
0,0,0
0,0,0
0,0,0
0,0,0
0,0,0
0,0,0
0,0,0
0,0,0
0,0,0
0,0,0
0,0,0
0,0,0
0,0,0
0,0,0
0,0,0
0,0,0
0,0,0
0,0,0
0,0,0
0,0,0
0,0,0
0,0,0
0,0,0
0,0,0
0,0,0
0,0,0
0,0,0
0,0,0
0,0,0
0,0,0
0,0,0
0,0,0
0,0,0
0,0,0
0,0,0
0,0,0
0,0,0
0,0,0
0,0,0
0,0,0
0,0,0
0,0,0
0,0,0
0,0,0
0,0,0
0,0,0
0,0,0
0,0,0
0,0,0
0,0,0
0,0,0
0,0,0
0,0,0
0,0,0
0,0,0
0,0,0
0,0,0
0,0,0
0,0,0
0,0,0
0,0,0
0,0,0
0,0,0
0,0,0
0,0,0
0,0,0
0,0,0
0,0,0
0,0,0
0,0,0
0,0,0
0,0,0
0,0,0
0,0,0
0,0,0
0,0,0
0,0,0
0,0,0
0,0,0
0,0,0
0,0,0
0,0,0
0,0,0
0,0,0
0,0,0
0,0,0
0,0,0
0,0,0
0,0,0
0,0,0
0,0,0
0,0,0
0,0,0
0,0,0
0,0,0
0,0,0
0,0,0
0,0,0
0,0,0
0,0,0
0,0,0
0,0,0
0,0,0
0,0,0
0,0,0
0,0,0
0,0,0
0,0,0
0,0,0
0,0,0
0,0,0
0,0,0
0,0,0
0,0,0
0,0,0
0,0,0
0,0,0
0,0,0
0,0,0
0,0,0
0,0,0
0,0,0
0,0,0
0,0,0
0,0,0
0,0,0
0,0,0
0,0,0
0,0,0
0,0,0
0,0,0
0,0,0
0,0,0
0,0,0
0,0,0
0,0,0
0,0,0
0,0,0
0,0,0
0,0,0
0,0,0
0,0,0
0,0,0
0,0,0
0,0,0
0,0,0
0,0,0
0,0,0
0,0,0
0,0,0
0,0,0
0,0,0
0,0,0
0,0,0
0,0,0
0,0,0
0,0,0
0,0,0
0,0,0
0,0,0
0,0,0
0,0,0
0,0,0
0,0,0
0,0,0
0,0,0
0,0,0
0,0,0
0,0,0
0,0,0
0,0,0
0,0,0
0,0,0
0,0,0
0,0,0
0,0,0
0,0,0
0,0,0
0,0,0
0,0,0
0,0,0
0,0,0
0,0,0
0,0,0
0,0,0
0,0,0
0,0,0
0,0,0
0,0,0
0,0,0
0,0,0
0,0,0
0,0,0
0,0,0
0,0,0
0,0,0
0,0,0
0,0,0
0,0,0
0,0,0
0,0,0
0,0,0
0,0,0
0,0,0
0,0,0
0,0,0
0,0,0
0,0,0
0,0,0
0,0,0
0,0,0
0,0,0
0,0,0
0,0,0
0,0,0
0,0,0
0,0,0
0,0,0
0,0,0
0,0,0
0,0,0
0,0,0
0,0,0
0,0,0
0,0,0
0,0,0
0,0,0
0,0,0
0,0,0
0,0,0
0,0,0
0,0,0
0,0,0
0,0,0
0,0,0
0,0,0
0,0,0
0,0,0
0,0,0
0,0,0
0,0,0
0,0,0
0,0,0
0,0,0
0,0,0
0,0,0
0,0,0
0,0,0
0,0,0
0,0,0
0,0,0
0,0,0
0,0,0
0,0,0
0,0,0
0,0,0
0,0,0
0,0,0
0,0,0
0,0,0
0,0,0
0,0,0
0,0,0
0,0,0
0,0,0
0,0,0
0,0,0
0,0,0
0,0,0
0,0,0
0,0,0
0,0,0
0,0,0
0,0,0
0,0,0
0,0,0
0,0,0
0,0,0
0,0,0
0,0,0
0,0,0
0,0,0
0,0,0
0,0,0
0,0,0
0,0,0
0,0,0
0,0,0
0,0,0
0,0,0
0,0,0
0,0,0
0,0,0
0,0,0
0,0,0
0,0,0
0,0,0
0,0,0
0,0,0
0,0,0
0,0,0
0,0,0
0,0,0
0,0,0
0,0,0
0,0,0
0,0,0
0,0,0
0,0,0
0,0,0
0,0,0
0,0,0
0,0,0
0,0,0
0,0,0
0,0,0
0,0,0
0,0,0
0,0,0
0,0,0
0,0,0
0,0,0
0,0,0
0,0,0
0,0,0
0,0,0
0,0,0
0,0,0
0,0,0
0,0,0
0,0,0
0,0,0
0,0,0
0,0,0
0,0,0
0,0,0
0,0,0
0,0,0
0,0,0
0,0,0
0,0,0
0,0,0
0,0,0
0,0,0
0,0,0
0,0,0
0,0,0
0,0,0
0,0,0
0,0,0
0,0,0
0,0,0
0,0,0
0,0,0
0,0,0
0,0,0
0,0,0
0,0,0
0,0,0
0,0,0
0,0,0
0,0,0
0,0,0
0,0,0
0,0,0
0,0,0
0,0,0
0,0,0
0,0,0
0,0,0
0,0,0
0,0,0
0,0,0
0,0,0
0,0,0
0,0,0
0,0,0
0,0,0
0,0,0
0,0,0
0,0,0
0,0,0
0,0,0
0,0,0
0,0,0
0,0,0
0,0,0
0,0,0
0,0,0
0,0,0
0,0,0
0,0,0
0,0,0
0,0,0
0,0,0
0,0,0
0,0,0
0,0,0
0,0,0
0,0,0
0,0,0
0,0,0
0,0,0
0,0,0
0,0,0
0,0,0
0,0,0
0,0,0
0,0,0
0,0,0
0,0,0
0,0,0
0,0,0
0,0,0
0,0,0
0,0,0
0,0,0
0,0,0
0,0,0
0,0,0
0,0,0
0,0,0
0,0,0
0,0,0
0,0,0
0,0,0
0,0,0
0,0,0
0,0,0
0,0,0
0,0,0
0,0,0
0,0,0
0,0,0
0,0,0
0,0,0
0,0,0
0,0,0
0,0,0
0,0,0
0,0,0
0,0,0
0,0,0
0,0,0
0,0,0
0,0,0
0,0,0
0,0,0
0,0,0
0,0,0
0,0,0
0,0,0
0,0,0
0,0,0
0,0,0
0,0,0
0,0,0
0,0,0
0,0,0
0,0,0
0,0,0
0,0,0
0,0,0
0,0,0
0,0,0
0,0,0
0,0,0
0,0,0
0,0,0
0,0,0
0,0,0
0,0,0
0,0,0
0,0,0
0,0,0
0,0,0
0,0,0
0,0,0
0,0,0
0,0,0
0,0,0
0,0,0
0,0,0
0,0,0
0,0,0
0,0,0
0,0,0
0,0,0
0,0,0
0,0,0
0,0,0
0,0,0
0,0,0
0,0,0
0,0,0
0,0,0
0,0,0
0,0,0
0,0,0
0,0,0
0,0,0
0,0,0
0,0,0
0,0,0
0,0,0
0,0,0
0,0,0
0,0,0
0,0,0
0,0,0
0,0,0
0,0,0
0,0,0
0,0,0
0,0,0
0,0,0
0,0,0
0,0,0
0,0,0
0,0,0
0,0,0
0,0,0
0,0,0
0,0,0
0,0,0
0,0,0
0,0,0
0,0,0
0,0,0
0,0,0
0,0,0
0,0,0
0,0,0
0,0,0
0,0,0
0,0,0
0,0,0
0,0,0
0,0,0
0,0,0
0,0,0
0,0,0
0,0,0
0,0,0
0,0,0
0,0,0
0,0,0
0,0,0
0,0,0
0,0,0
0,0,0
0,0,0
0,0,0
0,0,0
0,0,0
0,0,0
0,0,0
0,0,0
0,0,0
0,0,0
0,0,0
0,0,0
0,0,0
0,0,0
0,0,0
0,0,0
0,0,0
0,0,0
0,0,0
0,0,0
0,0,0
0,0,0
0,0,0
0,0,0
0,0,0
0,0,0
0,0,0
0,0,0
0,0,0
0,0,0
0,0,0
0,0,0
0,0,0
0,0,0
0,0,0
0,0,0
0,0,0
0,0,0
0,0,0
0,0,0
0,0,0
0,0,0
0,0,0
0,0,0
0,0,0
0,0,0
0,0,0
0,0,0
0,0,0
0,0,0
0,0,0
0,0,0
0,0,0
0,0,0
0,0,0
0,0,0
0,0,0
0,0,0
0,0,0
0,0,0
0,0,0
0,0,0
0,0,0
0,0,0
0,0,0
0,0,0
0,0,0
0,0,0
0,0,0
0,0,0
0,0,0
0,0,0
0,0,0
0,0,0
0,0,0
0,0,0
0,0,0
0,0,0
0,0,0
0,0,0
0,0,0
0,0,0
0,0,0
0,0,0
0,0,0
0,0,0
0,0,0
0,0,0
0,0,0
0,0,0
0,0,0
0,0,0
0,0,0
0,0,0
0,0,0
0,0,0
0,0,0
0,0,0
0,0,0
0,0,0
0,0,0
0,0,0
0,0,0
0,0,0
0,0,0
0,0,0
0,0,0
0,0,0
0,0,0
0,0,0
0,0,0
0,0,0
0,0,0
0,0,0
0,0,0
0,0,0
0,0,0
0,0,0
0,0,0
0,0,0
0,0,0
0,0,0
0,0,0
0,0,0
0,0,0
0,0,0
0,0,0
0,0,0
0,0,0
0,0,0
0,0,0
0,0,0
0,0,0
0,0,0
0,0,0
0,0,0
0,0,0
0,0,0
0,0,0
0,0,0
0,0,0
0,0,0
0,0,0
0,0,0
0,0,0
0,0,0
0,0,0
0,0,0
0,0,0
0,0,0
0,0,0
0,0,0
0,0,0
0,0,0
0,0,0
0,0,0
0,0,0
0,0,0
0,0,0
0,0,0
0,0,0
0,0,0
0,0,0
0,0,0
0,0,0
0,0,0
0,0,0
0,0,0
0,0,0
0,0,0
0,0,0
0,0,0
0,0,0
0,0,0
0,0,0
0,0,0
0,0,0
0,0,0
0,0,0
0,0,0
0,0,0
0,0,0
0,0,0
0,0,0
0,0,0
0,0,0
0,0,0
0.32,0.54,0.77
0.31,0.54,0.76
0.32,0.56,0.75
0.32,0.55,0.75
0.32,0.55,0.75
0.33,0.55,0.76
0.33,0.55,0.76
0.34,0.55,0.75
0.34,0.55,0.75
0.34,0.55,0.75
0.34,0.55,0.75
0.34,0.55,0.75
0.34,0.56,0.75
0.34,0.56,0.75
0.34,0.56,0.75
0.33,0.56,0.74
0.33,0.56,0.74
0.33,0.56,0.75
0.33,0.57,0.75
0.33,0.57,0.75
0.33,0.56,0.76
0.33,0.56,0.75
0.33,0.57,0.75
0.32,0.57,0.75
0.32,0.56,0.75
0.32,0.56,0.75
0.32,0.56,0.75
0.31,0.56,0.76
0.31,0.56,0.76
0.31,0.56,0.75
0.31,0.57,0.74
0.31,0.57,0.74
0.31,0.56,0.76
0.31,0.56,0.76
0.32,0.56,0.76
0.32,0.57,0.76
0.32,0.56,0.76
0.32,0.56,0.76
0.31,0.56,0.76
0.32,0.56,0.76
0.32,0.56,0.76
0.31,0.56,0.76
0.31,0.56,0.77
0.32,0.56,0.76
0.32,0.56,0.76
0.31,0.56,0.76
0.31,0.56,0.77
0.31,0.56,0.77
0.3,0.56,0.76
0.31,0.56,0.76
0.31,0.57,0.76
0.31,0.57,0.76
0.31,0.56,0.76
0.31,0.56,0.76
0.31,0.56,0.76
0.31,0.56,0.76
0.31,0.56,0.76
0.31,0.56,0.76
0.31,0.56,0.76
0.31,0.56,0.76
0.31,0.56,0.76
0.31,0.56,0.76
0.31,0.56,0.76
0.32,0.56,0.76
0.31,0.56,0.76
0.31,0.57,0.77
0.31,0.56,0.77
0.31,0.57,0.76
0.31,0.57,0.76
0.3,0.57,0.76
0.31,0.57,0.76
0.3,0.57,0.76
0.3,0.57,0.76
0.3,0.57,0.75
0.3,0.57,0.75
0.3,0.57,0.74
0.3,0.57,0.74
0.31,0.57,0.75
0.31,0.57,0.75
0.31,0.57,0.75
0.31,0.57,0.76
0.31,0.57,0.76
0.31,0.57,0.76
0.32,0.57,0.76
0.32,0.56,0.77
0.31,0.56,0.77
0.31,0.56,0.77
0.31,0.56,0.76
0.31,0.56,0.76
0.31,0.57,0.76
0.3,0.57,0.77
0.3,0.57,0.77
0.3,0.56,0.76
0.3,0.56,0.76
0.3,0.57,0.76
0.3,0.57,0.76
0.3,0.56,0.77
0.3,0.56,0.77
0.31,0.56,0.77
0.31,0.56,0.77
0.31,0.57,0.77
0.31,0.56,0.77
0.31,0.56,0.77
0.31,0.56,0.77
0.31,0.56,0.77
0.31,0.56,0.77
0.31,0.56,0.77
0.31,0.56,0.76
0.31,0.57,0.76
0.31,0.57,0.76
0.32,0.57,0.76
0.32,0.57,0.76
0.32,0.57,0.77
0.32,0.57,0.76
0.31,0.56,0.76
0.31,0.57,0.76
0.32,0.57,0.76
0.32,0.57,0.76
0.31,0.57,0.76
0.31,0.57,0.76
0.31,0.57,0.76
0.31,0.57,0.77
0.31,0.57,0.77
0.31,0.57,0.77
0.31,0.57,0.76
0.3,0.57,0.76
0.31,0.57,0.76
0.31,0.57,0.76
0.32,0.56,0.76
0.32,0.56,0.76
0.32,0.55,0.76
0.31,0.54,0.76
0.31,0.54,0.76
0.3,0.54,0.75
0.3,0.53,0.75
0.3,0.53,0.75
0.3,0.52,0.74
0.29,0.52,0.74
0.29,0.51,0.74
0.29,0.51,0.75
0.3,0.51,0.76
0.3,0.51,0.76
0.3,0.51,0.76
0.3,0.5,0.76
0.31,0.5,0.75
0.31,0.48,0.75
0.31,0.48,0.76
0.31,0.48,0.76
0.31,0.48,0.76
0.31,0.48,0.76
0.32,0.47,0.76
0.33,0.44,0.76
0.32,0.38,0.76
0.31,0.31,0.75
0.28,0.24,0.73
0.27,0.22,0.69
0.28,0.28,0.66
0.29,0.35,0.65
0.27,0.33,0.66
0.27,0.31,0.69
0.3,0.33,0.7
0.33,0.35,0.7
0.37,0.35,0.71
0.38,0.36,0.71
0.39,0.37,0.73
0.39,0.38,0.74
0.41,0.38,0.76
0.42,0.39,0.77
0.42,0.39,0.77
0.44,0.4,0.78
0.46,0.4,0.8
0.49,0.41,0.81
0.5,0.42,0.82
0.51,0.43,0.84
0.51,0.43,0.84
0.52,0.44,0.84
0.54,0.44,0.84
0.55,0.45,0.84
0.55,0.44,0.85
0.54,0.44,0.87
0.53,0.44,0.86
0.54,0.43,0.86
0.54,0.43,0.87
0.54,0.42,0.85
0.54,0.42,0.84
0.54,0.42,0.85
0.52,0.41,0.85
0.53,0.42,0.84
0.53,0.41,0.84
0.55,0.4,0.83
0.49,0.37,0.93
0.58,0.37,0.69
0.64,0.49,0.57
0.52,0.5,0.9
0.56,0.46,0.9
0.57,0.46,0.99
0.59,0.53,1.01
0.62,0.49,1.05
0.67,0.52,0.86
0.7,0.55,0.82
0.72,0.53,0.87
0.69,0.42,0.97
0.68,0.38,1.01
0.69,0.45,0.97
0.66,0.48,0.98
0.64,0.44,0.96
0.62,0.42,0.93
0.66,0.44,0.92
0.64,0.38,0.94
0.64,0.34,0.95
0.66,0.32,0.93
0.65,0.25,0.93
0.71,0.22,0.93
0.75,0.22,0.96
0.72,0.21,0.96
0.7,0.21,0.93
0.71,0.23,0.89
0.74,0.25,0.86
0.78,0.25,0.85
0.82,0.23,0.87
0.83,0.21,0.91
0.82,0.19,0.94
0.8,0.16,0.95
0.73,0.13,0.91
0.71,0.13,0.85
0.69,0.12,0.81
0.68,0.1,0.78
0.69,0.05,0.78
0.74,-0.01,0.79
0.79,-0.06,0.79
0.87,-0.1,0.76
0.94,-0.13,0.72
0.95,-0.16,0.7
0.92,-0.18,0.69
0.86,-0.2,0.67
0.81,-0.22,0.63
0.77,-0.24,0.6
0.74,-0.25,0.58
0.76,-0.28,0.59
0.78,-0.33,0.62
0.74,-0.34,0.65
0.71,-0.34,0.65
0.72,-0.33,0.63
0.71,-0.32,0.6
0.68,-0.29,0.58
0.65,-0.25,0.57
0.63,-0.23,0.57
0.6,-0.21,0.57
0.58,-0.18,0.56
0.56,-0.13,0.56
0.54,-0.11,0.56
0.53,-0.1,0.55
0.51,-0.08,0.53
0.5,-0.06,0.51
0.52,-0.05,0.49
0.54,-0.05,0.49
0.57,-0.05,0.51
0.61,-0.07,0.54
0.64,-0.07,0.56
0.63,-0.08,0.57
0.61,-0.08,0.57
0.6,-0.07,0.54
0.6,-0.07,0.53
0.63,-0.09,0.53
0.65,-0.1,0.55
0.68,-0.11,0.56
0.7,-0.11,0.58
0.72,-0.12,0.59
0.72,-0.12,0.6
0.7,-0.13,0.6
0.68,-0.12,0.58
0.66,-0.12,0.57
0.64,-0.12,0.56
0.6,-0.1,0.57
0.6,-0.08,0.57
0.68,-0.06,0.57
0.75,-0.07,0.57
0.8,-0.08,0.56
0.82,-0.09,0.56
0.81,-0.11,0.55
0.8,-0.14,0.52
0.79,-0.15,0.49
0.8,-0.15,0.47
0.84,-0.15,0.46
0.89,-0.13,0.46
0.93,-0.12,0.48
0.98,-0.15,0.51
1.03,-0.22,0.52
1.04,-0.28,0.52
1.02,-0.31,0.52
1.04,-0.32,0.52
1.06,-0.32,0.49
1.06,-0.31,0.47
1.07,-0.3,0.45
1.09,-0.29,0.42
1.11,-0.28,0.4
1.13,-0.26,0.38
1.13,-0.25,0.37
1.11,-0.24,0.36
1.08,-0.23,0.34
1.05,-0.23,0.3
0.95,-0.31,0.31
0.91,-0.33,0.32
0.89,-0.34,0.32
0.87,-0.35,0.31
0.84,-0.36,0.28
0.78,-0.36,0.26
0.74,-0.44,0.24
0.77,-0.5,0.25
0.78,-0.54,0.26
0.75,-0.57,0.26
0.7,-0.57,0.24
0.65,-0.57,0.21
0.6,-0.57,0.19
0.57,-0.58,0.18
0.55,-0.61,0.18
0.52,-0.66,0.19
0.51,-0.7,0.21
0.51,-0.93,0.19
0.49,-0.96,0.19
0.45,-0.99,0.18
0.43,-1.03,0.17
0.4,-1.06,0.16
0.37,-1.09,0.15
0.36,-1.12,0.14
0.36,-1.14,0.13
0.37,-1.15,0.12
0.39,-1.17,0.11
0.4,-1.19,0.1
0.4,-1.2,0.08
0.39,-1.2,0.06
0.37,-1.18,0.06
0.36,-1.14,0.05
0.35,-1.11,0.04
0.32,-1.1,0.03
0.29,-1.12,0.02
0.29,-1.17,-0.01
0.29,-1.25,-0.04
0.29,-1.33,-0.07
0.27,-1.41,-0.12
0.25,-1.42,-0.16
0.24,-1.34,-0.17
0.21,-1.09,-0.16
0.15,-0.95,-0.15
0.1,-0.84,-0.14
0.08,-0.77,-0.1
0.08,-0.77,-0.08
0.08,-0.82,-0.08
0.09,-0.92,-0.09
0.1,-1.02,-0.13
0.11,-1.08,-0.18
0.1,-1.1,-0.23
0.1,-1.09,-0.25
0.1,-1.08,-0.25
0.09,-1.08,-0.24
0.09,-1.06,-0.22
0.1,-1.04,-0.18
0.1,-1.02,-0.15
0.08,-1.02,-0.13
0.06,-1,-0.12
0.07,-0.97,-0.12
0.06,-0.94,-0.12
0.06,-0.92,-0.12
0.06,-0.91,-0.11
0.07,-0.91,-0.1
0.07,-0.91,-0.09
0.06,-0.9,-0.08
0.05,-0.89,-0.07
0.03,-0.89,-0.07
0.02,-0.88,-0.06
0.03,-0.88,-0.04
0.04,-0.89,0
0.03,-0.9,0.04
0.03,-0.91,0.08
0.03,-0.94,0.11
0,-0.95,0.14
-0.02,-0.96,0.14
-0.02,-1,0.15
-0.03,-1.04,0.16
-0.04,-1.09,0.18
-0.07,-1.12,0.19
-0.1,-1.15,0.21
-0.12,-1.17,0.23
-0.16,-1.19,0.24
-0.18,-1.2,0.24
-0.2,-1.22,0.24
-0.23,-1.23,0.22
-0.26,-1.26,0.19
-0.26,-1.29,0.16
-0.26,-1.34,0.12
-0.26,-1.38,0.07
-0.26,-1.41,0.02
-0.28,-1.43,-0.05
-0.3,-1.42,-0.13
-0.3,-1.29,-0.22
-0.33,-1.22,-0.23
-0.35,-1.17,-0.24
-0.37,-1.12,-0.25
-0.43,-1.09,-0.28
-0.44,-1.02,-0.3
-0.42,-0.95,-0.33
-0.4,-0.94,-0.33
-0.38,-0.92,-0.32
-0.36,-0.91,-0.34
-0.33,-0.94,-0.36
-0.33,-0.97,-0.38
-0.33,-0.97,-0.4
-0.31,-0.93,-0.41
-0.29,-0.88,-0.39
-0.27,-0.86,-0.35
-0.27,-0.86,-0.32
-0.25,-0.89,-0.29
-0.23,-0.9,-0.28
-0.21,-0.88,-0.27
-0.21,-0.86,-0.27
-0.2,-0.86,-0.27
-0.19,-0.84,-0.27
-0.21,-0.82,-0.25
-0.22,-0.79,-0.23
-0.19,-0.79,-0.22
-0.15,-0.82,-0.19
-0.12,-0.87,-0.19
-0.11,-0.87,-0.19
-0.12,-0.87,-0.2
-0.13,-0.86,-0.2
-0.13,-0.85,-0.21
-0.13,-0.86,-0.2
-0.14,-0.88,-0.21
-0.15,-0.9,-0.22
-0.18,-0.97,-0.24
-0.17,-0.94,-0.23
-0.14,-0.86,-0.21
-0.14,-0.92,-0.22
-0.14,-0.99,-0.23
-0.15,-0.99,-0.23
-0.15,-0.98,-0.22
-0.17,-0.99,-0.23
-0.19,-1,-0.24
-0.19,-0.99,-0.24
-0.18,-0.99,-0.23
-0.18,-1.01,-0.23
-0.17,-0.99,-0.23
-0.16,-0.96,-0.22
-0.16,-0.94,-0.19
-0.16,-0.95,-0.18
-0.17,-0.95,-0.17
-0.18,-0.93,-0.17
-0.16,-0.93,-0.18
-0.17,-0.94,-0.18
-0.16,-0.96,-0.18
-0.14,-0.98,-0.18
-0.14,-0.99,-0.19
-0.15,-0.98,-0.2
-0.18,-0.94,-0.22
-0.2,-0.89,-0.22
-0.21,-0.86,-0.22
-0.21,-0.84,-0.22
-0.21,-0.83,-0.21
-0.21,-0.84,-0.2
-0.22,-0.88,-0.2
-0.2,-0.96,-0.2
-0.16,-1.04,-0.17
-0.1,-1.17,-0.18
-0.05,-1.33,-0.23
-0.08,-1.4,-0.29
-0.12,-1.39,-0.36
-0.12,-1.33,-0.44
-0.1,-1.24,-0.5
-0.08,-1.15,-0.52
-0.07,-1.08,-0.5
-0.07,-1.03,-0.44
-0.09,-0.98,-0.36
-0.09,-0.89,-0.28
0,-0.87,-0.27
0.03,-0.84,-0.27
0.05,-0.82,-0.28
0.07,-0.81,-0.3
0.07,-0.81,-0.31
0.08,-0.82,-0.32
0.1,-0.84,-0.33
0.12,-0.85,-0.31
0.13,-0.86,-0.29
0.14,-0.87,-0.28
0.14,-0.88,-0.27
0.14,-0.87,-0.26
0.14,-0.87,-0.27
0.14,-0.86,-0.27
0.14,-0.85,-0.26
0.12,-0.84,-0.24
0.12,-0.83,-0.24
0.12,-0.83,-0.24
0.11,-0.86,-0.23
0.1,-0.89,-0.24
0.09,-0.93,-0.26
0.08,-0.96,-0.26
0.07,-1,-0.26
0.04,-1.04,-0.25
0.02,-1.07,-0.24
0.01,-1.13,-0.23
0,-1.17,-0.2
0.02,-1.22,-0.17
0.02,-1.25,-0.15
0.01,-1.29,-0.11
0.02,-1.35,-0.08
0.01,-1.41,-0.06
-0.01,-1.46,-0.06
-0.05,-1.48,-0.06
-0.08,-1.46,-0.07
-0.11,-1.39,-0.08
-0.15,-1.31,-0.07
-0.17,-1.23,-0.07
-0.19,-1.16,-0.06
-0.19,-1.1,-0.05
-0.22,-1.05,-0.03
-0.21,-1,-0.04
-0.2,-0.97,-0.05
-0.19,-0.96,-0.05
-0.17,-0.96,-0.05
-0.14,-0.96,-0.07
-0.13,-0.96,-0.08
-0.12,-0.97,-0.1
-0.11,-1,-0.11
-0.1,-1.03,-0.11
-0.09,-1.06,-0.12
-0.07,-1.09,-0.14
-0.04,-1.09,-0.16
-0.04,-1.08,-0.18
-0.04,-1.06,-0.19
-0.03,-1.03,-0.2
-0.04,-1.01,-0.18
-0.04,-1.01,-0.18
-0.05,-1.01,-0.19
-0.05,-1.01,-0.19
-0.04,-1,-0.2
-0.04,-1,-0.22
-0.04,-1,-0.23
-0.04,-0.99,-0.24
-0.04,-0.99,-0.25
-0.03,-0.98,-0.25
-0.03,-0.98,-0.25
-0.04,-0.98,-0.24
-0.05,-0.98,-0.25
-0.05,-0.97,-0.25
-0.06,-0.96,-0.26
-0.06,-0.95,-0.26
-0.06,-0.94,-0.27
-0.07,-0.95,-0.26
-0.07,-0.95,-0.24
-0.06,-0.95,-0.25
-0.07,-0.96,-0.26
-0.08,-0.96,-0.25
-0.09,-0.95,-0.26
-0.1,-0.95,-0.25
-0.11,-0.93,-0.25
-0.11,-0.93,-0.24
-0.12,-0.93,-0.24
-0.13,-0.92,-0.23
-0.14,-0.91,-0.21
-0.13,-0.9,-0.21
-0.11,-0.89,-0.21
-0.13,-0.91,-0.21
-0.15,-0.9,-0.2
-0.15,-0.9,-0.2
-0.15,-0.9,-0.2
-0.15,-0.9,-0.19
-0.15,-0.91,-0.17
-0.15,-0.92,-0.16
-0.14,-0.93,-0.14
-0.13,-0.93,-0.13
-0.12,-0.93,-0.12
-0.12,-0.94,-0.11
-0.12,-0.94,-0.09
-0.11,-0.95,-0.08
-0.11,-0.97,-0.08
-0.1,-0.98,-0.07
-0.1,-0.99,-0.05
-0.08,-1,-0.02
-0.08,-1.01,-0.01
-0.1,-1.03,-0.01
-0.11,-1.03,0
-0.11,-1.03,0.01
-0.1,-1.02,0.01
-0.11,-1.03,0.03
-0.11,-1.03,0.04
-0.12,-1.02,0.04
-0.13,-1.01,0.05
-0.13,-1.01,0.04
-0.13,-1.01,0.04
-0.14,-1,0.03
-0.15,-0.99,0.03
-0.15,-0.97,0.03
-0.15,-0.96,0.04
-0.15,-0.96,0.04
-0.15,-0.96,0.04
-0.16,-0.96,0.03
-0.16,-0.96,0.02
-0.16,-0.97,0.01
-0.17,-0.97,-0.01
-0.17,-0.97,-0.02
-0.16,-0.97,-0.04
-0.16,-0.98,-0.05
-0.15,-0.98,-0.06
-0.15,-0.98,-0.08
-0.14,-0.99,-0.1
-0.15,-1,-0.13
-0.15,-1,-0.15
-0.15,-1,-0.17
-0.15,-0.98,-0.18
-0.15,-0.97,-0.19
-0.15,-0.97,-0.19
-0.15,-0.97,-0.19
-0.14,-0.98,-0.19
-0.14,-0.99,-0.21
-0.15,-1,-0.22
-0.15,-1,-0.23
-0.16,-0.99,-0.24
-0.14,-0.96,-0.24
-0.13,-0.94,-0.24
-0.14,-0.94,-0.23
-0.15,-0.95,-0.22
-0.14,-0.96,-0.2
-0.14,-0.96,-0.2
-0.14,-0.97,-0.21
-0.14,-0.97,-0.21
-0.12,-0.97,-0.2
-0.11,-0.97,-0.18
-0.09,-0.98,-0.16
-0.08,-0.99,-0.14
-0.07,-1.03,-0.12
-0.06,-1.03,-0.1
-0.05,-1.02,-0.08
-0.03,-1.01,-0.05
-0.01,-1.01,-0.03
0.02,-1.01,-0.01
0.05,-1,0.02
0.08,-1,0.04
0.11,-1,0.05
0.14,-0.99,0.05
0.16,-0.98,0.05
0.18,-0.98,0.05
0.2,-0.98,0.05
0.21,-0.98,0.06
0.23,-0.98,0.07
0.24,-0.98,0.07
0.25,-0.97,0.07
0.27,-0.97,0.07
0.28,-0.99,0.07
0.29,-1.04,0.07
0.29,-1.09,0.08
0.29,-1.12,0.07
0.29,-1.12,0.06
0.29,-1.1,0.04
0.3,-1.06,0.03
0.3,-1.03,0.03
0.31,-1.01,0.04
0.3,-1.04,0.05
0.3,-1.08,0.05
0.31,-1.12,0.05
0.31,-1.15,0.04
0.3,-1.17,0.02
0.28,-1.16,0
0.28,-1.15,-0.02
0.29,-1.13,-0.03
0.29,-1.1,-0.03
0.28,-1.08,-0.03
0.27,-1.06,-0.05
0.25,-1.04,-0.07
0.25,-1.01,-0.08
0.24,-0.98,-0.1
0.22,-0.95,-0.1
0.23,-0.92,-0.09
0.25,-0.9,-0.07
0.24,-0.92,-0.05
0.23,-0.93,-0.03
0.24,-0.92,-0.03
0.24,-0.92,-0.04
0.24,-0.93,-0.05
0.23,-0.94,-0.05
0.22,-0.96,-0.06
0.2,-0.99,-0.07
0.19,-1.03,-0.08
0.19,-1.03,-0.09
0.2,-1.03,-0.08
0.2,-1.03,-0.08
0.21,-1.04,-0.08
0.21,-1.04,-0.08
0.22,-1.05,-0.08
0.22,-1.06,-0.09
0.21,-1.06,-0.09
0.2,-1.06,-0.09
0.2,-1.07,-0.09
0.2,-1.09,-0.09
0.19,-1.11,-0.1
0.18,-1.11,-0.1
0.17,-1.11,-0.09
0.17,-1.09,-0.09
0.17,-1.06,-0.09
0.17,-1.04,-0.08
0.17,-1.01,-0.07
0.17,-0.98,-0.05
0.18,-0.95,-0.02
0.18,-0.94,0
0.18,-0.93,0.01
0.17,-0.93,0.02
0.15,-0.94,0.01
0.14,-0.95,0
0.14,-0.98,-0.01
0.12,-0.99,-0.01
0.11,-1,-0.01
0.1,-1.01,-0.01
0.1,-1.03,0
0.1,-1.04,0
0.09,-1.05,0.02
0.1,-1.06,0.02
0.1,-1.07,0.02
0.1,-1.09,0.02
0.1,-1.09,0.01
0.09,-1.09,0
0.09,-1.09,0
0.1,-1.07,0.01
0.1,-1.05,0.02
0.09,-1.03,0.03
0.09,-1.02,0.04
0.09,-1.01,0.05
0.09,-1.02,0.06
0.08,-1.03,0.07
0.07,-1.04,0.08
0.07,-1.05,0.08
0.08,-1.05,0.09
0.1,-1.05,0.1
0.1,-1.05,0.1
0.11,-1.04,0.11
0.11,-1.02,0.12
0.11,-1,0.13
0.12,-0.99,0.14
0.12,-0.98,0.14
0.11,-0.96,0.15
0.11,-0.95,0.14
0.11,-0.94,0.15
0.12,-0.93,0.15
0.12,-0.92,0.16
0.12,-0.91,0.17
0.11,-0.89,0.17
0.1,-0.86,0.17
0.09,-0.84,0.18
0.08,-0.83,0.19
0.08,-0.83,0.18
0.07,-0.81,0.19
0.07,-0.78,0.19
0.05,-0.76,0.19
0.04,-0.73,0.17
0.04,-0.71,0.17
0.04,-0.7,0.17
0.04,-0.7,0.17
0,-0.71,0.16
-0.06,-0.71,0.14
-0.11,-0.71,0.1
-0.13,-0.69,0.05
-0.15,-0.62,-0.02
-0.18,-0.59,-0.01
-0.2,-0.59,0.01
-0.24,-0.63,0
-0.3,-0.66,-0.03
-0.35,-0.69,-0.08
-0.44,-0.73,-0.17
-0.48,-0.76,-0.25
-0.45,-0.8,-0.28
-0.41,-0.82,-0.31
-0.38,-0.85,-0.31
-0.36,-0.9,-0.27
-0.3,-0.92,-0.22
-0.28,-0.93,-0.16
-0.28,-0.97,-0.13
-0.3,-1.02,-0.14
-0.33,-1.06,-0.14
-0.34,-1.07,-0.09
-0.37,-1.07,-0.03
-0.37,-1.07,0.04
-0.34,-1.09,0.09
-0.32,-1.16,0.11
-0.31,-1.23,0.1
-0.31,-1.27,0.06
-0.32,-1.26,0.04
-0.3,-1.25,0.1
-0.26,-1.31,0.32
-0.05,-1.29,0.45
0.02,-1.27,0.55
0.04,-1.29,0.58
0.03,-1.34,0.59
0.02,-1.38,0.6
0.05,-1.39,0.65
0.15,-1.32,0.73
0.27,-1.21,0.82
0.4,-1.11,0.88
0.61,-1,0.91
0.82,-0.9,0.95
0.99,-0.81,0.98
1.26,-0.7,1
1.51,-0.58,1.06
1.66,-0.49,1.13
1.77,-0.41,1.08
1.9,-0.36,0.95
2,-0.34,0.87
1.97,-0.37,0.83
1.87,-0.45,0.77
1.82,-0.54,0.65
1.76,-0.62,0.5
1.59,-0.71,0.39
1.35,-0.82,0.29
1.13,-0.92,0.21
0.9,-1.41,0.01
0.41,-1.69,-0.2
0.19,-1.61,-0.33
0.09,-1.22,-0.35
0.12,-0.95,-0.3
0.21,-1,-0.18
0.27,-1.18,-0.1
0.25,-1.3,-0.12
0.21,-1.26,-0.12
0.15,-1.24,-0.12
0.19,-1.21,-0.18
0.2,-1.63,-0.34
0.02,-1.72,-0.23
-0.09,-1.44,-0.17
0,-1.58,-0.25
-0.05,-1.54,-0.23
-0.33,-1.62,-0.32
-0.48,-1.81,-0.5
-0.52,-1.9,-0.69
-0.88,-2.11,-1.17
-0.88,-2.11,-1.17
-0.81,-2.17,-1.32
-0.89,-2.22,-1.63
-2.48,-1.79,-2.8
-2.9,0.84,-1.98
-0.59,-2.63,-1.77
-0.02,-2.44,0.81
0.69,0.57,2.62
1.8,0.91,1.48
1.41,-0.02,0.88
0.89,-0.19,0.98
0.44,-0.36,0.99
0.61,0.04,1.05
0.86,0.29,1.16
1.06,0.55,1.09
0.39,0.98,0.66
0.28,0.28,0.47
0.84,-0.77,0.56
0.95,-0.65,0.63
1.08,-0.36,0.57
0.81,-0.12,0.56
0.55,0.19,0.62
0.61,0.17,0.63
0.73,0,0.53
0.73,-0.03,0.56
0.72,-0.11,0.79
0.6,-0.18,0.93
0.55,-0.2,0.94
0.63,-0.19,0.86
0.66,-0.08,0.73
0.66,-0.02,0.79
0.63,-0.09,0.81
0.62,-0.13,0.79
0.67,-0.13,0.79
0.69,-0.13,0.75
0.68,-0.16,0.72
0.71,-0.2,0.75
0.69,-0.22,0.73
0.64,-0.23,0.74
0.61,-0.2,0.79
0.62,-0.15,0.82
0.66,-0.13,0.78
0.68,-0.1,0.72
0.69,-0.07,0.72
0.68,-0.08,0.74
0.67,-0.11,0.78
0.67,-0.13,0.76
0.65,-0.1,0.73
0.67,-0.07,0.75
0.73,-0.07,0.75
0.71,-0.08,0.71
0.7,-0.09,0.7
0.7,-0.11,0.74
0.7,-0.13,0.75
0.69,-0.13,0.73
0.7,-0.12,0.73
0.71,-0.09,0.74
0.71,-0.09,0.72
0.74,-0.11,0.72
0.74,-0.11,0.7
0.72,-0.09,0.7
0.71,-0.08,0.7
0.69,-0.08,0.7
0.71,-0.09,0.72
0.72,-0.09,0.72
0.71,-0.11,0.72
0.71,-0.12,0.72
0.7,-0.12,0.71
0.71,-0.11,0.7
0.73,-0.1,0.7
0.74,-0.1,0.7
0.74,-0.11,0.7
0.73,-0.12,0.7
0.71,-0.12,0.71
0.71,-0.12,0.72
0.71,-0.12,0.72
0.71,-0.11,0.71
0.72,-0.12,0.71
0.72,-0.12,0.72
0.72,-0.12,0.72
0.73,-0.12,0.71
0.72,-0.12,0.7
0.71,-0.11,0.7
0.72,-0.11,0.7
0.72,-0.12,0.71
0.71,-0.13,0.71
0.71,-0.13,0.71
0.71,-0.13,0.71
0.71,-0.12,0.71
0.72,-0.12,0.7
0.72,-0.12,0.69
0.73,-0.11,0.7
0.72,-0.12,0.71
0.72,-0.12,0.72
0.72,-0.12,0.7
0.72,-0.12,0.71
0.73,-0.13,0.7
0.72,-0.12,0.7
0.73,-0.12,0.7
0.75,-0.12,0.7
0.73,-0.12,0.7
0.73,-0.12,0.7
0.73,-0.12,0.71
0.72,-0.12,0.71
0.72,-0.13,0.7
0.72,-0.13,0.7
0.72,-0.13,0.7
0.72,-0.13,0.7
0.73,-0.13,0.7
0.72,-0.13,0.71
0.72,-0.13,0.71
0.72,-0.12,0.71
0.72,-0.13,0.7
0.73,-0.12,0.69
0.72,-0.12,0.69
0.72,-0.12,0.7
0.73,-0.12,0.7
0.72,-0.13,0.7
0.71,-0.13,0.7
0.72,-0.13,0.7
0.73,-0.12,0.7
0.73,-0.12,0.7
0.73,-0.13,0.7
0.73,-0.13,0.71
0.72,-0.13,0.7
0.72,-0.13,0.7
0.73,-0.13,0.7
0.72,-0.12,0.7
0.72,-0.12,0.7
0.72,-0.12,0.7
0.72,-0.13,0.7
0.72,-0.12,0.7
0.73,-0.12,0.7
0.73,-0.12,0.7
0.72,-0.12,0.69
0.72,-0.12,0.69
0.72,-0.12,0.7
0.73,-0.12,0.7
0.74,-0.13,0.7
0.74,-0.13,0.7
0.73,-0.12,0.69
0.73,-0.12,0.69
0.74,-0.12,0.7
0.73,-0.12,0.71
0.73,-0.13,0.71
0.73,-0.13,0.7
0.73,-0.13,0.7
0.73,-0.12,0.7
0.73,-0.13,0.69
0.72,-0.12,0.69
0.73,-0.12,0.69
0.73,-0.12,0.7
0.73,-0.12,0.7
0.72,-0.12,0.7
0.73,-0.13,0.7
0.73,-0.12,0.7
0.73,-0.13,0.7
0.73,-0.12,0.7
0.72,-0.13,0.7
0.72,-0.13,0.7
0.72,-0.12,0.7
0.73,-0.12,0.7
0.73,-0.12,0.7
0.73,-0.13,0.71
0.73,-0.13,0.71
0.73,-0.13,0.7
0.73,-0.12,0.7
0.73,-0.12,0.7
0.73,-0.13,0.7
0.73,-0.13,0.7
0.73,-0.12,0.7
0.73,-0.13,0.69
0.73,-0.13,0.69
0.73,-0.12,0.69
0.73,-0.12,0.69
0.73,-0.12,0.7
0.73,-0.13,0.7
0.73,-0.13,0.7
0.73,-0.13,0.7
0.73,-0.13,0.69
0.73,-0.12,0.69
0.73,-0.12,0.69
0.73,-0.13,0.7
0.72,-0.13,0.7
0.73,-0.13,0.69
0.73,-0.13,0.69
0.74,-0.12,0.7
0.73,-0.12,0.69
0.73,-0.12,0.7
0.73,-0.13,0.7
0.72,-0.13,0.7
0.72,-0.13,0.7
0.73,-0.13,0.7
0.73,-0.13,0.7
0.73,-0.12,0.7
0.73,-0.12,0.7
0.73,-0.12,0.7
0.72,-0.13,0.7
0.72,-0.13,0.7
0.73,-0.12,0.69
0.74,-0.12,0.69
0.74,-0.12,0.69
0.73,-0.12,0.7
0.73,-0.13,0.7
0.72,-0.13,0.7
0.72,-0.13,0.71
0.72,-0.13,0.71
0.72,-0.13,0.7
0.73,-0.13,0.69
0.74,-0.12,0.69
0.73,-0.12,0.7
0.73,-0.12,0.7
0.74,-0.12,0.7
0.73,-0.12,0.7
0.73,-0.13,0.7
0.73,-0.13,0.7
0.72,-0.13,0.71
0.72,-0.13,0.7
0.72,-0.12,0.7
0.73,-0.12,0.7
0.72,-0.12,0.69
0.72,-0.12,0.7
0.73,-0.13,0.71
0.72,-0.13,0.71
0.72,-0.13,0.71
0.73,-0.13,0.71
0.72,-0.13,0.7
0.72,-0.13,0.7
0.72,-0.12,0.71
0.72,-0.13,0.71
0.72,-0.13,0.71
0.72,-0.12,0.7
0.73,-0.12,0.7
0.73,-0.12,0.7
0.73,-0.12,0.7
0.71,-0.13,0.71
0.72,-0.13,0.71
0.72,-0.13,0.71
0.72,-0.12,0.71
0.71,-0.13,0.72
0.7,-0.13,0.72
0.72,-0.14,0.72
0.71,-0.13,0.72
0.71,-0.13,0.72
0.72,-0.12,0.7
0.71,-0.11,0.7
0.71,-0.12,0.71
0.71,-0.12,0.71
0.72,-0.12,0.7
0.73,-0.12,0.71
0.73,-0.12,0.72
0.73,-0.12,0.71
0.72,-0.12,0.7
0.71,-0.12,0.71
0.7,-0.12,0.72
0.7,-0.13,0.73
0.71,-0.13,0.72
0.72,-0.12,0.71
0.73,-0.12,0.71
0.72,-0.13,0.72
0.71,-0.12,0.71
0.7,-0.12,0.72
0.69,-0.12,0.72
0.69,-0.12,0.72
0.7,-0.13,0.72
0.7,-0.13,0.72
0.69,-0.13,0.73
0.7,-0.12,0.74
0.71,-0.12,0.73
0.72,-0.12,0.72
0.71,-0.12,0.71
0.71,-0.12,0.72
0.72,-0.13,0.72
0.71,-0.12,0.72
0.71,-0.12,0.72
0.71,-0.12,0.72
0.71,-0.12,0.71
0.7,-0.12,0.71
0.71,-0.12,0.72
0.71,-0.11,0.71
0.71,-0.12,0.72
0.7,-0.13,0.73
0.68,-0.13,0.73
0.68,-0.12,0.73
0.7,-0.12,0.73
0.72,-0.12,0.73
0.7,-0.11,0.71
0.7,-0.12,0.72
0.71,-0.12,0.71
0.69,-0.12,0.72
0.7,-0.12,0.73
0.72,-0.13,0.72
0.72,-0.12,0.72
0.71,-0.12,0.72
0.71,-0.11,0.72
0.71,-0.11,0.71
0.7,-0.11,0.72
0.69,-0.12,0.73
0.68,-0.13,0.75
0.68,-0.13,0.74
0.7,-0.12,0.73
0.72,-0.12,0.72
0.71,-0.12,0.71
0.71,-0.11,0.72
0.7,-0.12,0.72
0.69,-0.12,0.72
0.69,-0.11,0.72
0.68,-0.12,0.72
0.68,-0.12,0.73
0.69,-0.12,0.74
0.71,-0.11,0.73
0.71,-0.11,0.72
0.71,-0.12,0.72
0.7,-0.12,0.73
0.69,-0.12,0.73
0.7,-0.11,0.73
0.69,-0.11,0.73
0.7,-0.12,0.73
0.7,-0.11,0.73
0.71,-0.12,0.73
0.71,-0.12,0.73
0.7,-0.12,0.73
0.69,-0.12,0.74
0.68,-0.12,0.74
0.68,-0.12,0.74
0.69,-0.12,0.73
0.7,-0.12,0.73
0.7,-0.11,0.73
0.7,-0.1,0.71
0.68,-0.13,0.74
0.68,-0.14,0.76
0.69,-0.11,0.73
0.69,-0.11,0.73
0.71,-0.11,0.72
0.7,-0.12,0.73
0.7,-0.12,0.74
0.69,-0.13,0.74
0.68,-0.12,0.74
0.68,-0.12,0.74
0.68,-0.11,0.73
0.7,-0.11,0.73
0.7,-0.11,0.73
0.69,-0.11,0.73
0.69,-0.12,0.73
0.69,-0.12,0.73
0.68,-0.11,0.73
0.68,-0.11,0.74
0.67,-0.12,0.74
0.68,-0.12,0.74
0.7,-0.12,0.73
0.71,-0.12,0.73
0.7,-0.12,0.73
0.69,-0.12,0.73
0.68,-0.12,0.74
0.68,-0.12,0.74
0.69,-0.12,0.74
0.69,-0.12,0.73
0.7,-0.12,0.73
0.7,-0.12,0.73
0.7,-0.12,0.73
0.69,-0.12,0.73
0.69,-0.12,0.73
0.69,-0.11,0.73
0.69,-0.12,0.74
0.69,-0.12,0.74
0.69,-0.12,0.73
0.7,-0.12,0.73
0.7,-0.12,0.73
0.69,-0.11,0.73
0.69,-0.11,0.74
0.7,-0.12,0.74
0.69,-0.12,0.73
0.69,-0.12,0.73
0.69,-0.12,0.73
0.7,-0.12,0.73
0.7,-0.12,0.73
0.7,-0.12,0.73
0.7,-0.12,0.73
0.7,-0.11,0.73
0.69,-0.11,0.74
0.7,-0.12,0.74
0.69,-0.12,0.73
0.69,-0.12,0.73
0.69,-0.12,0.73
0.71,-0.11,0.73
0.72,-0.12,0.72
0.71,-0.11,0.72
0.69,-0.11,0.73
0.69,-0.12,0.73
0.69,-0.12,0.74
0.7,-0.12,0.74
0.7,-0.11,0.73
0.71,-0.11,0.72
0.71,-0.12,0.72
0.7,-0.12,0.73
0.69,-0.11,0.72
0.68,-0.12,0.73
0.69,-0.12,0.74
0.69,-0.12,0.74
0.7,-0.12,0.74
0.7,-0.12,0.73
0.69,-0.11,0.73
0.69,-0.11,0.73
0.7,-0.11,0.72
0.7,-0.11,0.72
0.7,-0.11,0.73
0.7,-0.11,0.73
0.69,-0.11,0.73
0.69,-0.12,0.73
0.69,-0.12,0.73
0.7,-0.12,0.73
0.7,-0.11,0.73
0.7,-0.11,0.73
0.7,-0.11,0.73
0.7,-0.11,0.73
0.7,-0.11,0.73
0.7,-0.12,0.73
0.7,-0.12,0.73
0.69,-0.12,0.73
0.7,-0.11,0.73
0.7,-0.11,0.73
0.7,-0.11,0.73
0.7,-0.11,0.73
0.69,-0.11,0.74
0.69,-0.11,0.74
0.69,-0.12,0.74
0.69,-0.11,0.73
0.69,-0.11,0.73
0.69,-0.11,0.73
0.69,-0.11,0.73
0.69,-0.11,0.73
0.69,-0.11,0.73
0.69,-0.12,0.74
0.69,-0.11,0.73
0.69,-0.11,0.73
0.69,-0.11,0.73
0.69,-0.11,0.73
0.69,-0.11,0.73
0.69,-0.11,0.73
0.69,-0.11,0.73
0.69,-0.11,0.74
0.69,-0.12,0.74
0.69,-0.11,0.74
0.69,-0.11,0.73
0.69,-0.11,0.74
0.68,-0.11,0.74
0.69,-0.11,0.74
0.69,-0.12,0.74
0.69,-0.11,0.73
0.69,-0.11,0.74
0.69,-0.11,0.73
0.69,-0.11,0.73
0.69,-0.11,0.73
0.69,-0.11,0.73
0.69,-0.11,0.74
0.69,-0.12,0.74
0.7,-0.12,0.73
0.69,-0.11,0.74
0.69,-0.11,0.74
0.69,-0.11,0.74
0.7,-0.11,0.73
0.7,-0.11,0.73
0.69,-0.11,0.73
0.69,-0.11,0.74
0.69,-0.11,0.74
0.69,-0.11,0.73
0.69,-0.11,0.73
0.69,-0.11,0.73
0.69,-0.11,0.73
0.69,-0.11,0.74
0.69,-0.11,0.73
0.69,-0.11,0.73
0.69,-0.11,0.73
0.69,-0.11,0.73
0.69,-0.11,0.74
0.69,-0.11,0.74
0.69,-0.11,0.74
0.69,-0.11,0.74
0.69,-0.11,0.73
0.69,-0.11,0.73
0.69,-0.11,0.73
0.69,-0.12,0.73
0.69,-0.11,0.73
0.69,-0.11,0.73
0.69,-0.11,0.73
0.69,-0.11,0.74
0.69,-0.11,0.73
0.69,-0.11,0.73
0.69,-0.1,0.74
0.7,-0.1,0.74
0.69,-0.11,0.73
0.68,-0.12,0.74
0.69,-0.12,0.74
0.69,-0.12,0.74
0.69,-0.12,0.73
0.69,-0.11,0.74
0.69,-0.12,0.74
0.69,-0.12,0.74
0.69,-0.12,0.74
0.69,-0.12,0.74
0.69,-0.11,0.74
0.69,-0.11,0.73
0.69,-0.11,0.73
0.69,-0.11,0.73
0.69,-0.11,0.73
0.7,-0.11,0.73
0.69,-0.12,0.73
0.69,-0.12,0.73
0.69,-0.12,0.74
0.69,-0.12,0.74
0.69,-0.12,0.74
0.69,-0.11,0.73
0.69,-0.11,0.74
0.69,-0.11,0.74
0.7,-0.11,0.73
0.7,-0.11,0.73
0.69,-0.11,0.73
0.69,-0.11,0.73
0.68,-0.11,0.73
0.68,-0.11,0.73
0.69,-0.12,0.73
0.69,-0.12,0.74
0.69,-0.12,0.74
0.69,-0.12,0.73
0.69,-0.11,0.73
0.69,-0.11,0.73
0.69,-0.12,0.73
0.69,-0.12,0.73
0.69,-0.11,0.73
0.69,-0.11,0.73
0.69,-0.11,0.74
0.69,-0.12,0.73
0.69,-0.11,0.73
0.69,-0.11,0.74
0.69,-0.11,0.73
0.69,-0.11,0.73
0.69,-0.11,0.73
0.69,-0.11,0.73
0.69,-0.11,0.73
0.69,-0.11,0.73
0.69,-0.11,0.73
0.69,-0.11,0.73
0.69,-0.11,0.73
0.69,-0.12,0.74
0.69,-0.11,0.73
0.69,-0.11,0.73
0.69,-0.11,0.73
0.69,-0.11,0.73
0.69,-0.11,0.73
0.69,-0.12,0.73
0.69,-0.12,0.73
0.69,-0.12,0.74
0.69,-0.11,0.74
0.69,-0.11,0.73
0.69,-0.11,0.73
0.69,-0.11,0.74
0.69,-0.11,0.74
0.69,-0.12,0.73
0.69,-0.11,0.73
0.69,-0.11,0.73
0.69,-0.11,0.73
0.69,-0.11,0.73
0.69,-0.12,0.73
0.7,-0.11,0.74
0.69,-0.11,0.74
0.69,-0.11,0.73
0.69,-0.11,0.73
0.69,-0.11,0.74
0.69,-0.11,0.73
0.69,-0.11,0.73
0.69,-0.11,0.73
0.69,-0.11,0.73
0.69,-0.11,0.73
0.69,-0.11,0.74
0.69,-0.12,0.74
0.69,-0.11,0.74
0.69,-0.11,0.74
0.69,-0.11,0.74
0.7,-0.11,0.73
0.69,-0.11,0.73
0.69,-0.12,0.74
0.9,-0.11,0.73
0.69,-0.11,0.73
0.69,-0.11,0.73
0.7,-0.11,0.73
0.69,-0.11,0.74
0.69,-0.11,0.74
0.69,-0.11,0.73
0.69,-0.11,0.73
0.69,-0.11,0.73
0.7,-0.12,0.73
0.7,-0.12,0.74
0.7,-0.12,0.74
0.69,-0.11,0.73
0.69,-0.11,0.73
0.69,-0.11,0.74
0.69,-0.12,0.74
0.69,-0.11,0.73
0.69,-0.11,0.73
0.69,-0.11,0.73
0.69,-0.12,0.74
0.69,-0.11,0.74
0.69,-0.11,0.73
0.69,-0.11,0.73
0.69,-0.11,0.73
0.69,-0.11,0.74
0.69,-0.11,0.73
0.69,-0.11,0.73
0.69,-0.11,0.73
0.69,-0.11,0.73
0.69,-0.11,0.73
0.69,-0.11,0.73
0.69,-0.11,0.73
0.69,-0.11,0.74
0.69,-0.11,0.74
0.69,-0.11,0.74
0.69,-0.11,0.74
0.69,-0.11,0.73
0.69,-0.11,0.73
0.69,-0.11,0.73
0.69,-0.11,0.74
0.69,-0.11,0.74
0.69,-0.12,0.74
0.69,-0.12,0.73
0.69,-0.11,0.73
0.69,-0.11,0.73
0.69,-0.11,0.73
0.69,-0.11,0.74
0.69,-0.11,0.74
0.69,-0.11,0.73
0.69,-0.11,0.73
0.69,-0.11,0.73
0.69,-0.12,0.74
0.69,-0.12,0.73
0.69,-0.11,0.73
0.69,-0.11,0.73
0.69,-0.11,0.73
0.69,-0.11,0.73
0.69,-0.11,0.73
0.69,-0.11,0.73
0.69,-0.11,0.73
0.69,-0.12,0.73
0.69,-0.11,0.74
0.69,-0.11,0.74
0.69,-0.11,0.73
0.7,-0.11,0.73
0.7,-0.11,0.73
0.69,-0.12,0.73
0.69,-0.11,0.74
0.69,-0.11,0.73
0.69,-0.11,0.73
0.69,-0.11,0.73
0.69,-0.11,0.73
0.69,-0.11,0.73
0.69,-0.11,0.73
0.69,-0.11,0.73
0.69,-0.11,0.73
0.69,-0.11,0.73
0.69,-0.11,0.73
0.69,-0.11,0.73
0.69,-0.11,0.73
0.69,-0.11,0.73
0.69,-0.11,0.73
0.7,-0.11,0.73
0.7,-0.11,0.73
0.69,-0.12,0.73
0.69,-0.11,0.73
0.69,-0.11,0.73
0.7,-0.11,0.73
0.7,-0.11,0.73
0.7,-0.12,0.74
0.7,-0.12,0.73
0.69,-0.12,0.73
0.69,-0.12,0.73
0.7,-0.11,0.74
0.7,-0.11,0.73
0.69,-0.11,0.73
0.7,-0.11,0.73
0.69,-0.11,0.73
0.69,-0.11,0.73
0.7,-0.11,0.73
0.7,-0.11,0.73
0.7,-0.11,0.73
0.7,-0.11,0.73
0.7,-0.11,0.73
0.7,-0.11,0.73
0.7,-0.11,0.73
0.7,-0.11,0.73
0.7,-0.11,0.73
0.7,-0.11,0.73
0.7,-0.11,0.73
0.7,-0.11,0.73
0.7,-0.11,0.73
0.7,-0.11,0.73
0.7,-0.11,0.73
0.7,-0.11,0.73
0.7,-0.11,0.73
0.7,-0.11,0.73
0.69,-0.11,0.73
0.69,-0.11,0.73
0.7,-0.11,0.73
0.7,-0.11,0.73
0.7,-0.11,0.73
0.7,-0.11,0.73
0.7,-0.11,0.72
0.7,-0.11,0.72
0.7,-0.11,0.73
0.69,-0.11,0.73
0.69,-0.11,0.73
0.7,-0.11,0.73
0.7,-0.11,0.73
0.7,-0.11,0.73
0.7,-0.11,0.73
0.69,-0.11,0.73
0.7,-0.11,0.73
0.7,-0.11,0.73
0.69,-0.11,0.74
0.69,-0.11,0.73
0.7,-0.11,0.73
0.7,-0.11,0.73
0.69,-0.12,0.73
0.69,-0.11,0.73
0.69,-0.11,0.74
0.69,-0.11,0.73
0.69,-0.11,0.73
0.7,-0.11,0.73
0.71,-0.11,0.72
0.71,-0.12,0.72
0.7,-0.11,0.73
0.7,-0.11,0.73
0.71,-0.11,0.73
0.7,-0.11,0.73
0.7,-0.11,0.73
0.7,-0.11,0.73
0.7,-0.11,0.73
0.68,-0.11,0.74
0.68,-0.11,0.74
0.69,-0.11,0.74
0.7,-0.11,0.73
0.71,-0.11,0.72
0.71,-0.11,0.72
0.71,-0.11,0.72
0.7,-0.11,0.72
0.69,-0.12,0.73
0.69,-0.12,0.73
0.69,-0.11,0.73
0.7,-0.11,0.74
0.7,-0.1,0.73
0.71,-0.1,0.72
0.72,-0.1,0.72
0.72,-0.11,0.72
0.71,-0.11,0.72
0.7,-0.11,0.72
0.7,-0.11,0.72
0.7,-0.1,0.72
0.72,-0.11,0.7
0.7,-0.12,0.73
0.68,-0.13,0.73
0.67,-0.13,0.73
0.69,-0.12,0.72
0.71,-0.11,0.72
0.7,-0.07,0.74
0.67,-0.05,0.77
0.67,-0.1,0.77
0.7,-0.13,0.74
0.69,-0.11,0.72
0.68,-0.11,0.74
0.69,-0.1,0.75
0.7,-0.1,0.73
0.7,-0.11,0.72
0.71,-0.12,0.72
0.71,-0.12,0.72
0.7,-0.11,0.73
0.71,-0.1,0.73
0.72,-0.1,0.72
0.72,-0.1,0.72
0.71,-0.11,0.71
0.71,-0.11,0.72
0.7,-0.1,0.72
0.7,-0.1,0.72
0.71,-0.11,0.73
0.71,-0.11,0.72
0.72,-0.11,0.71
0.73,-0.1,0.71
0.73,-0.1,0.7
0.72,-0.1,0.7
0.71,-0.1,0.71
0.71,-0.1,0.71
0.71,-0.11,0.72
0.7,-0.11,0.71
0.71,-0.11,0.71
0.73,-0.11,0.71
0.72,-0.11,0.71
0.7,-0.12,0.72
0.68,-0.12,0.73
0.69,-0.12,0.74
0.72,-0.1,0.74
0.75,-0.08,0.71
0.75,-0.09,0.69
0.74,-0.1,0.7
0.71,-0.11,0.72
0.68,-0.13,0.73
0.67,-0.13,0.74
0.69,-0.11,0.74
0.68,-0.11,0.74
0.7,-0.11,0.74
0.71,-0.1,0.73
0.7,-0.09,0.73
0.72,-0.1,0.73
0.71,-0.1,0.73
0.69,-0.1,0.74
0.66,-0.12,0.75
0.65,-0.12,0.76
0.65,-0.13,0.77
0.66,-0.12,0.77
0.67,-0.11,0.76
0.68,-0.09,0.74
0.68,-0.1,0.73
0.67,-0.11,0.74
0.7,-0.11,0.74
0.69,-0.11,0.74
0.68,-0.11,0.74
0.67,-0.11,0.72
0.65,-0.12,0.72
0.65,-0.13,0.75
0.61,-0.14,0.75
0.61,-0.12,0.75
0.67,-0.11,0.75
0.69,-0.13,0.73
0.72,-0.11,0.74
0.72,-0.11,0.76
0.71,-0.13,0.75
0.72,-0.13,0.73
0.72,-0.12,0.81
0.59,-0.14,0.82
0.6,-0.18,0.89
0.64,-0.23,0.9
0.71,-0.3,0.88
0.64,-0.35,0.83
0.58,-0.37,0.86
0.67,-0.37,0.88
0.64,-0.29,0.87
0.59,-0.24,0.88
0.61,-0.33,0.85
0.55,-0.47,0.82
0.51,-0.61,0.92
0.55,-0.74,0.98
0.62,-0.77,0.87
0.61,-0.79,0.84
0.63,-0.75,0.79
0.81,-0.71,0.69
0.75,-0.74,0.7
0.61,-0.76,0.75
0.57,-0.77,0.72
0.53,-0.76,0.64
0.47,-0.77,0.61
0.45,-0.79,0.63
0.42,-0.8,0.64
0.39,-0.78,0.64
0.39,-0.72,0.61
0.42,-0.69,0.59
0.42,-0.66,0.59
0.39,-0.65,0.61
0.38,-0.68,0.64
0.37,-0.7,0.68
0.38,-0.69,0.69
0.41,-0.67,0.7
0.46,-0.65,0.67
0.51,-0.62,0.64
0.53,-0.61,0.63
0.51,-0.63,0.66
0.48,-0.69,0.74
0.47,-0.76,0.78
0.5,-0.79,0.8
0.52,-0.78,0.79
0.55,-0.73,0.73
0.6,-0.69,0.66
0.64,-0.67,0.63
0.63,-0.65,0.62
0.55,-0.66,0.69
0.47,-0.7,0.79
0.45,-0.73,0.83
0.45,-0.73,0.81
0.49,-0.74,0.75
0.57,-0.76,0.67
0.62,-0.76,0.6
0.48,-0.73,0.71
0.35,-0.74,0.8
0.29,-0.76,0.83
0.27,-0.74,0.83
0.28,-0.72,0.79
0.3,-0.7,0.73
0.33,-0.69,0.67
0.34,-0.69,0.62
0.32,-0.67,0.61
0.28,-0.64,0.63
0.24,-0.64,0.65
0.2,-0.63,0.69
0.22,-0.63,0.73
0.28,-0.65,0.75
0.35,-0.66,0.8
0.41,-0.68,0.83
0.48,-0.74,0.83
0.5,-0.75,0.85
0.52,-0.74,0.88
0.59,-0.76,0.93
0.62,-0.79,1
0.62,-0.82,1.08
0.69,-0.83,1.12
0.74,-0.78,1.04
0.75,-0.75,0.97
0.89,-0.64,0.65
1.08,-0.66,0.56
1.15,-0.63,0.5
1.16,-0.61,0.42
1.12,-0.59,0.36
1.08,-0.58,0.37
1.06,-0.61,0.41
1.02,-0.6,0.44
0.96,-0.58,0.43
0.92,-0.55,0.4
0.85,-0.54,0.41
0.74,-0.53,0.44
0.72,-0.5,0.4
0.69,-0.46,0.4
0.65,-0.43,0.38
0.62,-0.46,0.28
0.58,-0.52,0.24
0.57,-0.55,0.22
0.56,-0.59,0.2
0.55,-0.63,0.21
0.58,-0.62,0.28
0.58,-0.6,0.35
0.57,-0.6,0.31
0.59,-0.64,0.29
0.6,-0.64,0.27
0.63,-0.59,0.18
0.63,-0.61,0.2
0.58,-0.59,0.23
0.56,-0.64,0.3
0.59,-0.7,0.37
0.62,-0.78,0.44
0.65,-0.83,0.5
0.65,-0.88,0.53
0.64,-0.92,0.53
0.63,-0.96,0.5
0.63,-1.03,0.46
0.62,-1.09,0.43
0.62,-1.13,0.4
0.61,-1.13,0.42
0.58,-1.11,0.44
0.58,-1.08,0.45
0.58,-1.05,0.46
0.57,-1.03,0.46
0.56,-1.04,0.46
0.58,-1.09,0.46
0.61,-1.17,0.45
0.62,-1.22,0.4
0.62,-1.24,0.35
0.63,-1.24,0.32
0.64,-1.2,0.31
0.66,-1.17,0.31
0.67,-1.18,0.33
0.67,-1.25,0.33
0.63,-1.22,0.29
0.6,-1.17,0.23
0.57,-1.1,0.2
0.54,-1.03,0.18
0.51,-0.97,0.16
0.5,-0.94,0.15
0.5,-0.96,0.14
0.49,-1.03,0.14
0.48,-1.07,0.14
0.47,-1.06,0.15
0.47,-1.04,0.15
0.47,-1.01,0.14
0.46,-0.95,0.13
0.44,-0.88,0.12
0.41,-0.82,0.11
0.39,-0.78,0.11
0.37,-0.75,0.1
0.35,-0.72,0.09
0.34,-0.68,0.09
0.33,-0.65,0.1
0.34,-0.61,0.11
0.35,-0.58,0.12
0.35,-0.56,0.14
0.34,-0.54,0.15
0.35,-0.52,0.15
0.35,-0.52,0.14
0.37,-0.51,0.13
0.37,-0.51,0.14
0.38,-0.53,0.15
0.4,-0.55,0.16
0.42,-0.57,0.17
0.43,-0.58,0.18
0.46,-0.59,0.19
0.48,-0.62,0.2
0.49,-0.65,0.21
0.48,-0.65,0.22
0.47,-0.65,0.23
0.48,-0.65,0.25
0.5,-0.65,0.26
0.54,-0.64,0.26
0.56,-0.62,0.26
0.55,-0.58,0.26
0.53,-0.53,0.26
0.51,-0.5,0.26
0.49,-0.47,0.27
0.47,-0.44,0.28
0.46,-0.43,0.27
0.45,-0.43,0.26
0.44,-0.43,0.28
0.46,-0.43,0.31
0.46,-0.45,0.33
0.44,-0.45,0.34
0.5,-0.46,0.34
0.53,-0.49,0.34
0.57,-0.51,0.35
0.59,-0.54,0.36
0.59,-0.59,0.37
0.62,-0.64,0.39
0.65,-0.71,0.38
0.66,-0.77,0.4
0.69,-0.83,0.43
0.74,-0.93,0.43
0.76,-0.99,0.43
0.75,-1.01,0.44
0.75,-1.01,0.45
0.73,-0.97,0.46
0.71,-0.91,0.5
0.69,-0.86,0.49
0.68,-0.79,0.48
0.68,-0.72,0.45
0.67,-0.66,0.43
0.65,-0.6,0.42
0.64,-0.55,0.42
0.65,-0.49,0.43
0.65,-0.46,0.43
0.65,-0.45,0.43
0.64,-0.42,0.42
0.63,-0.38,0.39
0.64,-0.35,0.36
0.63,-0.33,0.41
0.64,-0.32,0.44
0.7,-0.32,0.39
0.68,-0.31,0.38
0.67,-0.3,0.4
0.72,-0.33,0.39
0.72,-0.35,0.39
0.73,-0.37,0.39
0.74,-0.37,0.4
0.72,-0.37,0.41
0.72,-0.37,0.42
0.74,-0.37,0.45
0.78,-0.37,0.49
0.86,-0.39,0.52
0.97,-0.42,0.52
1.06,-0.46,0.5
1.1,-0.5,0.49
1.09,-0.57,0.48
1.08,-0.63,0.46
1.07,-0.68,0.46
1.07,-0.72,0.47
1.06,-0.74,0.48
1.03,-0.73,0.48
0.98,-0.69,0.46
0.93,-0.54,0.39
0.84,-0.47,0.37
0.8,-0.41,0.36
0.77,-0.37,0.36
0.75,-0.33,0.36
0.76,-0.32,0.36
0.77,-0.32,0.37
0.78,-0.32,0.38
0.77,-0.32,0.4
0.76,-0.31,0.4
0.76,-0.29,0.39
0.76,-0.27,0.39
0.76,-0.25,0.4
0.78,-0.24,0.42
0.79,-0.23,0.42
0.8,-0.21,0.42
0.82,-0.21,0.43
0.84,-0.21,0.44
0.83,-0.18,0.45
0.81,-0.17,0.46
0.79,-0.18,0.47
0.76,-0.18,0.49
0.73,-0.18,0.49
0.71,-0.16,0.48
0.69,-0.14,0.48
0.7,-0.13,0.49
0.71,-0.12,0.52
0.7,-0.13,0.54
0.7,-0.15,0.57
0.7,-0.17,0.61
0.72,-0.19,0.65
0.74,-0.2,0.67
0.72,-0.18,0.63
0.68,-0.2,0.65
0.69,-0.22,0.7
0.71,-0.19,0.7
0.71,-0.2,0.7
0.7,-0.23,0.7
0.66,-0.23,0.71
0.62,-0.2,0.73
0.62,-0.19,0.74
0.63,-0.18,0.74
0.66,-0.18,0.76
0.7,-0.18,0.78
0.7,-0.2,0.79
0.65,-0.2,0.8
0.62,-0.21,0.82
0.6,-0.21,0.84
0.58,-0.2,0.84
0.57,-0.18,0.84
0.54,-0.17,0.84
0.52,-0.15,0.84
0.52,-0.13,0.85
0.57,-0.11,0.86
0.56,-0.09,0.87
0.56,-0.08,0.88
0.53,-0.06,0.9
0.51,-0.04,0.92
0.5,-0.03,0.92
0.49,-0.02,0.93
0.49,-0.01,0.92
0.52,0.01,0.92
0.52,0.03,0.92
0.49,0.05,0.91
0.5,0.08,0.91
0.52,0.09,0.92
0.52,0.11,0.94
0.49,0.14,0.95
0.45,0.16,0.95
0.38,0.19,0.97
0.33,0.2,0.99
0.31,0.21,1
0.3,0.21,1
0.28,0.22,0.99
0.29,0.23,0.99
0.28,0.24,0.99
0.25,0.26,1.01
0.22,0.29,1.04
0.2,0.31,1.07
0.16,0.31,1.06
0.13,0.33,1.03
0.11,0.34,1.01
0.11,0.34,0.99
0.12,0.33,1
0.1,0.32,1.03
0.07,0.31,1.05
0.04,0.31,1.05
0.02,0.3,1.03
0.04,0.29,1
0.06,0.28,0.98
0.09,0.28,0.99
0.1,0.26,1.01
0.09,0.26,1.01
0.1,0.27,1
0.12,0.28,1
0.12,0.3,0.97
0.1,0.31,0.95
0.08,0.32,0.93
0.05,0.34,0.93
0.05,0.35,0.91
0.06,0.35,0.88
0.05,0.35,0.85
0.03,0.35,0.84
0.03,0.34,0.85
0.08,0.34,0.91
0.09,0.33,0.91
0.1,0.33,0.88
0.09,0.34,0.86
0.09,0.34,0.84
0.09,0.35,0.82
0.11,0.35,0.83
0.12,0.35,0.85
0.12,0.33,0.89
0.13,0.33,0.86
0.07,0.38,0.86
0.01,0.38,0.91
0.06,0.38,0.9
0.08,0.38,0.87
0.14,0.49,0.71
0.17,0.5,0.68
0.05,0.34,0.92
0.09,0.36,0.89
0.08,0.39,0.89
-0.01,0.3,1.1
0.06,0.24,1.11
0.05,0.28,1.06
0.11,0.32,0.97
0.14,0.35,0.81
0.01,0.4,0.82
0.04,0.42,0.93
0.05,0.36,0.97
0.08,0.33,1.01
0.01,0.34,1.03
0.11,0.35,1.02
0.09,0.35,0.99
0.06,0.36,0.94
0.04,0.43,0.97
0.02,0.43,1.07
-0.03,0.38,1.13
-0.09,0.35,1.1
-0.03,0.34,1.1
-0.04,0.34,1.06
-0.03,0.32,0.94
0.03,0.3,0.89
-0.01,0.31,0.88
-0.03,0.31,0.86
-0.04,0.32,0.89
-0.03,0.33,0.93
-0.06,0.34,0.97
-0.04,0.35,0.96
0.02,0.36,0.94
0,0.37,0.94
-0.02,0.37,0.91
-0.01,0.38,0.9
-0.01,0.38,0.88
-0.02,0.38,0.88
-0.02,0.37,0.89
-0.01,0.36,0.92
0.05,0.37,0.93
0.02,0.36,0.97
-0.02,0.35,0.98
-0.01,0.35,0.95
-0.01,0.36,0.95
-0.04,0.36,0.95
-0.06,0.37,0.92
-0.07,0.36,0.92
-0.05,0.38,0.92
-0.02,0.39,0.91
-0.04,0.38,0.94
-0.05,0.38,0.95
-0.06,0.38,0.95
-0.06,0.38,0.94
-0.06,0.38,0.93
-0.09,0.37,0.94
-0.09,0.36,0.94
-0.06,0.36,0.93
-0.03,0.36,0.9
-0.01,0.36,0.9
-0.02,0.35,0.91
-0.02,0.35,0.92
-0.01,0.35,0.93
0,0.35,0.93
0.01,0.34,0.95
0,0.35,0.95
-0.01,0.34,0.96
-0.01,0.35,0.96
-0.01,0.36,0.94
-0.02,0.36,0.93
-0.02,0.36,0.92
-0.01,0.37,0.91
-0.01,0.37,0.91
-0.01,0.37,0.93
-0.03,0.37,0.94
-0.03,0.37,0.94
-0.02,0.37,0.93
-0.02,0.37,0.92
-0.01,0.37,0.92
0,0.36,0.92
0.01,0.36,0.92
0,0.36,0.91
0,0.37,0.91
0.01,0.36,0.92
0.01,0.36,0.93
0.01,0.36,0.94
0.01,0.37,0.94
0.01,0.37,0.94
0.01,0.37,0.92
0,0.37,0.91
0,0.37,0.9
-0.02,0.37,0.91
-0.02,0.37,0.92
-0.03,0.37,0.93
-0.02,0.37,0.94
-0.02,0.36,0.95
-0.02,0.36,0.95
-0.01,0.36,0.94
-0.01,0.36,0.94
-0.01,0.37,0.93
-0.01,0.37,0.92
-0.01,0.37,0.92
-0.02,0.37,0.92
-0.04,0.36,0.93
-0.04,0.36,0.93
-0.02,0.36,0.93
0,0.36,0.93
0.01,0.36,0.93
0,0.36,0.94
-0.01,0.37,0.94
-0.01,0.37,0.94
0,0.37,0.93
-0.01,0.37,0.93
-0.01,0.38,0.92
-0.01,0.38,0.91
-0.01,0.37,0.91
-0.02,0.38,0.92
-0.03,0.38,0.92
-0.03,0.38,0.92
-0.02,0.37,0.92
-0.01,0.37,0.92
0.01,0.36,0.93
0,0.37,0.93
0,0.37,0.93
0,0.37,0.92
0,0.37,0.93
0,0.37,0.93
-0.01,0.37,0.93
-0.01,0.37,0.93
-0.01,0.37,0.93
-0.01,0.37,0.93
-0.01,0.37,0.93
-0.01,0.37,0.94
-0.01,0.36,0.94
-0.01,0.36,0.94
-0.01,0.37,0.93
-0.01,0.37,0.93
-0.01,0.37,0.93
-0.02,0.37,0.92
-0.01,0.37,0.92
-0.01,0.37,0.91
-0.01,0.37,0.92
-0.01,0.37,0.92
-0.01,0.37,0.92
0,0.38,0.92
-0.01,0.37,0.91
-0.01,0.37,0.92
0,0.37,0.93
0,0.37,0.92
-0.01,0.37,0.93
-0.01,0.37,0.93
0,0.37,0.93
0,0.37,0.93
-0.01,0.37,0.93
-0.01,0.37,0.93
-0.01,0.37,0.93
-0.01,0.37,0.93
0,0.37,0.94
-0.01,0.36,0.95
-0.01,0.36,0.94
0,0.36,0.94
0,0.36,0.93
-0.01,0.36,0.93
-0.01,0.37,0.93
-0.01,0.37,0.93
-0.01,0.37,0.93
0,0.37,0.93
0,0.37,0.93
0,0.38,0.93
0,0.38,0.92
0,0.38,0.91
0,0.38,0.91
-0.01,0.38,0.92
-0.01,0.38,0.92
0,0.38,0.92
-0.01,0.37,0.93
-0.01,0.37,0.94
0,0.37,0.94
0,0.37,0.93
-0.01,0.37,0.93
-0.01,0.37,0.92
-0.01,0.37,0.92
-0.01,0.37,0.92
0,0.37,0.93
0,0.37,0.93
-0.01,0.36,0.93
-0.01,0.36,0.94
0,0.36,0.94
0,0.36,0.94
0,0.37,0.93
0.01,0.37,0.94
0.01,0.37,0.94
0.01,0.37,0.93
0.01,0.37,0.93
0.01,0.38,0.92
0.01,0.37,0.92
0,0.37,0.92
0,0.37,0.92
0,0.37,0.92
0,0.37,0.92
-0.01,0.37,0.92
-0.01,0.37,0.92
-0.01,0.38,0.92
0,0.38,0.92
0,0.38,0.92
0,0.38,0.93
0.01,0.38,0.92
0,0.38,0.92
0,0.38,0.93
0,0.37,0.93
0,0.37,0.93
