Acc_x,Acc_y,Acc_z
0,0,0
0,0,0
0,0,0
0,0,0
0,0,0
0,0,0
0,0,0
0,0,0
0,0,0
0,0,0
0,0,0
0,0,0
0,0,0
0,0,0
0,0,0
0,0,0
0,0,0
0,0,0
0,0,0
0,0,0
0,0,0
0,0,0
0,0,0
0,0,0
0,0,0
0,0,0
0,0,0
0,0,0
0,0,0
0,0,0
0,0,0
0,0,0
0,0,0
0,0,0
0,0,0
0,0,0
0,0,0
0,0,0
0,0,0
0,0,0
0,0,0
0,0,0
0,0,0
0,0,0
0,0,0
0,0,0
0,0,0
0,0,0
0,0,0
0,0,0
0,0,0
0,0,0
0,0,0
0,0,0
0,0,0
0,0,0
0,0,0
0,0,0
0,0,0
0,0,0
0,0,0
0,0,0
0,0,0
0,0,0
0,0,0
0,0,0
0,0,0
0,0,0
0,0,0
0,0,0
0,0,0
0,0,0
0,0,0
0,0,0
0,0,0
0,0,0
0,0,0
0,0,0
0,0,0
0,0,0
0,0,0
0,0,0
0,0,0
0,0,0
0,0,0
0,0,0
0,0,0
0,0,0
0,0,0
0,0,0
0,0,0
0,0,0
0,0,0
0,0,0
0,0,0
0,0,0
0,0,0
0,0,0
0,0,0
0,0,0
0,0,0
0,0,0
0,0,0
0,0,0
0,0,0
0,0,0
0,0,0
0,0,0
0,0,0
0,0,0
0,0,0
0,0,0
0,0,0
0,0,0
0,0,0
0,0,0
0,0,0
0,0,0
0,0,0
0,0,0
0,0,0
0,0,0
0,0,0
0,0,0
0,0,0
0,0,0
0,0,0
0,0,0
0,0,0
0,0,0
0,0,0
0,0,0
0,0,0
0,0,0
0,0,0
0,0,0
0,0,0
0,0,0
0,0,0
0,0,0
0,0,0
0,0,0
0,0,0
0,0,0
0,0,0
0,0,0
0,0,0
0,0,0
0,0,0
0,0,0
0,0,0
0,0,0
0,0,0
0,0,0
0,0,0
0,0,0
0,0,0
0,0,0
0,0,0
0,0,0
0,0,0
0,0,0
0,0,0
0,0,0
0,0,0
0,0,0
0,0,0
0,0,0
0,0,0
0,0,0
0,0,0
0,0,0
0,0,0
0,0,0
0,0,0
0,0,0
0,0,0
0,0,0
0,0,0
0,0,0
0,0,0
0,0,0
0,0,0
0,0,0
0,0,0
0,0,0
0,0,0
0,0,0
0,0,0
0,0,0
0,0,0
0,0,0
0,0,0
0,0,0
0,0,0
0,0,0
0,0,0
0,0,0
0,0,0
0,0,0
0,0,0
0,0,0
0,0,0
0,0,0
0,0,0
0,0,0
0.36,0.43,0.83
0.36,0.43,0.83
0.36,0.43,0.83
0.36,0.43,0.83
0.36,0.43,0.83
0.36,0.43,0.83
0.36,0.43,0.83
0.36,0.43,0.83
0.36,0.43,0.83
0.36,0.43,0.83
0.36,0.43,0.83
0.36,0.43,0.83
0.36,0.43,0.83
0.36,0.43,0.83
0.35,0.43,0.83
0.35,0.43,0.83
0.35,0.43,0.83
0.35,0.43,0.83
0.35,0.43,0.83
0.35,0.43,0.83
0.36,0.43,0.83
0.36,0.43,0.83
0.36,0.43,0.83
0.36,0.43,0.83
0.36,0.43,0.83
0.36,0.42,0.83
0.36,0.42,0.83
0.35,0.42,0.83
0.35,0.42,0.83
0.35,0.42,0.83
0.35,0.43,0.83
0.35,0.43,0.83
0.36,0.43,0.83
0.36,0.43,0.83
0.36,0.43,0.83
0.36,0.43,0.83
0.35,0.43,0.83
0.35,0.44,0.83
0.35,0.44,0.83
0.35,0.44,0.83
0.35,0.44,0.82
0.36,0.43,0.83
0.36,0.43,0.83
0.35,0.43,0.83
0.35,0.43,0.83
0.35,0.43,0.84
0.35,0.43,0.84
0.35,0.43,0.83
0.35,0.43,0.83
0.35,0.43,0.83
0.35,0.43,0.83
0.35,0.43,0.83
0.35,0.43,0.83
0.34,0.43,0.84
0.34,0.43,0.84
0.33,0.43,0.84
0.32,0.42,0.85
0.32,0.42,0.86
0.33,0.41,0.86
0.33,0.41,0.86
0.34,0.41,0.86
0.37,0.41,0.85
0.39,0.42,0.84
0.42,0.42,0.82
0.41,0.42,0.8
0.4,0.44,0.8
0.4,0.44,0.78
0.42,0.45,0.77
0.42,0.45,0.78
0.42,0.45,0.79
0.41,0.44,0.8
0.4,0.44,0.81
0.39,0.44,0.82
0.38,0.43,0.83
0.38,0.43,0.83
0.37,0.43,0.82
0.37,0.43,0.82
0.38,0.43,0.82
0.39,0.44,0.82
0.38,0.44,0.82
0.38,0.43,0.83
0.38,0.42,0.82
0.36,0.42,0.83
0.35,0.44,0.83
0.36,0.44,0.82
0.38,0.44,0.82
0.39,0.44,0.81
0.4,0.44,0.81
0.4,0.44,0.8
0.4,0.44,0.79
0.4,0.45,0.8
0.41,0.45,0.8
0.41,0.45,0.78
0.41,0.46,0.8
0.41,0.46,0.81
0.41,0.46,0.81
0.42,0.46,0.8
0.42,0.46,0.8
0.43,0.46,0.8
0.42,0.45,0.81
0.41,0.45,0.8
0.4,0.46,0.8
0.4,0.46,0.79
0.4,0.45,0.8
0.4,0.45,0.8
0.4,0.44,0.8
0.41,0.44,0.8
0.41,0.43,0.8
0.4,0.43,0.8
0.39,0.43,0.79
0.38,0.44,0.8
0.37,0.45,0.79
0.37,0.46,0.79
0.37,0.47,0.79
0.36,0.47,0.79
0.36,0.47,0.8
0.36,0.47,0.82
0.35,0.47,0.83
0.33,0.47,0.83
0.31,0.49,0.81
0.33,0.49,0.8
0.34,0.49,0.8
0.35,0.49,0.81
0.34,0.49,0.81
0.34,0.49,0.81
0.34,0.5,0.81
0.34,0.5,0.81
0.35,0.49,0.81
0.36,0.49,0.81
0.37,0.49,0.81
0.36,0.49,0.79
0.36,0.49,0.78
0.36,0.5,0.76
0.37,0.49,0.75
0.39,0.49,0.75
0.4,0.49,0.76
0.4,0.49,0.76
0.39,0.49,0.77
0.39,0.49,0.76
0.4,0.49,0.76
0.42,0.48,0.76
0.44,0.46,0.77
0.45,0.45,0.79
0.45,0.44,0.81
0.44,0.45,0.81
0.43,0.44,0.78
0.4,0.43,0.76
0.4,0.42,0.75
0.42,0.42,0.75
0.44,0.44,0.75
0.46,0.44,0.77
0.48,0.45,0.79
0.5,0.46,0.82
0.51,0.47,0.85
0.51,0.48,0.87
0.5,0.49,0.87
0.49,0.49,0.85
0.48,0.5,0.83
0.5,0.5,0.82
0.55,0.5,0.82
0.59,0.51,0.83
0.6,0.51,0.83
0.6,0.52,0.83
0.6,0.53,0.83
0.59,0.53,0.81
0.59,0.53,0.8
0.59,0.53,0.79
0.63,0.51,0.79
0.68,0.49,0.78
0.73,0.48,0.77
0.77,0.47,0.76
0.79,0.46,0.73
0.77,0.45,0.7
0.76,0.45,0.69
0.75,0.44,0.69
0.72,0.43,0.71
0.69,0.42,0.7
0.68,0.41,0.68
0.69,0.39,0.66
0.71,0.37,0.64
0.71,0.35,0.63
0.7,0.32,0.64
0.67,0.3,0.65
0.66,0.29,0.65
0.68,0.27,0.64
0.69,0.27,0.61
0.7,0.26,0.59
0.69,0.26,0.57
0.67,0.25,0.55
0.66,0.23,0.53
0.68,0.21,0.54
0.71,0.2,0.56
0.74,0.2,0.57
0.76,0.2,0.57
0.76,0.21,0.56
0.75,0.21,0.54
0.74,0.21,0.52
0.74,0.2,0.5
0.74,0.18,0.5
0.74,0.17,0.51
0.76,0.16,0.5
0.78,0.15,0.49
0.78,0.14,0.48
0.79,0.13,0.47
0.79,0.12,0.47
0.79,0.11,0.46
0.79,0.11,0.46
0.79,0.09,0.45
0.8,0.08,0.44
0.8,0.07,0.45
0.8,0.04,0.46
0.81,0.02,0.46
0.82,0.01,0.46
0.82,-0.01,0.46
0.82,-0.03,0.45
0.82,-0.05,0.44
0.81,-0.06,0.44
0.84,-0.08,0.46
0.87,-0.09,0.48
0.87,-0.09,0.49
0.88,-0.09,0.48
0.88,-0.09,0.47
0.88,-0.08,0.47
0.87,-0.08,0.45
0.86,-0.08,0.44
0.84,-0.08,0.43
0.84,-0.08,0.43
0.86,-0.08,0.44
0.87,-0.07,0.43
0.84,-0.05,0.42
0.83,-0.03,0.4
0.83,-0.01,0.38
0.81,0.01,0.37
0.82,0.01,0.36
0.88,-0.02,0.38
0.94,-0.05,0.39
0.98,-0.07,0.4
1,-0.08,0.41
1,-0.09,0.41
0.98,-0.11,0.41
0.97,-0.11,0.41
0.96,-0.14,0.43
0.97,-0.16,0.44
0.97,-0.14,0.43
0.95,-0.13,0.41
0.95,-0.14,0.39
0.97,-0.15,0.38
0.97,-0.15,0.36
0.96,-0.17,0.35
0.94,-0.18,0.35
0.99,-0.23,0.36
1.01,-0.26,0.37
1.01,-0.29,0.38
1.01,-0.31,0.39
1.02,-0.33,0.39
1.03,-0.37,0.39
1.03,-0.4,0.38
1.04,-0.42,0.38
1.08,-0.44,0.38
1.12,-0.45,0.39
1.14,-0.46,0.4
1.14,-0.47,0.4
1.14,-0.48,0.38
1.12,-0.49,0.35
1.09,-0.5,0.33
1.08,-0.51,0.31
1.08,-0.51,0.31
1.07,-0.51,0.31
1.05,-0.49,0.31
1.02,-0.48,0.31
1,-0.48,0.3
1,-0.49,0.3
0.99,-0.51,0.29
0.99,-0.52,0.28
1,-0.53,0.26
1,-0.53,0.24
0.97,-0.51,0.23
0.94,-0.49,0.22
0.92,-0.46,0.21
0.9,-0.43,0.19
0.88,-0.4,0.19
0.89,-0.4,0.18
0.89,-0.4,0.18
0.9,-0.4,0.18
0.91,-0.39,0.17
0.91,-0.38,0.16
0.88,-0.36,0.17
0.85,-0.33,0.17
0.86,-0.31,0.19
0.92,-0.26,0.24
0.93,-0.26,0.21
0.92,-0.31,0.11
0.95,-0.3,0.07
0.97,-0.29,0.02
0.97,-0.29,0
0.99,-0.27,0.02
1,-0.25,0.02
1,-0.24,0.02
1,-0.23,0.03
1,-0.23,0.06
1.03,-0.22,0.05
1.07,-0.22,0.02
1.05,-0.21,-0.02
1.06,-0.2,-0.04
1.06,-0.17,-0.06
1.07,-0.15,-0.05
1.05,-0.14,-0.03
1.01,-0.14,-0.03
1,-0.13,-0.02
0.99,-0.12,-0.02
0.96,-0.11,-0.01
0.92,-0.1,-0.02
0.92,-0.09,-0.04
0.92,-0.07,-0.05
0.92,-0.06,-0.04
0.94,-0.06,-0.03
0.97,-0.06,-0.01
0.97,-0.07,0.01
0.98,-0.07,0.01
0.99,-0.06,0
0.98,-0.06,0
0.97,-0.05,0
0.95,-0.03,0.01
0.93,-0.02,0.01
0.92,0,0.02
0.91,0.01,0.03
0.9,0.03,0.05
0.9,0.05,0.07
0.9,0.08,0.1
0.91,0.08,0.12
0.93,0.09,0.09
1,0.13,0.08
1.02,0.16,0.08
1.02,0.15,0.07
1.04,0.12,0.05
1.06,0.13,0.07
1.11,0.11,0.07
1.13,0.09,0.05
1.14,0.09,0.06
1.13,0.11,0.08
1.1,0.13,0.12
1.08,0.12,0.15
1,0.17,0.19
0.89,0.21,0.21
0.84,0.21,0.19
0.8,0.23,0.18
0.78,0.25,0.18
0.79,0.25,0.15
0.8,0.27,0.15
0.81,0.28,0.16
0.83,0.28,0.18
0.85,0.28,0.19
0.86,0.29,0.21
0.86,0.3,0.21
0.86,0.29,0.19
0.89,0.3,0.19
0.9,0.3,0.2
0.92,0.28,0.2
0.92,0.3,0.22
0.93,0.32,0.24
0.93,0.32,0.24
0.95,0.3,0.25
0.97,0.31,0.24
0.98,0.32,0.25
0.93,0.25,0.24
0.94,0.29,0.24
0.97,0.36,0.27
0.92,0.31,0.26
0.93,0.27,0.22
0.93,0.27,0.25
0.92,0.26,0.26
0.92,0.24,0.24
0.95,0.23,0.26
1.01,0.26,0.27
1.03,0.28,0.24
1,0.24,0.24
0.99,0.19,0.22
1.01,0.16,0.22
1.06,0.17,0.24
1.09,0.14,0.24
1.09,0.15,0.26
1.05,0.13,0.23
1.06,0.12,0.23
1.05,0.11,0.22
1.03,0.11,0.22
1.06,0.14,0.24
1.06,0.17,0.23
1.04,0.19,0.23
1.05,0.16,0.23
1.1,0.14,0.16
1.09,0.17,0.13
1.04,0.11,0.14
1.07,0.04,0.16
1.11,0.02,0.16
1.1,-0.01,0.2
1.07,0.02,0.23
1.02,0.04,0.21
0.97,0.04,0.22
0.95,0.06,0.25
0.94,0.07,0.27
0.98,0.06,0.28
1.03,0.05,0.3
1.04,0.09,0.3
1.08,0.1,0.31
1.11,0.06,0.32
1.02,0.11,0.35
0.96,0.11,0.43
0.86,0.11,0.45
0.82,0.09,0.32
0.89,0.06,0.34
0.73,0.1,0.34
0.63,0.17,0.27
0.59,0.22,0.29
0.61,0.17,0.32
0.75,0.1,0.32
0.83,0.09,0.35
0.82,0.09,0.33
0.73,0.13,0.32
0.65,0.04,0.33
0.73,0.15,0.29
0.8,0.4,0.29
0.59,0.47,0.37
0.57,0.34,0.36
0.94,0.24,0.36
1.02,0.24,0.38
0.92,0.18,0.32
0.95,0.2,0.36
0.93,0.21,0.38
0.88,0.2,0.37
0.85,0.2,0.37
0.85,0.21,0.37
0.86,0.2,0.45
0.85,0.21,0.45
0.93,0.19,0.44
0.96,0.19,0.43
0.96,0.22,0.44
0.99,0.21,0.44
0.96,0.23,0.42
0.91,0.25,0.4
0.96,0.22,0.39
1,0.22,0.42
0.96,0.24,0.41
0.92,0.26,0.38
0.92,0.27,0.39
0.93,0.26,0.42
0.94,0.27,0.42
0.99,0.3,0.4
1.09,0.33,0.37
1.21,0.33,0.33
1.33,0.33,0.3
1.39,0.34,0.28
1.43,0.34,0.24
1.46,0.33,0.22
1.44,0.35,0.21
1.41,0.36,0.2
1.31,0.36,0.19
1.17,0.36,0.19
1.01,0.35,0.17
0.86,0.33,0.14
0.71,0.35,0.1
0.69,0.35,0.09
0.7,0.39,0.08
0.74,0.43,0.08
0.78,0.44,0.1
0.8,0.45,0.12
0.85,0.47,0.12
0.9,0.49,0.13
0.94,0.51,0.13
0.98,0.49,0.16
0.99,0.44,0.18
0.95,0.41,0.16
0.91,0.39,0.16
0.88,0.35,0.16
0.84,0.34,0.15
0.82,0.33,0.15
0.82,0.31,0.15
0.81,0.3,0.16
0.77,0.31,0.18
0.75,0.32,0.19
0.73,0.36,0.19
0.76,0.37,0.17
0.8,0.34,0.16
0.84,0.32,0.17
0.9,0.29,0.18
0.93,0.28,0.24
0.92,0.26,0.26
0.91,0.28,0.27
0.92,0.28,0.27
0.9,0.28,0.26
0.94,0.21,0.25
0.85,0.26,0.28
0.78,0.34,0.33
0.81,0.28,0.33
0.85,0.27,0.24
0.86,0.28,0.2
0.83,0.25,0.3
1.02,0.16,0.38
1.08,0.18,0.36
0.93,0.29,0.31
0.95,0.29,0.3
1.02,0.2,0.3
1.05,0.19,0.33
1.06,0.41,0.32
1.07,0.35,0.33
1.07,0.35,0.33
1.05,0.33,0.34
1.03,0.37,0.36
1.2,0.61,0.38
1.2,-0.08,-0.03
1.12,0.15,0.06
1.31,0.48,0.31
1.28,0.34,0.21
1.31,0.22,0.1
1.31,0.18,0.03
1.31,0.14,0.01
1.25,0.12,-0.02
1.1,0.12,0.02
1.02,0.12,0.02
0.97,0.14,0
0.87,0.16,0.02
0.83,0.14,0.03
0.81,0.13,0.04
0.82,0.15,0.07
0.89,0.14,0.07
0.96,0.13,0.08
0.99,0.14,0.12
1.03,0.14,0.17
1.04,0.12,0.21
1,0.14,0.23
1.03,0.15,0.36
1.01,0.14,0.36
0.9,0.15,0.22
0.86,0.17,0.22
0.82,0.18,0.24
0.8,0.18,0.26
0.76,0.21,0.26
0.77,0.21,0.27
0.79,0.22,0.29
1.15,0.05,0.22
1.09,0.1,0.25
0.76,0.27,0.34
0.82,0.25,0.3
0.83,0.26,0.24
0.84,0.01,0.32
0.72,-0.22,0.38
0.32,0.28,0.32
0.52,0.47,0.28
0.91,0.17,0.24
0.82,0.14,0.26
0.88,0.17,0.3
0.87,0.19,0.34
0.82,0.2,0.33
0.85,0.23,0.32
0.84,0.25,0.32
0.82,0.28,0.29
0.83,0.31,0.27
0.83,0.3,0.26
0.85,0.29,0.25
0.92,0.31,0.28
0.97,0.3,0.29
0.97,0.33,0.29
0.95,0.34,0.27
1.01,0.44,0.29
1.06,0.41,0.22
1.2,0.49,0.24
1.41,0.6,0.28
1.46,0.42,0.15
1.51,0.36,0.05
1.69,0.27,0
1.17,0.36,-0.2
0.89,0.39,-0.25
1.14,0.3,-0.07
0.97,0.38,-0.07
0.87,0.44,-0.17
0.7,0.39,-0.08
0.74,0.31,0
0.73,0.33,0
0.7,0.31,0.03
0.8,0.34,0.03
0.86,0.38,0.05
0.97,0.42,0.07
1.17,0.42,0.1
1.32,0.35,0.12
1.4,0.22,0.12
1.33,0.26,0.14
1.14,0.35,0.15
1.07,0.29,0.08
0.73,0.45,0.11
0.67,0.45,0.13
0.86,0.16,0.07
0.82,0.15,0.07
0.83,0.23,0.04
0.88,0.15,0.12
1.11,-0.02,0.25
1.24,0.02,0.18
1,0.19,0.12
0.84,0.22,0.1
0.85,0.24,0.08
0.93,0.18,0.12
0.97,0.15,0.15
0.96,0.14,0.17
0.91,0.15,0.17
0.82,0.19,0.16
0.76,0.26,0.13
0.84,0.27,0.14
0.89,0.24,0.16
0.87,0.24,0.17
0.87,0.29,0.19
0.87,0.36,0.23
0.92,0.28,0.22
0.95,0.23,0.21
1,0.38,0.25
0.93,0.43,0.24
0.81,0.42,0.21
0.86,0.26,0.19
1.03,0.13,0.18
1.02,0.23,0.22
0.93,0.3,0.24
0.93,0.27,0.23
0.89,0.29,0.24
0.86,0.29,0.25
0.87,0.3,0.28
0.9,0.32,0.32
0.93,0.3,0.35
0.98,0.31,0.36
1.08,0.32,0.34
1.16,0.33,0.31
1.21,0.33,0.29
1.33,0.24,0.27
1.35,0.25,0.25
1.37,0.28,0.24
1.31,0.16,0.24
1.4,0.03,0.28
0.95,0.18,0.21
0.44,0.38,0.08
0.75,0.27,0.04
0.89,0.1,0.02
0.82,0.05,0.05
0.75,0.11,0.13
0.84,-0.04,0.16
0.87,-0.07,0.17
0.87,-0.03,0.14
0.87,0.01,0.12
0.96,-0.07,0.1
1.04,-0.1,0.05
1.06,-0.08,0.03
1.03,-0.1,0.05
1.01,-0.15,0.06
0.97,-0.15,0.09
0.93,-0.14,0.14
0.88,-0.14,0.15
0.86,-0.12,0.16
0.85,-0.1,0.16
0.85,-0.09,0.16
0.85,-0.08,0.15
0.86,-0.07,0.14
0.85,-0.06,0.14
0.85,-0.05,0.14
0.83,-0.06,0.12
0.83,-0.06,0.12
0.86,-0.05,0.12
0.88,-0.06,0.12
0.91,-0.05,0.13
0.93,-0.05,0.13
0.96,-0.05,0.14
0.98,-0.04,0.14
0.99,-0.05,0.13
1,-0.04,0.12
0.99,-0.03,0.12
0.98,-0.04,0.12
0.97,-0.03,0.14
0.96,-0.01,0.15
0.97,-0.01,0.15
0.97,0,0.13
0.98,0.01,0.12
0.98,0.02,0.13
1,0.03,0.13
1,0.04,0.13
0.99,0.04,0.12
0.99,0.05,0.11
1,0.05,0.11
1.02,0.05,0.11
1.05,0.05,0.1
1.07,0.05,0.1
1.1,0.04,0.09
1.12,0.04,0.09
1.13,0.04,0.09
1.14,0.04,0.08
1.15,0.03,0.07
1.14,0.04,0.06
1.13,0.04,0.06
1.11,0.06,0.05
1.13,0.09,0.03
1.18,0.12,0.01
1.26,0.12,-0.01
1.38,0.1,-0.04
1.49,0.08,-0.08
1.54,0.05,-0.1
1.54,0.01,-0.09
1.51,-0.03,-0.07
1.48,-0.06,-0.05
1.44,-0.1,-0.04
1.41,-0.12,-0.04
1.35,-0.13,-0.07
1.26,-0.12,-0.08
1.18,-0.1,-0.09
1.12,-0.08,-0.08
1.07,-0.07,-0.07
1.05,-0.07,-0.06
1.05,-0.06,-0.05
1.05,-0.07,-0.04
1.06,-0.09,-0.04
1.06,-0.1,-0.03
1.05,-0.12,-0.02
1.02,-0.13,-0.01
1,-0.13,0
0.98,-0.14,0
0.95,-0.16,0.03
0.91,-0.16,0.05
0.89,-0.17,0.07
0.86,-0.18,0.07
0.84,-0.2,0.08
0.82,-0.21,0.08
0.79,-0.21,0.09
0.76,-0.21,0.1
0.73,-0.21,0.1
0.7,-0.22,0.11
0.67,-0.22,0.11
0.65,-0.21,0.12
0.63,-0.21,0.12
0.62,-0.21,0.13
0.62,-0.22,0.13
0.62,-0.23,0.14
0.63,-0.25,0.14
0.63,-0.26,0.14
0.63,-0.28,0.14
0.62,-0.29,0.14
0.61,-0.31,0.15
0.6,-0.32,0.15
0.58,-0.34,0.16
0.57,-0.36,0.17
0.57,-0.38,0.18
0.58,-0.4,0.19
0.59,-0.46,0.19
0.61,-0.5,0.19
0.61,-0.53,0.2
0.62,-0.56,0.21
0.63,-0.59,0.22
0.64,-0.62,0.22
0.64,-0.64,0.23
0.64,-0.68,0.24
0.64,-0.73,0.25
0.63,-0.77,0.25
0.62,-0.83,0.26
0.58,-0.87,0.26
0.57,-0.9,0.24
0.56,-0.95,0.21
0.54,-1.04,0.19
0.57,-1.15,0.17
0.63,-1.21,0.18
0.67,-1.34,0.17
0.65,-1.52,0.17
0.6,-1.57,0.23
0.56,-1.64,0.21
0.53,-1.62,0.25
0.55,-1.5,0.32
0.55,-1.43,0.26
0.49,-1.36,0.21
0.48,-1.28,0.18
0.51,-1.22,0.16
0.56,-1.23,0.18
0.56,-1.3,0.19
0.55,-1.34,0.19
0.53,-1.36,0.15
0.49,-1.39,0.09
0.44,-1.4,0.04
0.38,-1.39,0.02
0.35,-1.36,0.02
0.36,-1.34,0.01
0.36,-1.31,0.03
0.35,-1.22,0.09
0.34,-1.16,0.1
0.37,-1.1,0.1
0.39,-1.04,0.09
0.4,-0.99,0.09
0.43,-0.95,0.1
0.45,-0.94,0.1
0.45,-0.94,0.09
0.45,-0.93,0.09
0.46,-0.89,0.08
0.46,-0.86,0.09
0.45,-0.84,0.11
0.44,-0.81,0.12
0.44,-0.79,0.12
0.43,-0.78,0.12
0.43,-0.76,0.16
0.45,-0.76,0.18
0.46,-0.76,0.2
0.46,-0.77,0.22
0.47,-0.77,0.23
0.47,-0.76,0.23
0.47,-0.76,0.24
0.47,-0.76,0.3
0.47,-0.76,0.3
0.48,-0.77,0.32
0.48,-0.77,0.33
0.48,-0.78,0.34
0.45,-0.85,0.32
0.45,-0.85,0.32
0.45,-0.87,0.31
0.46,-0.91,0.31
0.44,-0.94,0.3
0.43,-0.96,0.3
0.44,-0.99,0.29
0.45,-1.05,0.26
0.49,-1.12,0.22
0.52,-1.19,0.18
0.54,-1.25,0.15
0.59,-1.34,0.16
0.61,-1.37,0.15
0.62,-1.37,0.13
0.61,-1.35,0.09
0.6,-1.32,0.05
0.58,-1.3,0.02
0.56,-1.31,-0.02
0.55,-1.33,-0.04
0.54,-1.36,-0.05
0.52,-1.39,-0.05
0.48,-1.42,-0.06
0.44,-1.44,-0.06
0.41,-1.44,-0.06
0.38,-1.42,-0.06
0.35,-1.38,-0.06
0.32,-1.33,-0.07
0.31,-1.28,-0.06
0.3,-1.23,-0.06
0.3,-1.18,-0.06
0.31,-1.15,-0.06
0.31,-1.12,-0.05
0.3,-1.09,-0.04
0.3,-1.07,-0.04
0.31,-1.06,-0.04
0.32,-1.04,-0.05
0.33,-1.03,-0.05
0.3,-1.01,-0.05
0.31,-0.99,-0.04
0.28,-0.98,-0.04
0.26,-0.97,-0.03
0.26,-0.96,-0.03
0.25,-0.94,-0.02
0.24,-0.92,-0.02
0.24,-0.9,-0.02
0.23,-0.87,-0.02
0.23,-0.84,-0.01
0.24,-0.81,-0.01
0.25,-0.8,0
0.26,-0.78,0
0.27,-0.76,0
0.28,-0.76,0.01
0.28,-0.76,0.01
0.29,-0.76,0.01
0.29,-0.76,0.02
0.29,-0.77,0.03
0.28,-0.79,0.04
0.28,-0.82,0.05
0.27,-0.84,0.05
0.25,-0.87,0.06
0.24,-0.9,0.07
0.23,-0.92,0.08
0.22,-0.94,0.1
0.25,-0.99,0.11
0.28,-1.06,0.11
0.31,-1.16,0.1
0.3,-1.22,0.11
0.26,-1.22,0.14
0.27,-1.23,0.14
0.27,-1.22,0.15
0.26,-1.19,0.18
0.26,-1.14,0.19
0.26,-1.08,0.2
0.27,-1.02,0.23
0.27,-0.96,0.24
0.29,-0.93,0.22
0.31,-0.9,0.22
0.33,-0.9,0.23
0.34,-0.93,0.23
0.36,-0.97,0.23
0.39,-1.01,0.23
0.36,-1.05,0.24
0.32,-1.1,0.25
0.29,-1.16,0.24
0.27,-1.2,0.24
0.24,-1.24,0.23
0.23,-1.26,0.22
0.22,-1.27,0.21
0.22,-1.27,0.21
0.23,-1.19,0.23
0.28,-1.16,0.24
0.3,-1.14,0.25
0.32,-1.11,0.25
0.33,-1.09,0.25
0.34,-1.07,0.25
0.36,-1.05,0.25
0.38,-1.03,0.25
0.39,-1.01,0.26
0.4,-1,0.28
0.4,-0.99,0.3
0.39,-0.98,0.32
0.38,-0.97,0.33
0.39,-0.96,0.33
0.4,-0.94,0.34
0.39,-0.92,0.36
0.38,-0.89,0.37
0.37,-0.85,0.36
0.34,-0.84,0.34
0.35,-0.83,0.35
0.37,-0.82,0.36
0.35,-0.83,0.38
0.34,-0.83,0.38
0.36,-0.82,0.37
0.36,-0.83,0.37
0.36,-0.83,0.37
0.36,-0.84,0.38
0.37,-0.85,0.37
0.38,-0.86,0.36
0.39,-0.87,0.36
0.39,-0.89,0.35
0.38,-0.91,0.33
0.36,-0.93,0.31
0.36,-0.95,0.29
0.35,-0.97,0.27
0.36,-1.02,0.24
0.38,-1.1,0.22
0.41,-1.2,0.21
0.43,-1.3,0.2
0.45,-1.38,0.2
0.46,-1.44,0.21
0.47,-1.49,0.22
0.47,-1.51,0.23
0.47,-1.49,0.22
0.45,-1.45,0.2
0.43,-1.38,0.17
0.39,-1.3,0.12
0.34,-1.2,0.08
0.3,-1.11,0.04
0.29,-1.03,0.01
0.3,-0.98,-0.01
0.33,-0.99,-0.01
0.36,-1.11,0.05
0.39,-1.18,0.09
0.37,-1.24,0.11
0.34,-1.28,0.11
0.32,-1.31,0.09
0.3,-1.33,0.07
0.28,-1.35,0.06
0.27,-1.34,0.05
0.27,-1.33,0.03
0.26,-1.31,0.02
0.25,-1.29,0.01
0.25,-1.28,0.01
0.23,-1.27,0.01
0.21,-1.25,0.02
0.22,-1.24,0.02
0.23,-1.22,0.02
0.24,-1.19,0
0.24,-1.16,0
0.24,-1.13,0
0.24,-1.1,-0.01
0.24,-1.07,-0.01
0.24,-1.04,-0.01
0.24,-1.01,-0.01
0.24,-0.98,-0.01
0.24,-0.95,-0.02
0.23,-0.91,-0.01
0.23,-0.88,-0.01
0.23,-0.82,0
0.23,-0.79,0
0.23,-0.78,0
0.22,-0.77,0
0.23,-0.76,0.01
0.23,-0.74,0.01
0.23,-0.73,0.01
0.24,-0.71,0.01
0.24,-0.7,0.02
0.25,-0.68,0.03
0.25,-0.66,0.04
0.26,-0.65,0.06
0.27,-0.65,0.08
0.29,-0.66,0.09
0.29,-0.67,0.11
0.3,-0.69,0.12
0.3,-0.72,0.13
0.31,-0.76,0.15
0.34,-0.79,0.17
0.37,-0.84,0.19
0.39,-0.93,0.2
0.41,-1.03,0.2
0.42,-1.11,0.21
0.41,-1.14,0.24
0.39,-1.19,0.25
0.39,-1.22,0.29
0.38,-1.23,0.32
0.38,-1.22,0.33
0.4,-1.19,0.35
0.4,-1.14,0.38
0.39,-1.08,0.4
0.39,-1.01,0.41
0.4,-0.95,0.42
0.4,-0.88,0.41
0.39,-0.82,0.41
0.39,-0.79,0.39
0.39,-0.77,0.36
0.39,-0.77,0.34
0.38,-0.8,0.33
0.35,-0.85,0.33
0.32,-0.92,0.32
0.3,-0.99,0.31
0.29,-1.06,0.31
0.28,-1.11,0.31
0.27,-1.15,0.33
0.26,-1.18,0.35
0.25,-1.21,0.38
0.27,-1.23,0.39
0.3,-1.22,0.39
0.33,-1.18,0.38
0.34,-1.14,0.37
0.36,-1.08,0.34
0.38,-0.97,0.32
0.38,-0.93,0.31
0.39,-0.91,0.3
0.39,-0.9,0.29
0.4,-0.89,0.29
0.41,-0.88,0.28
0.42,-0.87,0.28
0.42,-0.85,0.29
0.41,-0.83,0.29
0.39,-0.82,0.28
0.39,-0.8,0.28
0.39,-0.79,0.28
0.39,-0.78,0.28
0.38,-0.78,0.28
0.39,-0.79,0.28
0.4,-0.8,0.28
0.39,-0.8,0.29
0.38,-0.8,0.29
0.38,-0.81,0.29
0.38,-0.81,0.29
0.37,-0.81,0.28
0.36,-0.81,0.28
0.36,-0.82,0.28
0.36,-0.83,0.27
0.36,-0.85,0.27
0.37,-0.86,0.26
0.38,-0.9,0.26
0.39,-0.93,0.26
0.4,-1.02,0.26
0.41,-1.11,0.26
0.43,-1.2,0.27
0.44,-1.28,0.27
0.44,-1.32,0.28
0.42,-1.31,0.29
0.39,-1.23,0.29
0.36,-1.12,0.28
0.35,-1,0.26
0.35,-0.9,0.23
0.34,-0.83,0.21
0.33,-0.77,0.2
0.32,-0.75,0.18
0.32,-0.76,0.17
0.32,-0.79,0.15
0.34,-0.83,0.13
0.34,-0.87,0.13
0.33,-0.91,0.12
0.32,-0.95,0.12
0.32,-1,0.12
0.32,-1.04,0.12
0.33,-1.07,0.13
0.33,-1.09,0.13
0.35,-1.07,0.16
0.36,-1.06,0.17
0.37,-1.04,0.18
0.38,-1.04,0.18
0.39,-1.05,0.18
0.4,-1.05,0.18
0.39,-1.06,0.17
0.38,-1.06,0.15
0.37,-1.07,0.14
0.35,-1.07,0.13
0.33,-1.06,0.13
0.31,-1.05,0.13
0.28,-1.04,0.13
0.27,-1.02,0.13
0.26,-1,0.13
0.26,-0.98,0.14
0.27,-0.96,0.14
0.27,-0.94,0.14
0.29,-0.93,0.14
0.3,-0.92,0.13
0.29,-0.91,0.12
0.29,-0.91,0.11
0.3,-0.91,0.1
0.31,-0.9,0.09
0.32,-0.9,0.08
0.33,-0.89,0.1
0.33,-0.9,0.11
0.33,-0.9,0.11
0.34,-0.92,0.11
0.34,-0.92,0.11
0.34,-0.92,0.11
0.34,-0.93,0.12
0.33,-0.92,0.14
0.34,-0.92,0.15
0.36,-0.91,0.17
0.36,-0.91,0.19
0.37,-0.91,0.21
0.39,-0.9,0.21
0.4,-0.9,0.22
0.4,-0.9,0.22
0.4,-0.89,0.22
0.41,-0.89,0.23
0.41,-0.89,0.23
0.41,-0.89,0.25
0.42,-0.89,0.26
0.41,-0.89,0.27
0.41,-0.9,0.29
0.41,-0.89,0.31
0.41,-0.89,0.33
0.4,-0.89,0.34
0.4,-0.89,0.34
0.39,-0.89,0.34
0.4,-0.89,0.34
0.41,-0.89,0.35
0.42,-0.89,0.36
0.42,-0.89,0.39
0.43,-0.88,0.4
0.44,-0.86,0.42
0.43,-0.85,0.42
0.43,-0.84,0.42
0.44,-0.83,0.41
0.45,-0.82,0.41
0.45,-0.82,0.42
0.45,-0.82,0.42
0.44,-0.81,0.42
0.44,-0.8,0.42
0.44,-0.77,0.41
0.44,-0.75,0.4
0.43,-0.72,0.39
0.43,-0.69,0.37
0.41,-0.68,0.36
0.39,-0.66,0.33
0.39,-0.63,0.31
0.39,-0.6,0.3
0.39,-0.56,0.29
0.39,-0.54,0.29
0.4,-0.51,0.3
0.41,-0.49,0.32
0.43,-0.49,0.33
0.43,-0.46,0.35
0.44,-0.43,0.37
0.43,-0.38,0.39
0.45,-0.32,0.42
0.47,-0.29,0.46
0.49,-0.27,0.51
0.5,-0.26,0.54
0.54,-0.25,0.59
0.59,-0.22,0.65
0.63,-0.21,0.7
0.62,-0.23,0.72
0.62,-0.24,0.75
-1.08,-1.57,-1.29
-1.08,-1.57,-1.7
-0.41,-0.96,-1.81
-0.4,-0.82,-1.76
-0.41,-0.97,-1.78
-0.44,-1.17,-2
0.21,-1.52,-1.28
0.35,-1.69,-1.12
0.56,-1.85,-0.85
0.68,-2.01,-0.52
0.66,-2.14,-0.18
0.64,-2.2,0.13
0.59,-1.8,1.19
0.71,-1.64,1.1
0.79,-1.47,1.16
0.76,-1.33,1.16
0.92,-1.21,1.08
0.36,-0.77,0.42
0.41,-0.7,0.5
0.38,-0.63,0.54
0.41,-0.58,0.55
0.35,-0.54,0.5
0.61,-0.38,0.73
0.61,-0.38,0.73
0.7,-0.33,0.7
0.75,-0.24,0.7
0.7,-0.19,0.75
0.71,-0.08,1.01
0.58,-0.12,1.09
0.49,-0.16,1.09
0.51,-0.17,1.02
0.45,-0.06,1.08
0.57,-0.07,0.73
0.59,-0.01,0.78
0.61,0.03,0.83
0.6,0.01,0.86
0.61,0.01,0.84
0.63,0,0.82
0.68,-0.05,0.78
0.73,-0.13,0.68
0.74,-0.17,0.58
0.75,-0.19,0.53
0.75,-0.05,0.77
0.75,-0.04,0.69
0.82,-0.07,0.64
0.76,-0.12,0.68
0.68,-0.18,0.72
0.78,0.03,0.73
0.78,0.03,0.73
0.92,0.01,0.46
0.9,-0.14,0.45
0.84,-0.2,0.52
0.68,-0.15,0.73
0.71,-0.09,0.71
0.83,-0.08,0.62
0.86,-0.1,0.58
0.8,-0.08,0.63
0.75,-0.16,0.67
0.77,-0.14,0.65
0.78,-0.13,0.63
0.79,-0.13,0.63
0.79,-0.14,0.64
0.77,-0.15,0.66
0.76,-0.16,0.66
0.77,-0.16,0.61
0.77,-0.15,0.63
0.75,-0.14,0.66
0.74,-0.14,0.69
0.73,-0.14,0.71
0.71,-0.13,0.72
0.71,-0.11,0.71
0.7,-0.1,0.72
0.7,-0.08,0.72
0.77,-0.1,0.67
0.75,-0.11,0.67
0.74,-0.11,0.69
0.73,-0.11,0.7
0.73,-0.12,0.7
0.73,-0.11,0.69
0.74,-0.11,0.67
0.75,-0.11,0.66
0.75,-0.11,0.67
0.75,-0.11,0.69
0.73,-0.1,0.7
0.73,-0.1,0.7
0.74,-0.09,0.69
0.74,-0.09,0.68
0.75,-0.09,0.67
0.76,-0.09,0.67
0.75,-0.09,0.67
0.75,-0.1,0.68
0.76,-0.09,0.67
0.76,-0.09,0.67
0.76,-0.09,0.67
0.75,-0.1,0.68
0.74,-0.11,0.68
0.74,-0.1,0.69
0.74,-0.1,0.69
0.74,-0.1,0.69
0.75,-0.1,0.68
0.75,-0.1,0.67
0.75,-0.1,0.67
0.75,-0.11,0.68
0.75,-0.11,0.68
0.75,-0.11,0.68
0.74,-0.11,0.68
0.75,-0.1,0.68
0.75,-0.1,0.67
0.76,-0.1,0.67
0.76,-0.1,0.68
0.76,-0.09,0.67
0.75,-0.08,0.67
0.74,-0.09,0.68
0.75,-0.08,0.69
0.75,-0.09,0.69
0.76,-0.09,0.68
0.75,-0.09,0.68
0.75,-0.08,0.67
0.75,-0.08,0.67
0.76,-0.08,0.66
0.76,-0.08,0.67
0.76,-0.08,0.67
0.76,-0.08,0.67
0.76,-0.08,0.67
0.76,-0.08,0.67
0.76,-0.08,0.67
0.76,-0.08,0.67
0.76,-0.08,0.67
0.76,-0.07,0.68
0.75,-0.08,0.68
0.76,-0.08,0.67
0.77,-0.07,0.67
0.76,-0.08,0.67
0.76,-0.08,0.66
0.77,-0.08,0.66
0.77,-0.08,0.67
0.76,-0.08,0.67
0.75,-0.07,0.67
0.75,-0.08,0.68
0.75,-0.08,0.68
0.75,-0.08,0.68
0.75,-0.08,0.68
0.76,-0.08,0.68
0.76,-0.08,0.68
0.76,-0.08,0.67
0.77,-0.08,0.65
0.75,-0.1,0.66
0.74,-0.09,0.68
0.76,-0.08,0.67
0.76,-0.08,0.68
0.76,-0.08,0.68
0.76,-0.08,0.67
0.75,-0.08,0.67
0.76,-0.08,0.67
0.76,-0.08,0.67
0.76,-0.08,0.67
0.75,-0.08,0.68
0.75,-0.08,0.68
0.75,-0.08,0.68
0.75,-0.08,0.68
0.75,-0.08,0.67
0.75,-0.08,0.67
0.75,-0.08,0.68
0.75,-0.08,0.68
0.75,-0.08,0.68
0.75,-0.08,0.68
0.75,-0.08,0.68
0.75,-0.08,0.68
0.75,-0.08,0.68
0.75,-0.08,0.68
0.75,-0.08,0.68
0.75,-0.08,0.68
0.75,-0.08,0.68
0.76,-0.08,0.67
0.76,-0.08,0.67
0.76,-0.08,0.67
0.75,-0.08,0.67
0.75,-0.08,0.68
0.75,-0.08,0.68
0.75,-0.08,0.68
0.75,-0.08,0.68
0.75,-0.08,0.68
0.75,-0.08,0.68
0.75,-0.08,0.69
0.75,-0.08,0.69
0.74,-0.08,0.69
0.74,-0.08,0.69
0.74,-0.08,0.68
0.75,-0.08,0.68
0.75,-0.08,0.68
0.75,-0.08,0.68
0.75,-0.08,0.68
0.74,-0.08,0.68
0.75,-0.08,0.69
0.74,-0.08,0.68
0.74,-0.08,0.68
0.74,-0.08,0.69
0.74,-0.08,0.69
0.75,-0.08,0.69
0.75,-0.08,0.69
0.74,-0.08,0.68
0.74,-0.08,0.68
0.75,-0.08,0.68
0.75,-0.08,0.69
0.74,-0.08,0.69
0.74,-0.08,0.69
0.74,-0.08,0.69
0.74,-0.08,0.69
0.74,-0.08,0.68
0.74,-0.08,0.68
0.75,-0.08,0.68
0.74,-0.08,0.69
0.74,-0.08,0.69
0.74,-0.08,0.69
0.74,-0.08,0.69
0.74,-0.08,0.69
0.74,-0.08,0.69
0.74,-0.08,0.69
0.74,-0.08,0.69
0.74,-0.08,0.69
0.74,-0.08,0.68
0.74,-0.08,0.68
0.74,-0.08,0.69
0.74,-0.08,0.69
0.74,-0.08,0.69
0.74,-0.08,0.69
0.74,-0.08,0.69
0.74,-0.08,0.69
0.74,-0.08,0.69
0.74,-0.08,0.69
0.74,-0.08,0.69
0.74,-0.08,0.68
0.74,-0.08,0.68
0.74,-0.08,0.69
0.74,-0.08,0.69
0.73,-0.08,0.7
0.73,-0.08,0.7
0.74,-0.09,0.7
0.74,-0.09,0.69
0.74,-0.08,0.68
0.75,-0.08,0.68
0.75,-0.08,0.68
0.74,-0.08,0.69
0.74,-0.08,0.69
0.74,-0.08,0.7
0.73,-0.08,0.69
0.73,-0.08,0.69
0.74,-0.08,0.69
0.74,-0.08,0.69
0.74,-0.08,0.69
0.74,-0.08,0.69
0.74,-0.08,0.69
0.73,-0.08,0.69
0.74,-0.08,0.7
0.74,-0.08,0.69
0.74,-0.08,0.69
0.74,-0.08,0.68
0.74,-0.08,0.69
0.74,-0.08,0.69
0.74,-0.08,0.69
0.74,-0.08,0.69
0.74,-0.08,0.69
0.74,-0.08,0.7
0.74,-0.08,0.7
0.74,-0.09,0.69
0.74,-0.09,0.69
0.74,-0.09,0.69
0.74,-0.08,0.69
0.74,-0.08,0.69
0.74,-0.08,0.69
0.74,-0.08,0.69
0.73,-0.08,0.7
0.73,-0.08,0.7
0.73,-0.08,0.7
0.73,-0.09,0.7
0.73,-0.09,0.7
0.73,-0.08,0.7
0.73,-0.08,0.69
0.73,-0.08,0.7
0.73,-0.08,0.71
0.73,-0.08,0.71
0.73,-0.08,0.71
0.73,-0.08,0.7
0.74,-0.08,0.69
0.74,-0.08,0.69
0.74,-0.08,0.69
0.74,-0.08,0.69
0.73,-0.08,0.7
0.73,-0.07,0.7
0.73,-0.07,0.71
0.73,-0.08,0.72
0.73,-0.1,0.72
0.73,-0.1,0.7
0.72,-0.09,0.7
0.71,-0.09,0.7
0.73,-0.09,0.68
0.74,-0.09,0.68
0.74,-0.09,0.68
0.74,-0.08,0.68
0.74,-0.09,0.69
0.73,-0.09,0.7
0.73,-0.09,0.71
0.72,-0.09,0.71
0.72,-0.09,0.71
0.73,-0.08,0.71
0.73,-0.08,0.7
0.74,-0.08,0.7
0.74,-0.07,0.7
0.73,-0.07,0.7
0.71,-0.07,0.7
0.72,-0.07,0.69
0.75,-0.07,0.69
0.74,-0.07,0.68
0.72,-0.08,0.7
0.75,-0.08,0.71
0.75,-0.08,0.71
0.72,-0.07,0.72
0.72,-0.07,0.72
0.72,-0.08,0.71
0.75,-0.07,0.71
0.76,-0.07,0.71
0.74,-0.07,0.7
0.73,-0.07,0.71
0.75,-0.07,0.7
0.76,-0.07,0.69
0.73,-0.07,0.7
0.72,-0.07,0.71
0.72,-0.07,0.71
0.7,-0.08,0.71
0.71,-0.08,0.71
0.7,-0.08,0.71
0.69,-0.09,0.73
0.69,-0.09,0.73
0.69,-0.09,0.74
0.7,-0.09,0.74
0.7,-0.08,0.73
0.7,-0.08,0.73
0.71,-0.07,0.72
0.71,-0.07,0.72
0.72,-0.06,0.71
0.72,-0.07,0.71
0.71,-0.07,0.72
0.71,-0.07,0.72
0.7,-0.07,0.73
0.7,-0.07,0.74
0.7,-0.06,0.74
0.69,-0.07,0.74
0.69,-0.07,0.74
0.69,-0.07,0.74
0.7,-0.07,0.73
0.71,-0.08,0.73
0.7,-0.07,0.73
0.7,-0.07,0.73
0.7,-0.07,0.73
0.7,-0.07,0.73
0.69,-0.07,0.73
0.71,-0.06,0.73
0.71,-0.06,0.73
0.7,-0.07,0.74
0.7,-0.07,0.73
0.69,-0.07,0.73
0.69,-0.06,0.73
0.69,-0.07,0.74
0.69,-0.07,0.74
0.7,-0.07,0.74
0.7,-0.07,0.74
0.7,-0.07,0.73
0.7,-0.07,0.73
0.7,-0.07,0.73
0.69,-0.08,0.73
0.69,-0.08,0.73
0.7,-0.06,0.73
0.7,-0.07,0.73
0.7,-0.07,0.73
0.69,-0.07,0.74
0.7,-0.07,0.73
0.7,-0.07,0.73
0.7,-0.06,0.73
0.7,-0.06,0.73
0.7,-0.06,0.73
0.7,-0.06,0.73
0.7,-0.06,0.73
0.7,-0.06,0.73
0.7,-0.07,0.73
0.7,-0.07,0.74
0.7,-0.06,0.74
0.7,-0.06,0.74
0.7,-0.06,0.73
0.7,-0.06,0.73
0.7,-0.06,0.73
0.7,-0.06,0.73
0.7,-0.06,0.73
0.7,-0.06,0.73
0.7,-0.06,0.74
0.7,-0.06,0.74
0.7,-0.06,0.73
0.69,-0.06,0.74
0.69,-0.06,0.74
0.7,-0.06,0.74
0.7,-0.06,0.74
0.7,-0.04,0.74
0.7,-0.05,0.74
0.7,-0.07,0.72
0.7,-0.06,0.72
0.69,-0.06,0.73
0.7,-0.06,0.74
0.7,-0.06,0.73
0.69,-0.05,0.74
0.69,-0.06,0.73
0.7,-0.06,0.73
0.7,-0.06,0.73
0.7,-0.06,0.73
0.69,-0.06,0.73
0.69,-0.06,0.74
0.69,-0.06,0.74
0.69,-0.06,0.74
0.7,-0.06,0.74
0.7,-0.06,0.74
0.7,-0.06,0.73
0.7,-0.06,0.74
0.7,-0.06,0.74
0.7,-0.06,0.74
0.7,-0.06,0.74
0.69,-0.06,0.74
0.69,-0.06,0.74
0.7,-0.06,0.74
0.7,-0.06,0.73
0.7,-0.06,0.73
0.7,-0.06,0.73
0.7,-0.06,0.73
0.7,-0.06,0.73
0.7,-0.06,0.74
0.69,-0.06,0.74
0.69,-0.06,0.74
0.69,-0.06,0.74
0.7,-0.06,0.73
0.69,-0.06,0.74
0.69,-0.06,0.73
0.7,-0.06,0.73
0.7,-0.06,0.74
0.69,-0.06,0.74
0.7,-0.06,0.73
0.7,-0.06,0.73
0.69,-0.06,0.74
0.69,-0.06,0.74
0.69,-0.06,0.74
0.69,-0.06,0.74
0.69,-0.06,0.74
0.69,-0.06,0.74
0.69,-0.06,0.74
0.69,-0.06,0.74
0.69,-0.05,0.74
0.69,-0.06,0.74
0.69,-0.06,0.74
0.7,-0.06,0.74
0.69,-0.06,0.74
0.71,-0.06,0.74
0.69,-0.06,0.74
0.69,-0.06,0.74
0.69,-0.06,0.74
0.69,-0.06,0.74
0.69,-0.06,0.74
0.69,-0.06,0.74
0.69,-0.06,0.75
0.69,-0.06,0.74
0.69,-0.06,0.74
0.69,-0.06,0.74
0.69,-0.06,0.74
0.69,-0.06,0.74
0.69,-0.06,0.74
0.69,-0.06,0.74
0.69,-0.04,0.75
0.69,-0.04,0.75
0.69,-0.04,0.75
0.7,-0.06,0.74
0.69,-0.05,0.74
0.69,-0.05,0.74
0.69,-0.05,0.75
0.69,-0.05,0.75
0.69,-0.05,0.75
0.69,-0.05,0.75
0.69,-0.04,0.74
0.69,-0.04,0.74
0.68,-0.05,0.74
0.69,-0.04,0.73
0.69,-0.04,0.73
0.69,-0.05,0.73
0.69,-0.05,0.73
0.69,-0.04,0.73
0.69,-0.04,0.74
0.69,-0.04,0.75
0.69,-0.04,0.75
0.69,-0.04,0.75
0.69,-0.04,0.74
0.69,-0.03,0.74
0.69,-0.03,0.74
0.68,-0.03,0.74
0.68,-0.03,0.74
0.69,-0.03,0.74
0.69,-0.03,0.74
0.69,-0.03,0.74
0.69,-0.03,0.74
0.69,-0.03,0.74
0.68,-0.03,0.75
0.68,-0.03,0.75
0.68,-0.03,0.75
0.69,-0.03,0.74
0.69,-0.03,0.75
0.69,-0.03,0.75
0.68,-0.03,0.75
0.68,-0.03,0.75
0.68,-0.02,0.75
0.68,-0.02,0.75
0.68,-0.02,0.75
0.68,-0.02,0.75
0.69,-0.02,0.75
0.68,-0.02,0.75
0.68,-0.02,0.75
0.68,-0.02,0.74
0.68,-0.02,0.75
0.68,-0.02,0.75
0.68,-0.02,0.75
0.68,-0.02,0.75
0.68,-0.02,0.75
0.68,-0.02,0.75
0.68,-0.02,0.75
0.68,-0.02,0.75
0.68,-0.02,0.75
0.67,-0.02,0.75
0.68,-0.02,0.75
0.68,-0.02,0.75
0.68,-0.02,0.75
0.68,-0.02,0.75
0.68,-0.02,0.75
0.68,-0.02,0.75
0.68,-0.02,0.75
0.68,-0.02,0.75
0.67,-0.02,0.75
0.67,-0.02,0.75
0.68,-0.02,0.75
0.68,-0.02,0.76
0.68,-0.02,0.76
0.68,-0.02,0.76
0.68,-0.02,0.76
0.68,-0.02,0.75
0.67,-0.01,0.75
0.67,-0.02,0.76
0.68,-0.02,0.75
0.68,-0.02,0.75
0.68,-0.02,0.75
0.68,-0.01,0.75
0.68,-0.01,0.75
0.67,-0.02,0.75
0.67,-0.02,0.75
0.68,-0.02,0.75
0.68,-0.02,0.76
0.68,-0.02,0.75
0.68,-0.01,0.75
0.68,-0.01,0.76
0.67,-0.02,0.76
0.68,-0.02,0.75
0.68,-0.02,0.75
0.68,-0.01,0.75
0.68,-0.01,0.75
0.67,-0.02,0.75
0.67,-0.02,0.75
0.67,-0.02,0.75
0.68,-0.02,0.75
0.67,-0.02,0.75
0.67,-0.01,0.76
0.67,-0.02,0.76
0.68,-0.02,0.75
0.68,-0.02,0.76
0.67,-0.01,0.76
0.67,-0.01,0.76
0.67,-0.02,0.76
0.67,-0.02,0.76
0.67,-0.02,0.76
0.68,-0.02,0.75
0.68,-0.01,0.75
0.67,-0.01,0.75
0.67,-0.02,0.76
0.68,-0.02,0.75
0.67,-0.01,0.76
0.67,-0.02,0.76
0.67,-0.02,0.76
0.68,-0.01,0.76
0.67,-0.01,0.76
0.67,-0.02,0.76
0.67,-0.01,0.76
0.67,-0.01,0.76
0.67,-0.01,0.75
0.67,-0.01,0.75
0.67,-0.01,0.76
0.68,-0.02,0.76
0.68,-0.02,0.76
0.67,-0.02,0.76
0.67,-0.02,0.76
0.67,-0.02,0.76
0.67,-0.02,0.76
0.67,-0.02,0.76
0.67,-0.02,0.76
0.67,-0.01,0.76
0.67,-0.01,0.76
0.67,-0.01,0.76
0.67,-0.02,0.76
0.67,-0.02,0.76
0.67,-0.01,0.76
0.67,-0.01,0.76
0.67,-0.02,0.76
0.67,-0.02,0.76
0.67,-0.01,0.76
0.67,-0.01,0.76
0.67,-0.01,0.76
0.67,-0.01,0.76
0.67,-0.01,0.76
0.67,-0.01,0.76
0.67,-0.01,0.76
0.67,-0.02,0.76
0.67,-0.02,0.76
0.67,-0.02,0.76
0.67,-0.02,0.76
0.67,-0.02,0.76
0.67,-0.02,0.76
0.67,-0.01,0.76
0.67,-0.01,0.76
0.67,-0.02,0.76
0.67,-0.01,0.76
0.67,-0.01,0.76
0.67,-0.02,0.76
0.67,-0.02,0.76
0.67,-0.02,0.76
0.67,-0.02,0.76
0.67,-0.02,0.76
0.67,-0.01,0.76
0.67,-0.02,0.76
0.67,-0.01,0.76
0.67,-0.02,0.76
0.67,-0.01,0.76
0.67,-0.01,0.76
0.67,-0.02,0.75
0.67,-0.02,0.76
0.67,-0.02,0.76
0.67,-0.02,0.76
0.67,-0.02,0.76
0.67,-0.02,0.76
0.67,-0.01,0.76
0.67,-0.01,0.76
0.67,-0.01,0.76
0.67,-0.01,0.75
0.67,-0.01,0.75
0.67,-0.02,0.76
0.67,-0.02,0.76
0.67,-0.01,0.76
0.67,-0.02,0.76
0.67,-0.02,0.76
0.67,-0.02,0.76
0.67,-0.02,0.76
0.67,-0.01,0.76
0.67,-0.01,0.76
0.67,-0.01,0.76
0.67,-0.01,0.76
0.67,-0.01,0.76
0.67,-0.01,0.76
0.67,-0.01,0.76
0.67,-0.02,0.76
0.67,-0.01,0.76
0.67,-0.02,0.76
0.66,-0.02,0.76
0.67,-0.02,0.76
0.67,-0.02,0.76
0.67,-0.02,0.76
0.67,-0.02,0.76
0.67,-0.02,0.76
0.67,-0.02,0.76
0.67,-0.02,0.76
0.67,-0.02,0.76
0.67,-0.02,0.76
0.67,-0.02,0.76
0.67,-0.01,0.76
0.67,-0.02,0.76
0.67,-0.02,0.76
0.67,-0.02,0.76
0.67,-0.02,0.76
0.67,-0.02,0.76
0.67,-0.02,0.76
0.67,-0.02,0.76
0.67,-0.02,0.76
0.67,-0.01,0.76
0.67,-0.01,0.76
0.67,-0.01,0.76
0.67,-0.01,0.76
0.67,-0.01,0.76
0.67,-0.02,0.76
0.67,-0.02,0.76
0.67,-0.02,0.76
0.67,-0.02,0.76
0.67,-0.02,0.76
0.67,-0.01,0.76
0.67,-0.02,0.76
0.67,-0.02,0.76
0.67,-0.02,0.76
0.66,-0.01,0.76
0.66,-0.01,0.76
0.67,-0.01,0.76
0.67,-0.01,0.76
0.67,-0.02,0.76
0.67,-0.02,0.76
0.67,-0.02,0.76
0.66,-0.02,0.77
0.66,-0.02,0.77
0.67,-0.02,0.76
0.67,-0.02,0.76
0.67,-0.01,0.76
0.67,-0.01,0.75
0.67,-0.01,0.75
0.67,-0.01,0.76
0.67,-0.01,0.76
0.67,-0.01,0.76
0.66,-0.01,0.76
0.67,-0.01,0.76
0.67,-0.01,0.76
0.67,-0.02,0.76
0.67,-0.02,0.76
0.67,-0.02,0.76
0.67,-0.02,0.76
0.67,-0.02,0.76
0.67,-0.02,0.76
0.67,-0.01,0.76
0.67,-0.01,0.76
0.67,-0.01,0.76
0.67,-0.01,0.76
0.67,-0.01,0.76
0.67,-0.01,0.76
0.67,-0.01,0.76
0.67,-0.01,0.76
0.67,-0.02,0.76
0.67,-0.02,0.76
0.67,-0.02,0.76
0.67,-0.02,0.76
0.67,-0.02,0.76
0.66,-0.02,0.77
0.67,-0.01,0.76
0.66,-0.01,0.77
0.66,-0.01,0.77
0.66,-0.01,0.76
0.66,-0.01,0.76
0.66,-0.01,0.76
0.67,-0.01,0.76
0.67,-0.01,0.76
0.67,-0.01,0.76
0.67,-0.01,0.76
0.67,-0.01,0.77
0.66,-0.01,0.77
0.66,-0.01,0.76
0.67,-0.01,0.76
0.67,-0.01,0.76
0.68,-0.01,0.76
0.67,-0.01,0.76
0.66,-0.01,0.77
0.66,-0.01,0.77
0.66,-0.01,0.77
0.66,-0.02,0.77
0.66,-0.02,0.76
0.67,-0.02,0.76
0.67,-0.01,0.75
0.68,-0.01,0.75
0.68,-0.01,0.75
0.69,-0.01,0.75
0.68,-0.02,0.76
0.67,-0.02,0.76
0.67,-0.02,0.76
0.67,-0.02,0.76
0.66,-0.01,0.76
0.67,-0.01,0.75
0.68,0,0.76
0.68,0,0.75
0.68,0,0.75
0.68,0,0.75
0.68,-0.01,0.75
0.68,-0.01,0.75
0.68,-0.01,0.75
0.68,-0.02,0.75
0.68,-0.02,0.75
0.68,-0.02,0.75
0.68,-0.02,0.75
0.68,-0.01,0.75
0.68,-0.01,0.75
0.68,-0.02,0.75
0.68,-0.02,0.76
0.68,-0.02,0.76
0.68,-0.02,0.76
0.68,-0.02,0.76
0.68,-0.01,0.75
0.68,-0.02,0.75
0.68,-0.01,0.75
0.68,-0.02,0.75
0.68,-0.02,0.75
0.68,-0.01,0.75
0.68,-0.01,0.75
0.68,-0.01,0.75
0.68,-0.01,0.75
0.68,-0.02,0.75
0.68,-0.02,0.75
0.68,-0.02,0.75
0.68,-0.02,0.75
0.68,-0.01,0.75
0.68,-0.01,0.75
0.69,0,0.74
0.69,-0.01,0.74
0.68,-0.01,0.75
0.68,-0.01,0.75
0.68,-0.01,0.75
0.68,-0.01,0.75
0.68,-0.02,0.75
0.68,-0.01,0.75
0.68,-0.01,0.75
0.68,-0.01,0.75
0.68,-0.01,0.75
0.68,-0.01,0.75
0.68,-0.01,0.75
0.67,-0.01,0.75
0.68,-0.01,0.75
0.68,-0.01,0.75
0.68,-0.01,0.75
0.68,-0.01,0.75
0.68,-0.01,0.75
0.68,-0.01,0.75
0.67,-0.01,0.76
0.68,-0.02,0.76
0.68,-0.02,0.75
0.68,-0.01,0.75
0.68,-0.01,0.75
0.68,-0.01,0.74
0.68,-0.01,0.74
0.68,-0.01,0.74
0.68,-0.01,0.74
0.69,-0.01,0.74
0.68,-0.01,0.74
0.68,-0.01,0.75
0.66,-0.02,0.79
0.68,-0.02,0.76
0.69,-0.01,0.73
0.71,-0.02,0.72
0.7,-0.02,0.72
0.68,-0.02,0.73
0.67,-0.03,0.75
0.68,-0.03,0.76
0.67,-0.03,0.77
0.67,-0.03,0.77
0.69,-0.02,0.76
0.69,-0.02,0.75
0.7,-0.01,0.74
0.7,-0.02,0.75
0.7,-0.01,0.74
0.7,-0.01,0.71
0.72,-0.03,0.7
0.73,-0.04,0.7
0.73,-0.04,0.69
0.73,-0.03,0.69
0.73,-0.03,0.69
0.71,-0.03,0.71
0.7,-0.03,0.73
0.68,-0.03,0.74
0.68,-0.02,0.74
0.68,-0.01,0.75
0.69,0,0.74
0.7,0,0.72
0.72,0,0.71
0.73,0.01,0.7
0.72,0.01,0.7
0.72,0,0.69
0.72,-0.01,0.69
0.71,-0.02,0.69
0.69,-0.03,0.7
0.67,-0.04,0.73
0.66,-0.03,0.74
0.68,-0.03,0.75
0.69,-0.03,0.76
0.66,-0.04,0.76
0.6,-0.05,0.76
0.53,-0.03,0.76
0.55,0.09,0.75
0.74,0.09,0.75
0.98,0.04,0.76
1.08,-0.07,1.04
1.03,-0.1,0.97
0.94,-0.06,0.63
0.82,-0.1,0.66
0.72,-0.17,0.72
0.62,-0.2,0.81
0.56,-0.18,0.86
0.57,-0.16,0.85
0.6,-0.12,0.84
0.61,-0.09,0.85
0.61,-0.07,0.85
0.62,-0.06,0.84
0.63,-0.05,0.82
0.63,-0.04,0.81
0.65,-0.03,0.8
0.66,-0.05,0.79
0.64,-0.11,0.76
0.63,-0.17,0.73
0.65,-0.2,0.72
0.66,-0.24,0.69
0.66,-0.27,0.69
0.67,-0.29,0.7
0.67,-0.3,0.71
0.67,-0.28,0.74
0.66,-0.29,0.71
0.66,-0.3,0.7
0.69,-0.32,0.69
0.73,-0.37,0.64
0.74,-0.4,0.6
0.73,-0.4,0.59
0.73,-0.41,0.62
0.74,-0.4,0.63
0.73,-0.38,0.61
0.68,-0.36,0.58
0.65,-0.52,0.56
0.66,-0.53,0.56
0.63,-0.53,0.55
0.64,-0.54,0.56
0.69,-0.57,0.56
0.66,-0.59,0.55
0.53,-0.72,0.48
0.5,-0.72,0.46
0.49,-0.72,0.47
0.49,-0.75,0.48
0.48,-0.78,0.45
0.36,-0.97,0.33
0.36,-0.97,0.33
0.33,-0.97,0.31
0.32,-0.99,0.3
0.35,-1.02,0.31
-0.04,-1.08,0.59
-0.04,-1.1,0.58
-0.04,-1.1,0.58
-0.06,-1.09,0.57
-0.07,-1.08,0.54
-0.18,-0.93,0.73
-0.18,-0.93,0.73
-0.2,-0.92,0.74
-0.17,-0.93,0.72
-0.16,-0.94,0.68
-0.17,-0.94,0.66
-0.17,-0.92,0.64
-0.19,-0.87,0.63
-0.23,-0.82,0.61
-0.27,-0.78,0.62
-0.25,-0.76,0.63
-0.23,-0.74,0.62
-0.25,-0.71,0.6
-0.24,-0.68,0.56
-0.2,-0.66,0.54
-0.18,-0.65,0.55
-0.21,-0.59,0.61
-0.24,-0.55,0.6
-0.2,-0.53,0.57
-0.18,-0.53,0.56
-0.18,-0.55,0.57
-0.19,-0.58,0.58
-0.23,-0.58,0.57
-0.24,-0.53,0.53
-0.24,-0.48,0.5
-0.23,-0.43,0.48
-0.22,-0.4,0.49
-0.21,-0.39,0.52
-0.22,-0.4,0.53
-0.23,-0.41,0.52
-0.23,-0.43,0.5
-0.22,-0.43,0.46
-0.23,-0.4,0.42
-0.23,-0.38,0.38
-0.25,-0.34,0.37
-0.27,-0.34,0.4
-0.28,-0.32,0.43
-0.29,-0.29,0.45
-0.26,-0.3,0.46
-0.23,-0.3,0.46
-0.24,-0.28,0.47
-0.27,-0.28,0.49
-0.29,-0.26,0.54
-0.31,-0.27,0.6
-0.3,-0.31,0.66
-0.3,-0.38,0.73
-0.32,-0.48,0.75
-0.36,-0.54,0.7
-0.41,-0.51,0.6
-0.45,-0.46,0.51
-0.44,-0.45,0.45
-0.41,-0.44,0.43
-0.38,-0.46,0.46
-0.37,-0.47,0.51
-0.36,-0.45,0.57
-0.32,-0.42,0.66
-0.29,-0.42,0.73
-0.25,-0.45,0.74
-0.21,-0.49,0.72
-0.17,-0.53,0.7
-0.18,-0.53,0.68
-0.23,-0.5,0.66
-0.27,-0.47,0.65
-0.25,-0.47,0.65
-0.21,-0.52,0.68
-0.19,-0.57,0.73
-0.18,-0.63,0.76
-0.18,-0.68,0.77
-0.16,-0.74,0.77
-0.13,-0.76,0.76
-0.14,-0.8,0.75
-0.16,-0.82,0.74
-0.18,-0.81,0.76
-0.17,-0.8,0.78
-0.16,-0.81,0.82
-0.16,-0.8,0.85
-0.15,-0.8,0.86
-0.14,-0.82,0.86
-0.15,-0.85,0.85
-0.17,-0.85,0.84
-0.19,-0.85,0.85
-0.2,-0.85,0.86
-0.21,-0.86,0.88
-0.21,-0.88,0.91
-0.2,-0.91,0.92
-0.18,-0.93,0.9
-0.16,-0.95,0.87
-0.13,-0.98,0.85
-0.11,-1,0.82
-0.1,-1.01,0.81
-0.08,-1.03,0.83
-0.07,-1.05,0.87
-0.05,-1.08,0.89
-0.03,-1.1,0.9
-0.01,-1.13,0.87
0,-1.14,0.86
-0.01,-1.15,0.86
-0.01,-1.17,0.88
0,-1.2,0.9
0.02,-1.21,0.93
0.04,-1.21,0.93
0.06,-1.2,0.9
0.07,-1.2,0.87
0.09,-1.19,0.84
0.08,-1.2,0.82
0.08,-1.21,0.81
0.1,-1.19,0.8
0.11,-1.19,0.79
0.12,-1.19,0.77
0.14,-1.19,0.75
0.15,-1.16,0.72
0.17,-1.13,0.68
0.2,-1.12,0.65
0.22,-1.12,0.62
0.24,-1.12,0.62
0.25,-1.14,0.63
0.24,-1.16,0.64
0.24,-1.16,0.63
0.23,-1.17,0.6
0.22,-1.17,0.57
0.21,-1.16,0.53
0.2,-1.15,0.53
0.2,-1.15,0.52
0.2,-1.12,0.52
0.19,-1.09,0.5
0.18,-1.06,0.47
0.18,-1.04,0.44
0.19,-1.03,0.43
0.21,-1.03,0.42
0.22,-1.01,0.42
0.24,-0.99,0.41
0.28,-0.98,0.41
0.31,-0.96,0.4
0.34,-0.93,0.39
0.4,-0.91,0.37
0.47,-0.89,0.33
0.51,-0.88,0.28
0.46,-0.86,0.27
0.35,-0.85,0.29
0.3,-0.87,0.3
0.29,-0.86,0.29
0.28,-0.83,0.27
0.27,-0.81,0.26
0.27,-0.8,0.24
0.26,-0.79,0.23
0.23,-0.76,0.22
0.2,-0.73,0.24
0.12,-0.61,0.24
0.06,-0.55,0.24
0,-0.51,0.23
-0.02,-0.47,0.23
-0.03,-0.44,0.22
-0.03,-0.42,0.21
-0.04,-0.41,0.19
-0.04,-0.41,0.17
-0.05,-0.4,0.16
-0.05,-0.41,0.13
-0.06,-0.43,0.11
-0.1,-0.46,0.11
-0.14,-0.49,0.13
-0.17,-0.52,0.14
-0.19,-0.55,0.14
-0.18,-0.59,0.14
-0.17,-0.63,0.12
-0.17,-0.69,0.11
-0.17,-0.75,0.11
-0.17,-0.81,0.1
-0.17,-0.88,0.09
-0.15,-0.95,0.06
-0.12,-0.98,0.04
-0.09,-1.03,0.04
-0.01,-1.11,0.05
0.06,-1.17,0.15
0.08,-1.25,0.17
0.14,-1.26,0.14
0.2,-1.24,0.12
0.22,-1.22,0.11
0.21,-1.2,0.13
0.18,-1.16,0.17
0.18,-1.1,0.2
0.19,-1.05,0.21
0.22,-0.97,0.21
0.25,-0.89,0.19
0.24,-0.84,0.18
0.22,-0.81,0.18
0.21,-0.78,0.19
0.2,-0.75,0.2
0.19,-0.74,0.21
0.19,-0.72,0.22
0.2,-0.7,0.23
0.19,-0.68,0.24
0.18,-0.67,0.27
0.24,-0.65,0.29
0.3,-0.62,0.3
0.31,-0.63,0.32
0.34,-0.64,0.32
0.36,-0.64,0.32
0.39,-0.63,0.31
0.41,-0.64,0.3
0.46,-0.68,0.29
0.49,-0.7,0.29
0.52,-0.71,0.29
0.55,-0.72,0.28
0.57,-0.74,0.27
0.57,-0.76,0.27
0.58,-0.77,0.26
0.61,-0.79,0.26
0.63,-0.81,0.27
0.64,-0.83,0.27
0.66,-0.85,0.27
0.67,-0.88,0.27
0.67,-0.93,0.25
0.71,-1.03,0.24
0.77,-1.16,0.22
0.8,-1.28,0.22
0.81,-1.37,0.23
0.82,-1.42,0.25
0.81,-1.42,0.26
0.78,-1.39,0.26
0.75,-1.35,0.24
0.71,-1.3,0.22
0.66,-1.25,0.19
0.63,-1.21,0.16
0.6,-1.17,0.13
0.6,-1.17,0.1
0.62,-1.18,0.07
0.62,-1.18,0.08
0.61,-1.18,0.09
0.59,-1.18,0.1
0.58,-1.17,0.1
0.57,-1.16,0.11
0.55,-1.14,0.11
0.55,-1.12,0.1
0.52,-1.1,0.09
0.48,-1.07,0.08
0.44,-1.03,0.06
0.42,-1.01,0.06
0.4,-1,0.05
0.38,-0.99,0.06
0.35,-0.97,0.06
0.33,-0.95,0.07
0.32,-0.93,0.08
0.3,-0.91,0.08
0.3,-0.9,0.09
0.3,-0.88,0.08
0.3,-0.87,0.07
0.28,-0.86,0.08
0.26,-0.85,0.08
0.28,-0.84,0.06
0.28,-0.81,0.05
0.25,-0.8,0.02
0.25,-0.76,0.1
0.24,-0.75,0.09
0.26,-0.79,0.07
0.25,-0.8,0.09
0.26,-0.8,0.11
0.26,-0.82,0.1
0.25,-0.84,0.08
0.24,-0.86,0.07
0.24,-0.88,0.06
0.25,-0.9,0.06
0.27,-0.92,0.08
0.27,-0.97,0.11
0.28,-1.02,0.14
0.28,-1.05,0.15
0.29,-1.08,0.14
0.3,-1.11,0.11
0.3,-1.14,0.09
0.3,-1.16,0.07
0.29,-1.15,0.06
0.27,-1.11,0.09
0.29,-1.07,0.11
0.33,-1.02,0.13
0.34,-0.98,0.2
0.35,-0.96,0.25
0.41,-0.94,0.25
0.44,-0.94,0.27
0.42,-0.96,0.2
0.41,-1.06,0.2
0.46,-1.14,0.21
0.44,-1.22,0.17
0.39,-1.29,0.14
0.35,-1.34,0.15
0.29,-1.39,0.17
0.26,-1.44,0.18
0.27,-1.44,0.18
0.27,-1.39,0.18
0.28,-1.32,0.18
0.3,-1.23,0.18
0.32,-1.13,0.2
0.35,-1.04,0.19
0.38,-0.97,0.17
0.42,-0.9,0.15
0.41,-0.85,0.13
0.38,-0.8,0.1
0.4,-0.77,0.07
0.41,-0.75,0.05
0.4,-0.73,0.06
0.4,-0.72,0.07
0.4,-0.71,0.09
0.38,-0.71,0.1
0.36,-0.72,0.12
0.36,-0.73,0.14
0.37,-0.74,0.17
0.38,-0.77,0.19
0.37,-0.77,0.2
0.37,-0.78,0.2
0.38,-0.78,0.21
0.4,-0.79,0.22
0.42,-0.81,0.22
0.45,-0.83,0.23
0.47,-0.83,0.24
0.47,-0.85,0.25
0.48,-0.86,0.27
0.49,-0.87,0.28
0.5,-0.9,0.29
0.51,-0.92,0.3
0.5,-0.93,0.3
0.49,-0.96,0.29
0.49,-1,0.27
0.49,-1.05,0.26
0.51,-1.17,0.26
0.54,-1.34,0.26
0.57,-1.51,0.27
0.56,-1.61,0.3
0.54,-1.65,0.33
0.52,-1.62,0.35
0.5,-1.54,0.34
0.48,-1.41,0.32
0.43,-1.25,0.24
0.39,-0.96,0.21
0.41,-0.9,0.2
0.42,-0.92,0.2
0.45,-0.99,0.21
0.47,-1.07,0.23
0.47,-1.15,0.24
0.45,-1.24,0.25
0.4,-1.32,0.26
0.36,-1.38,0.25
0.33,-1.41,0.23
0.28,-1.4,0.2
0.23,-1.36,0.18
0.18,-1.3,0.16
0.15,-1.24,0.16
0.15,-1.18,0.16
0.16,-1.13,0.16
0.18,-1.1,0.14
0.19,-1.07,0.13
0.2,-1.05,0.14
0.21,-1.04,0.14
0.23,-1.02,0.12
0.26,-1.02,0.1
0.26,-1,0.08
0.25,-0.98,0.07
0.24,-0.98,0.07
0.23,-0.98,0.07
0.2,-0.97,0.06
0.19,-0.94,0.06
0.19,-0.91,0.05
0.2,-0.87,0.05
0.16,-0.85,0.03
0.14,-0.8,0.04
0.13,-0.76,0.06
0.13,-0.77,0.03
0.15,-0.76,0.03
0.17,-0.74,0.06
0.19,-0.73,0.08
0.18,-0.73,0.08
0.17,-0.75,0.09
0.15,-0.78,0.09
0.13,-0.8,0.08
0.13,-0.81,0.07
0.14,-0.8,0.07
0.15,-0.78,0.07
0.17,-0.78,0.08
0.2,-0.83,0.09
0.24,-0.92,0.09
0.27,-1.03,0.07
0.3,-1.15,0.06
0.32,-1.22,0.05
0.33,-1.26,0.05
0.33,-1.33,0.04
0.32,-1.35,0.05
0.32,-1.28,0.08
0.31,-1.21,0.08
0.31,-1.16,0.1
0.33,-1.16,0.14
0.35,-1.16,0.17
0.39,-1.14,0.18
0.43,-1.14,0.18
0.39,-1.17,0.18
0.35,-1.22,0.15
0.36,-1.27,0.09
0.36,-1.31,0.05
0.33,-1.36,0.02
0.29,-1.4,0.01
0.27,-1.42,0.01
0.27,-1.42,0.03
0.27,-1.39,0.05
0.27,-1.36,0.07
0.27,-1.31,0.08
0.27,-1.25,0.07
0.3,-1.17,0.07
0.34,-1.1,0.06
0.35,-1.04,0.06
0.36,-1,0.05
0.37,-0.97,0.04
0.38,-0.93,0.02
0.37,-0.89,0.01
0.39,-0.88,0.03
0.4,-0.87,0.04
0.38,-0.87,0.07
0.37,-0.87,0.08
0.37,-0.86,0.07
0.37,-0.85,0.07
0.37,-0.83,0.08
0.38,-0.83,0.09
0.38,-0.83,0.12
0.39,-0.82,0.16
0.41,-0.8,0.19
0.42,-0.78,0.2
0.43,-0.77,0.2
0.41,-0.78,0.2
0.41,-0.79,0.21
0.43,-0.8,0.22
0.45,-0.81,0.22
0.44,-0.82,0.23
0.42,-0.85,0.24
0.43,-0.87,0.25
0.43,-0.89,0.24
0.43,-0.9,0.25
0.42,-0.9,0.26
0.41,-0.93,0.26
0.41,-1.01,0.26
0.42,-1.28,0.26
0.37,-1.38,0.28
0.29,-1.43,0.29
0.21,-1.42,0.27
0.12,-1.36,0.24
0.06,-1.23,0.2
0.04,-1.07,0.19
0.04,-0.94,0.18
0.03,-0.86,0.18
0.03,-0.83,0.19
0.05,-0.85,0.21
0.04,-0.91,0.23
-0.01,-1.01,0.23
-0.08,-1.13,0.2
-0.16,-1.22,0.15
-0.24,-1.29,0.08
-0.3,-1.31,0.02
-0.36,-1.3,-0.02
-0.41,-1.26,-0.03
-0.42,-1.2,-0.03
-0.35,-1.14,-0.03
-0.25,-1.09,-0.05
-0.21,-1.04,-0.04
-0.21,-0.98,-0.01
-0.22,-0.95,0.02
-0.21,-0.93,0.03
-0.19,-0.91,0.06
-0.18,-0.91,0.05
-0.2,-0.92,0.04
-0.21,-0.94,0.02
-0.21,-0.96,0.01
-0.2,-0.97,-0.01
-0.19,-0.97,-0.03
-0.17,-0.97,-0.05
-0.16,-0.94,-0.06
-0.15,-0.91,-0.06
-0.13,-0.87,-0.05
-0.1,-0.85,-0.05
-0.09,-0.82,-0.05
-0.08,-0.79,-0.06
-0.06,-0.77,-0.07
-0.04,-0.76,-0.08
-0.04,-0.78,-0.08
-0.04,-0.79,-0.09
-0.03,-0.82,-0.11
-0.02,-0.86,-0.13
-0.01,-0.89,-0.14
-0.02,-0.93,-0.15
-0.03,-0.95,-0.16
-0.03,-0.98,-0.16
-0.01,-0.99,-0.17
0.02,-1,-0.18
0.07,-1.01,-0.18
0.16,-1.06,-0.17
0.18,-1.1,-0.17
0.19,-1.14,-0.17
0.18,-1.16,-0.18
0.18,-1.16,-0.2
0.18,-1.15,-0.21
0.17,-1.13,-0.2
0.17,-1.11,-0.17
0.18,-1.09,-0.14
0.18,-1.07,-0.11
0.17,-1.05,-0.08
0.15,-1.04,-0.07
0.14,-1.04,-0.07
0.13,-1.04,-0.09
0.13,-1.05,-0.1
0.12,-1.04,-0.12
0.11,-1.04,-0.13
0.09,-1.04,-0.12
0.07,-1.03,-0.11
0.04,-1.01,-0.1
0.02,-0.98,-0.09
0,-0.95,-0.08
0,-0.92,-0.08
-0.01,-0.92,-0.1
-0.02,-0.96,-0.14
-0.06,-1.02,-0.24
-0.14,-1.04,-0.29
-0.09,-1.01,-0.27
-0.01,-1,-0.2
0.02,-1,-0.09
-0.01,-0.99,0.02
-0.11,-0.97,0.09
-0.22,-0.95,0.09
-0.31,-0.93,0.05
-0.33,-0.91,0.01
-0.3,-0.89,-0.04
-0.26,-0.87,-0.07
-0.24,-0.85,-0.08
-0.23,-0.88,-0.08
-0.21,-0.92,-0.05
-0.21,-0.98,-0.01
-0.22,-1.09,0.04
-0.22,-1.24,0.06
-0.19,-1.38,0.03
-0.21,-1.43,0
-0.25,-1.39,-0.06
-0.21,-1.34,-0.24
-0.17,-1.26,-0.17
-0.51,-1.13,0.21
-0.14,-0.87,-0.11
-0.1,-0.78,-0.14
-0.14,-0.7,-0.15
-0.17,-0.63,-0.15
-0.12,-0.57,-0.16
0.2,-0.63,-0.23
0.75,-0.93,-0.24
1.23,-1.36,-0.21
1.38,-1.83,-0.08
1.19,-2.17,0.12
0.56,-2.03,0.22
-0.28,-1.52,0.19
-0.68,-1.06,0.01
-0.37,-0.91,-0.24
0.23,-0.95,-0.4
0.47,-0.93,-0.4
0.54,-0.83,-0.33
0.69,-0.74,-0.27
0.74,-0.78,-0.23
0.57,-0.87,-0.16
0.34,-1,-0.11
0.21,-1.13,-0.19
0.1,-1.15,-0.29
0.12,-1.05,-0.37
0.3,-0.93,-0.32
0.55,-0.89,-0.25
0.58,-0.92,-0.18
0.54,-0.96,-0.09
0.46,-0.99,-0.01
0.38,-1.01,0.03
0.35,-1,0.03
0.32,-0.98,-0.02
0.31,-0.94,-0.09
0.36,-0.92,-0.17
0.4,-0.92,-0.2
0.4,-0.92,-0.17
0.38,-0.91,-0.09
0.36,-0.91,-0.02
0.36,-0.93,0
0.36,-0.94,0.01
0.36,-0.94,0.01
0.35,-0.94,-0.01
0.36,-0.94,-0.04
0.36,-0.95,-0.05
0.37,-0.95,-0.03
0.38,-0.96,0.01
0.39,-0.96,0.05
0.41,-0.96,0.09
0.45,-0.96,0.11
0.51,-0.97,0.13
0.58,-0.99,0.15
0.6,-1.01,0.22
0.53,-1,0.28
0.47,-0.98,0.35
0.39,-0.97,0.42
0.35,-0.96,0.45
0.36,-0.93,0.42
0.47,-0.88,0.34
0.61,-0.82,0.25
0.72,-0.79,0.27
0.75,-0.79,0.36
0.72,-0.8,0.4
0.82,-0.84,0.42
0.94,-0.85,0.45
0.99,-0.82,0.49
0.99,-0.8,0.51
0.99,-0.82,0.52
1.01,-0.85,0.54
1.07,-0.91,0.61
1.11,-0.95,0.7
1.17,-0.94,0.74
1.26,-0.93,0.76
1.23,-0.88,0.74
1.05,-0.77,0.66
0.91,-0.68,0.56
0.83,-0.61,0.5
0.72,-0.55,0.47
0.61,-0.45,0.48
0.44,-0.42,0.5
0.41,-0.39,0.53
0.37,-0.36,0.55
0.33,-0.3,0.55
0.3,-0.24,0.53
0.3,-0.19,0.49
0.35,-0.14,0.47
0.4,-0.11,0.47
0.47,-0.06,0.5
0.56,-0.02,0.53
0.61,-0.01,0.55
0.63,0,0.57
0.66,0.02,0.6
0.65,0.03,0.61
0.63,0.06,0.63
0.64,0.11,0.65
0.7,0.12,0.64
0.77,0.11,0.63
0.81,0.11,0.64
0.84,0.11,0.68
0.85,0.12,0.73
0.83,0.12,0.78
0.81,0.12,0.82
0.78,0.12,0.82
0.74,0.14,0.79
0.69,0.18,0.73
0.52,0.16,0.73
0.44,0.17,0.75
0.41,0.17,0.76
0.39,0.2,0.75
0.36,0.22,0.77
0.34,0.24,0.78
0.34,0.26,0.78
0.33,0.23,0.79
0.35,0.21,0.86
0.39,0.21,0.91
0.38,0.17,0.89
0.34,0.18,0.86
0.32,0.21,0.81
0.24,0.21,0.76
0.16,0.24,0.78
0.17,0.25,0.77
0.17,0.22,0.75
0.19,0.22,0.71
0.21,0.23,0.73
0.24,0.25,0.79
0.31,0.3,0.81
0.33,0.27,0.82
0.33,0.26,0.83
0.33,0.3,0.81
0.28,0.37,0.82
0.24,0.3,0.76
0.33,0.3,0.8
0.42,0.31,0.84
0.49,0.32,0.87
0.51,0.33,0.88
0.48,0.36,0.84
0.44,0.38,0.82
0.4,0.39,0.81
0.37,0.41,0.8
0.39,0.4,0.79
0.42,0.39,0.79
0.44,0.39,0.8
0.48,0.39,0.81
0.52,0.38,0.82
0.51,0.38,0.83
0.47,0.39,0.83
0.45,0.4,0.84
0.44,0.41,0.85
0.45,0.41,0.83
0.46,0.41,0.82
