Acc_x,Acc_y,Acc_z
0.52,-0.57,0.67
0.51,-0.57,0.67
0.51,-0.57,0.66
0.52,-0.57,0.67
0.52,-0.57,0.67
0.52,-0.57,0.67
0.52,-0.56,0.67
0.52,-0.56,0.67
0.52,-0.56,0.67
0.51,-0.56,0.67
0.51,-0.56,0.68
0.51,-0.57,0.67
0.51,-0.57,0.67
0.51,-0.57,0.67
0.51,-0.57,0.66
0.51,-0.58,0.66
0.51,-0.58,0.67
0.51,-0.58,0.67
0.51,-0.57,0.67
0.51,-0.57,0.67
0.51,-0.57,0.67
0.51,-0.57,0.67
0.51,-0.57,0.67
0.51,-0.57,0.67
0.51,-0.57,0.67
0.51,-0.57,0.67
0.51,-0.56,0.68
0.52,-0.56,0.68
0.52,-0.56,0.68
0.52,-0.56,0.68
0.51,-0.56,0.67
0.51,-0.56,0.67
0.51,-0.57,0.66
0.51,-0.57,0.66
0.51,-0.58,0.66
0.51,-0.58,0.66
0.51,-0.58,0.66
0.51,-0.58,0.66
0.51,-0.58,0.67
0.51,-0.58,0.67
0.51,-0.58,0.67
0.51,-0.57,0.67
0.51,-0.57,0.67
0.51,-0.57,0.68
0.51,-0.56,0.68
0.51,-0.56,0.67
0.51,-0.57,0.67
0.51,-0.57,0.67
0.51,-0.56,0.67
0.51,-0.57,0.67
0.51,-0.57,0.67
0.51,-0.57,0.67
0.51,-0.57,0.66
0.51,-0.57,0.66
0.51,-0.57,0.66
0.51,-0.57,0.66
0.51,-0.57,0.67
0.51,-0.57,0.67
0.51,-0.58,0.67
0.51,-0.58,0.67
0.51,-0.57,0.67
0.51,-0.57,0.67
0.51,-0.57,0.67
0.51,-0.57,0.67
0.51,-0.57,0.67
0.51,-0.57,0.67
0.51,-0.57,0.67
0.51,-0.57,0.67
0.51,-0.57,0.67
0.51,-0.57,0.67
0.51,-0.57,0.67
0.51,-0.57,0.67
0.51,-0.57,0.67
0.51,-0.57,0.67
0.51,-0.57,0.67
0.51,-0.57,0.67
0.51,-0.57,0.67
0.51,-0.57,0.67
0.51,-0.57,0.67
0.51,-0.57,0.67
0.51,-0.57,0.67
0.51,-0.57,0.67
0.51,-0.57,0.67
0.51,-0.57,0.67
0.51,-0.57,0.67
0.51,-0.57,0.67
0.51,-0.56,0.68
0.52,-0.56,0.68
0.52,-0.56,0.68
0.52,-0.57,0.67
0.52,-0.57,0.68
0.51,-0.56,0.67
0.51,-0.57,0.68
0.52,-0.57,0.68
0.51,-0.56,0.67
0.51,-0.57,0.67
0.51,-0.57,0.67
0.52,-0.57,0.66
0.52,-0.57,0.66
0.51,-0.58,0.67
0.52,-0.58,0.66
0.52,-0.58,0.67
0.52,-0.57,0.67
0.52,-0.57,0.67
0.51,-0.57,0.68
0.51,-0.56,0.68
0.52,-0.56,0.68
0.52,-0.56,0.67
0.53,-0.56,0.67
0.52,-0.56,0.67
0.52,-0.56,0.67
0.52,-0.56,0.66
0.52,-0.55,0.67
0.53,-0.54,0.64
0.51,-0.55,0.64
0.52,-0.55,0.68
0.54,-0.54,0.68
0.53,-0.54,0.68
0.52,-0.55,0.69
0.52,-0.55,0.69
0.52,-0.54,0.69
0.52,-0.54,0.68
0.52,-0.55,0.68
0.52,-0.55,0.68
0.52,-0.55,0.67
0.52,-0.56,0.67
0.52,-0.56,0.67
0.52,-0.56,0.67
0.52,-0.56,0.68
0.52,-0.56,0.68
0.52,-0.56,0.68
0.52,-0.56,0.68
0.52,-0.56,0.67
0.52,-0.56,0.67
0.52,-0.56,0.67
0.52,-0.56,0.67
0.52,-0.56,0.67
0.52,-0.56,0.67
0.52,-0.56,0.68
0.52,-0.56,0.68
0.52,-0.56,0.68
0.51,-0.56,0.68
0.51,-0.56,0.68
0.51,-0.56,0.68
0.52,-0.56,0.68
0.52,-0.56,0.68
0.52,-0.56,0.68
0.52,-0.55,0.68
0.52,-0.55,0.68
0.52,-0.55,0.68
0.52,-0.55,0.68
0.52,-0.55,0.68
0.52,-0.56,0.67
0.52,-0.56,0.67
0.52,-0.56,0.67
0.52,-0.56,0.67
0.52,-0.56,0.67
0.51,-0.56,0.67
0.51,-0.56,0.67
0.51,-0.56,0.67
0.51,-0.56,0.68
0.51,-0.56,0.68
0.51,-0.56,0.68
0.51,-0.56,0.68
0.51,-0.56,0.68
0.51,-0.56,0.68
0.51,-0.56,0.68
0.52,-0.56,0.68
0.52,-0.56,0.68
0.52,-0.55,0.68
0.52,-0.55,0.68
0.52,-0.55,0.68
0.51,-0.56,0.68
0.51,-0.56,0.68
0.52,-0.56,0.68
0.51,-0.56,0.68
0.51,-0.56,0.68
0.52,-0.56,0.68
0.52,-0.56,0.68
0.52,-0.56,0.68
0.51,-0.56,0.68
0.51,-0.56,0.67
0.51,-0.56,0.68
0.51,-0.55,0.68
0.51,-0.55,0.68
0.52,-0.56,0.68
0.52,-0.56,0.68
0.52,-0.56,0.68
0.52,-0.56,0.68
0.51,-0.56,0.67
0.51,-0.56,0.67
0.51,-0.56,0.67
0.52,-0.56,0.67
0.52,-0.56,0.67
0.52,-0.56,0.68
0.52,-0.56,0.68
0.51,-0.56,0.68
0.51,-0.56,0.68
0.52,-0.56,0.68
0.51,-0.56,0.68
0.51,-0.56,0.68
0.51,-0.56,0.68
0.51,-0.56,0.67
0.51,-0.56,0.67
0.52,-0.56,0.67
0.52,-0.56,0.68
0.52,-0.56,0.68
0.52,-0.56,0.68
0.52,-0.56,0.68
0.52,-0.56,0.68
0.52,-0.56,0.68
0.52,-0.56,0.67
0.52,-0.56,0.67
0.52,-0.56,0.67
0.52,-0.56,0.67
0.51,-0.56,0.68
0.51,-0.56,0.68
0.51,-0.56,0.68
0.51,-0.56,0.68
0.51,-0.56,0.68
0.51,-0.56,0.68
0.51,-0.56,0.68
0.51,-0.56,0.68
0.52,-0.56,0.68
0.52,-0.55,0.68
0.52,-0.55,0.68
0.52,-0.55,0.68
0.52,-0.55,0.68
0.52,-0.55,0.68
0.52,-0.55,0.68
0.52,-0.55,0.68
0.52,-0.55,0.68
0.52,-0.55,0.67
0.52,-0.55,0.68
0.51,-0.56,0.68
0.52,-0.56,0.68
0.52,-0.56,0.68
0.51,-0.56,0.68
0.52,-0.56,0.68
0.52,-0.56,0.68
0.51,-0.56,0.68
0.51,-0.55,0.68
0.51,-0.55,0.68
0.52,-0.55,0.68
0.52,-0.56,0.68
0.52,-0.56,0.68
0.52,-0.56,0.68
0.51,-0.56,0.68
0.52,-0.56,0.68
0.51,-0.56,0.68
0.51,-0.56,0.68
0.51,-0.56,0.67
0.52,-0.56,0.67
0.52,-0.56,0.67
0.52,-0.56,0.68
0.52,-0.56,0.68
0.52,-0.57,0.69
0.52,-0.57,0.68
0.52,-0.57,0.69
0.52,-0.57,0.69
0.52,-0.57,0.67
0.52,-0.57,0.67
0.52,-0.58,0.67
0.52,-0.59,0.65
0.54,-0.6,0.65
0.52,-0.65,0.63
0.51,-0.65,0.61
0.53,-0.61,0.63
0.52,-0.6,0.65
0.54,-0.59,0.66
0.52,-0.58,0.66
0.51,-0.58,0.66
0.51,-0.58,0.67
0.51,-0.56,0.67
0.52,-0.55,0.68
0.52,-0.54,0.69
0.51,-0.54,0.68
0.5,-0.53,0.68
0.51,-0.53,0.68
0.51,-0.52,0.69
0.53,-0.5,0.71
0.53,-0.49,0.71
0.52,-0.49,0.74
0.51,-0.5,0.74
0.5,-0.51,0.71
0.5,-0.5,0.7
0.52,-0.48,0.72
0.52,-0.48,0.72
0.51,-0.48,0.72
0.52,-0.49,0.71
0.53,-0.5,0.71
0.53,-0.51,0.7
0.53,-0.52,0.69
0.52,-0.52,0.68
0.52,-0.53,0.68
0.52,-0.54,0.68
0.51,-0.55,0.68
0.51,-0.55,0.68
0.51,-0.55,0.69
0.51,-0.55,0.69
0.51,-0.55,0.69
0.51,-0.55,0.7
0.5,-0.55,0.7
0.5,-0.56,0.7
0.5,-0.56,0.7
0.5,-0.56,0.69
0.5,-0.55,0.69
0.51,-0.55,0.69
0.51,-0.55,0.68
0.51,-0.55,0.69
0.51,-0.55,0.69
0.51,-0.55,0.69
0.51,-0.55,0.69
0.51,-0.55,0.69
0.51,-0.55,0.68
0.51,-0.55,0.69
0.51,-0.55,0.69
0.51,-0.55,0.69
0.51,-0.55,0.69
0.51,-0.55,0.69
0.51,-0.55,0.68
0.51,-0.55,0.69
0.51,-0.55,0.69
0.51,-0.55,0.69
0.51,-0.55,0.69
0.51,-0.55,0.69
0.51,-0.55,0.69
0.51,-0.55,0.69
0.51,-0.56,0.69
0.51,-0.55,0.69
0.51,-0.55,0.7
0.5,-0.55,0.69
0.5,-0.55,0.69
0.5,-0.55,0.69
0.5,-0.55,0.68
0.5,-0.55,0.68
0.5,-0.56,0.68
0.51,-0.56,0.69
0.51,-0.57,0.69
0.51,-0.58,0.69
0.51,-0.58,0.69
0.52,-0.58,0.69
0.53,-0.58,0.69
0.53,-0.58,0.69
0.49,-0.58,0.68
0.51,-0.59,0.68
0.53,-0.6,0.69
0.52,-0.58,0.71
0.57,-0.6,0.69
0.62,-0.67,0.66
0.68,-0.72,0.59
0.69,-0.74,0.55
0.66,-0.76,0.57
0.65,-0.77,0.56
0.62,-0.8,0.55
0.6,-0.83,0.55
0.61,-0.85,0.57
0.63,-0.86,0.6
0.67,-0.87,0.63
0.7,-0.87,0.63
0.7,-0.88,0.63
0.69,-0.87,0.62
0.69,-0.84,0.61
0.66,-0.82,0.65
0.63,-0.79,0.7
0.64,-0.78,0.77
0.63,-0.77,0.84
0.62,-0.74,0.89
0.63,-0.7,0.92
0.61,-0.64,0.94
0.59,-0.62,0.92
0.59,-0.62,0.88
0.62,-0.6,0.91
0.65,-0.56,0.94
0.68,-0.54,0.97
0.71,-0.53,0.99
0.72,-0.51,1
0.77,-0.49,1
0.82,-0.47,1.01
0.86,-0.46,1.04
0.89,-0.44,1.01
0.98,-0.4,0.97
1.1,-0.39,0.92
1.13,-0.36,0.89
1.1,-0.31,0.9
1.06,-0.25,0.91
1.04,-0.19,0.89
1.02,-0.14,0.89
1.02,-0.1,0.9
1.09,-0.05,0.94
1,0.08,1
0.97,0.12,0.99
0.91,0.15,0.96
0.74,0.18,0.89
0.59,0.22,0.83
0.55,0.24,0.77
0.55,0.27,0.67
0.53,0.31,0.58
0.5,0.34,0.53
0.53,0.37,0.44
0.54,0.4,0.37
0.49,0.44,0.38
0.45,0.44,0.38
0.44,0.41,0.38
0.48,0.4,0.4
0.49,0.4,0.39
0.51,0.42,0.34
0.56,0.45,0.34
0.55,0.46,0.36
0.58,0.45,0.29
0.6,0.43,0.24
0.5,0.42,0.19
0.44,0.46,0.16
0.44,0.48,0.18
0.38,0.45,0.18
0.3,0.47,0.22
0.2,0.51,0.21
0.19,0.5,0.23
0.19,0.5,0.24
0.16,0.51,0.26
0.1,0.52,0.31
0.05,0.56,0.35
0.04,0.59,0.37
0.05,0.61,0.38
0.04,0.63,0.4
0.02,0.64,0.43
-0.01,0.65,0.45
-0.05,0.66,0.45
-0.08,0.69,0.44
-0.09,0.71,0.41
-0.06,0.73,0.38
-0.05,0.77,0.37
-0.05,0.8,0.39
-0.06,0.8,0.42
-0.09,0.8,0.46
-0.1,0.8,0.49
-0.09,0.79,0.51
-0.06,0.8,0.5
-0.02,0.83,0.5
0.03,0.83,0.54
0.06,0.81,0.56
0.04,0.81,0.6
0.15,0.82,0.59
0.21,0.83,0.57
0.13,0.81,0.54
0.04,0.8,0.5
0.03,0.8,0.44
0.01,0.81,0.39
-0.08,0.81,0.39
-0.18,0.82,0.44
-0.27,0.83,0.49
-0.28,0.81,0.51
-0.22,0.8,0.49
-0.17,0.78,0.5
-0.12,0.73,0.54
-0.07,0.69,0.54
-0.04,0.66,0.52
-0.05,0.63,0.53
0.01,0.61,0.51
0.09,0.61,0.48
0.16,0.59,0.43
0.17,0.58,0.38
0.18,0.58,0.33
0.23,0.55,0.3
0.21,0.51,0.29
0.14,0.49,0.33
0.15,0.49,0.4
0.27,0.5,0.32
0.28,0.52,0.36
0.27,0.51,0.44
0.3,0.5,0.5
0.31,0.51,0.5
0.31,0.51,0.52
0.33,0.55,0.52
0.39,0.6,0.49
0.43,0.63,0.5
0.44,0.68,0.49
0.45,0.72,0.43
0.48,0.74,0.29
0.54,0.74,0.21
0.6,0.72,0.23
0.69,0.7,0.3
0.77,0.72,0.37
0.75,0.77,0.46
0.72,0.81,0.55
0.73,0.86,0.52
0.73,0.85,0.45
0.73,0.8,0.43
0.74,0.75,0.47
0.8,0.72,0.55
0.9,0.68,0.64
0.93,0.61,0.73
0.94,0.58,0.82
0.95,0.57,0.92
0.65,0.57,0.98
0.6,0.6,1
0.56,0.59,0.99
0.52,0.54,1
0.49,0.52,1.02
0.47,0.52,1.04
0.43,0.52,1.02
0.43,0.54,0.96
0.43,0.57,0.91
0.4,0.58,0.88
0.41,0.57,0.84
0.46,0.56,0.81
0.52,0.54,0.79
0.57,0.51,0.77
0.62,0.48,0.72
0.68,0.44,0.64
0.71,0.42,0.55
0.73,0.41,0.52
0.74,0.38,0.52
0.68,0.33,0.53
0.6,0.3,0.56
0.59,0.3,0.59
0.66,0.29,0.62
0.75,0.25,0.63
0.75,0.16,0.67
0.7,0.1,0.76
0.64,0.03,0.8
0.59,0.03,0.86
0.58,0.04,0.88
0.6,0.05,0.85
0.64,0.06,0.81
0.71,0.07,0.77
0.74,0.07,0.75
0.76,0.06,0.73
0.78,0.04,0.71
0.77,0.03,0.68
0.75,0.03,0.65
0.74,0.01,0.73
0.86,0.01,0.84
1.09,0.04,0.82
1.16,0.04,0.77
1.05,0.06,0.72
0.93,0.09,0.7
0.89,0.09,0.69
0.87,0.09,0.67
0.83,0.09,0.67
0.8,0.1,0.67
0.78,0.1,0.66
0.76,0.1,0.65
0.76,0.1,0.66
0.77,0.08,0.67
0.76,0.06,0.69
0.73,0.07,0.68
0.75,0.07,0.68
0.75,0.07,0.67
0.75,0.07,0.67
0.76,0.06,0.66
0.78,0.05,0.66
0.77,0.03,0.67
0.76,0.02,0.69
0.75,0.02,0.69
0.76,0.02,0.7
0.78,0.01,0.71
0.78,0,0.71
0.78,0,0.7
0.8,0.01,0.71
0.81,0,0.71
0.8,0,0.72
0.8,0,0.72
0.8,-0.01,0.73
0.79,-0.01,0.74
0.8,-0.02,0.73
0.79,-0.02,0.73
0.77,-0.02,0.74
0.76,-0.01,0.76
0.74,0,0.76
0.72,0.01,0.77
0.71,0.01,0.8
0.68,0.01,0.81
0.68,0.03,0.83
0.7,0.03,0.84
0.7,0.03,0.84
0.67,0.04,0.84
0.63,0.04,0.83
0.59,0.04,0.81
0.57,0.05,0.79
0.59,0.05,0.78
0.63,0.06,0.78
0.67,0.06,0.8
0.65,0.07,0.82
0.6,0.09,0.84
0.57,0.11,0.85
0.58,0.14,0.86
0.61,0.17,0.86
0.61,0.19,0.87
0.6,0.23,0.88
0.58,0.26,0.87
0.58,0.27,0.84
0.58,0.28,0.81
0.57,0.28,0.78
0.56,0.29,0.76
0.53,0.3,0.76
0.5,0.3,0.77
0.48,0.31,0.8
0.44,0.33,0.8
0.45,0.34,0.79
0.46,0.34,0.79
0.44,0.33,0.8
0.42,0.34,0.82
0.39,0.33,0.82
0.37,0.33,0.82
0.34,0.33,0.81
0.32,0.34,0.81
0.31,0.34,0.81
0.3,0.35,0.81
0.29,0.34,0.81
0.28,0.35,0.82
0.29,0.35,0.84
0.29,0.35,0.86
0.27,0.35,0.88
0.25,0.34,0.89
0.27,0.32,0.89
0.29,0.31,0.88
0.31,0.3,0.87
0.33,0.28,0.88
0.35,0.27,0.88
0.35,0.25,0.88
0.35,0.25,0.86
0.34,0.25,0.85
0.34,0.25,0.87
0.33,0.25,0.89
0.34,0.24,0.91
0.33,0.23,0.92
0.3,0.23,0.91
0.28,0.23,0.89
0.29,0.24,0.86
0.32,0.23,0.84
0.33,0.23,0.85
0.33,0.24,0.87
0.33,0.25,0.88
0.32,0.26,0.89
0.31,0.27,0.89
0.32,0.29,0.9
0.32,0.3,0.9
0.31,0.31,0.88
0.3,0.33,0.86
0.32,0.34,0.84
0.33,0.35,0.83
0.34,0.36,0.84
0.36,0.37,0.85
0.37,0.38,0.86
0.37,0.38,0.87
0.37,0.39,0.87
0.37,0.41,0.86
0.36,0.42,0.84
0.36,0.43,0.81
0.37,0.42,0.81
0.39,0.41,0.82
0.4,0.41,0.83
0.4,0.41,0.85
0.4,0.41,0.85
0.39,0.41,0.85
0.38,0.42,0.83
0.36,0.42,0.83
0.36,0.42,0.83
0.38,0.41,0.83
0.39,0.4,0.84
0.39,0.39,0.84
0.39,0.39,0.84
0.39,0.38,0.84
0.39,0.38,0.84
0.39,0.38,0.85
0.39,0.38,0.85
0.4,0.37,0.86
0.41,0.36,0.86
0.42,0.35,0.86
0.42,0.34,0.87
0.42,0.34,0.87
0.42,0.34,0.87
0.42,0.34,0.87
0.41,0.34,0.85
0.41,0.34,0.83
0.39,0.34,0.83
0.39,0.34,0.83
0.39,0.35,0.83
0.39,0.35,0.82
0.38,0.36,0.82
0.38,0.36,0.82
0.39,0.36,0.83
0.39,0.36,0.84
0.4,0.36,0.85
0.4,0.36,0.85
0.4,0.37,0.84
0.4,0.38,0.83
0.4,0.39,0.82
0.41,0.39,0.83
0.42,0.39,0.83
0.42,0.39,0.83
0.42,0.4,0.83
0.42,0.4,0.83
0.43,0.41,0.84
0.42,0.41,0.85
0.42,0.41,0.86
0.42,0.41,0.86
0.42,0.41,0.86
0.42,0.41,0.85
0.42,0.41,0.85
0.42,0.4,0.87
0.42,0.4,0.87
0.41,0.4,0.87
0.41,0.4,0.87
0.41,0.39,0.87
0.41,0.39,0.86
0.41,0.39,0.86
0.41,0.39,0.86
0.41,0.39,0.86
0.41,0.39,0.86
0.41,0.39,0.86
0.41,0.39,0.86
0.4,0.39,0.86
0.41,0.4,0.87
0.42,0.4,0.88
0.41,0.43,0.9
0.41,0.44,0.9
0.42,0.43,0.88
0.43,0.45,0.86
0.43,0.46,0.85
0.44,0.47,0.84
0.39,0.5,0.84
0.4,0.47,0.85
0.49,0.48,0.86
0.48,0.51,0.88
0.46,0.5,0.87
0.46,0.5,0.85
0.43,0.58,0.86
0.39,0.57,0.83
0.36,0.45,0.79
0.35,0.49,0.8
0.3,0.53,0.8
0.25,0.47,0.79
0.19,0.43,0.79
0.15,0.43,0.8
0.15,0.44,0.8
0.12,0.41,0.8
0.07,0.38,0.82
0.07,0.38,0.83
0.01,0.36,0.84
0.01,0.27,0.83
0.15,0.27,0.84
0.19,0.32,0.89
0.14,0.25,0.93
0.14,0.23,0.93
0.07,0.23,0.95
0.04,0.16,0.93
0.09,0.16,0.9
0.07,0.19,0.93
0.06,0.17,0.96
0.03,0.16,0.97
0.03,0.16,0.97
0.02,0.17,0.96
0,0.17,0.95
0,0.17,0.93
0.01,0.17,0.92
0.01,0.15,0.9
0,0.13,0.89
-0.05,0.11,0.92
-0.11,0.11,0.96
-0.14,0.11,0.94
-0.19,0.08,0.87
-0.19,0.08,0.92
-0.08,0.08,1.04
0.03,0.09,1.08
0.06,0.13,1.1
0,0.18,1.09
-0.04,0.22,1.04
-0.02,0.25,0.98
-0.01,0.27,0.94
-0.01,0.27,0.92
-0.03,0.27,0.95
-0.02,0.29,0.97
-0.02,0.3,0.99
-0.05,0.31,1
-0.04,0.32,1
-0.03,0.33,0.99
-0.02,0.34,0.98
-0.01,0.33,0.97
0,0.32,0.95
-0.01,0.32,0.94
-0.02,0.32,0.93
-0.02,0.31,0.92
-0.01,0.32,0.93
0,0.32,0.94
0.01,0.32,0.96
0.01,0.32,0.99
0.02,0.3,1
0.02,0.29,1.01
0.02,0.28,1.02
0.01,0.28,1.02
0.01,0.27,1.02
0.01,0.27,1.02
0.01,0.28,1.01
0.02,0.29,1
0.02,0.28,0.98
0.02,0.28,0.97
0.03,0.28,0.96
0.03,0.28,0.95
0.01,0.28,0.93
-0.02,0.29,0.93
-0.02,0.28,0.91
0.01,0.28,0.91
0.05,0.31,0.93
0.06,0.32,0.94
0.07,0.31,0.94
0.07,0.32,0.94
0.07,0.32,0.95
0.07,0.32,0.95
0.06,0.33,0.94
0.05,0.33,0.94
0.04,0.33,0.93
0.03,0.33,0.94
0.03,0.32,0.95
0.03,0.32,0.95
0.04,0.32,0.96
0.03,0.31,0.96
0.03,0.31,0.96
0.03,0.31,0.96
0.02,0.31,0.96
0.03,0.31,0.96
0.03,0.31,0.96
0.03,0.31,0.95
0.03,0.31,0.95
0.03,0.31,0.95
0.04,0.31,0.95
0.04,0.31,0.95
0.04,0.31,0.95
0.04,0.31,0.95
0.04,0.31,0.95
0.04,0.31,0.95
0.04,0.31,0.95
0.05,0.31,0.95
0.04,0.31,0.95
0.04,0.31,0.94
0.03,0.31,0.94
0.03,0.31,0.95
0.03,0.31,0.95
0.03,0.31,0.96
0.03,0.31,0.96
0.03,0.31,0.95
0.04,0.31,0.96
0.04,0.31,0.96
0.03,0.31,0.96
0.03,0.31,0.96
0.04,0.3,0.96
0.04,0.3,0.95
0.04,0.3,0.95
0.03,0.31,0.95
0.03,0.31,0.96
0.03,0.31,0.96
0.04,0.31,0.96
0.03,0.31,0.95
0.03,0.31,0.95
0.03,0.31,0.95
0.03,0.31,0.95
0.04,0.3,0.96
0.04,0.3,0.95
0.03,0.31,0.95
0.03,0.31,0.94
0.04,0.31,0.94
0.03,0.31,0.94
0.03,0.31,0.94
0.03,0.31,0.94
0.04,0.31,0.94
0.04,0.32,0.94
0.05,0.31,0.94
0.05,0.32,0.95
0.05,0.31,0.95
0.05,0.31,0.95
0.05,0.32,0.95
0.04,0.32,0.95
0.04,0.31,0.95
0.04,0.31,0.95
0.04,0.31,0.96
0.03,0.31,0.95
0.04,0.31,0.95
0.04,0.31,0.95
0.04,0.31,0.95
0.03,0.31,0.95
0.04,0.31,0.95
0.04,0.31,0.94
0.04,0.31,0.94
0.04,0.31,0.94
0.04,0.31,0.95
0.05,0.31,0.95
0.05,0.31,0.95
0.05,0.31,0.94
0.05,0.31,0.94
0.05,0.31,0.94
0.05,0.31,0.94
0.05,0.31,0.94
0.06,0.31,0.95
0.06,0.31,0.98
0.06,0.3,0.98
0.06,0.3,0.98
0.04,0.31,1
0.04,0.33,0.97
0.03,0.32,0.91
0.02,0.3,0.93
0.04,0.3,0.97
0.06,0.3,0.97
0.05,0.3,0.96
0.04,0.3,0.95
0.04,0.3,0.93
0.03,0.3,0.92
0.02,0.3,0.92
0.03,0.3,0.91
0.03,0.29,0.92
0.06,0.3,0.95
0.06,0.31,0.96
0.06,0.31,0.95
0.06,0.31,0.95
0.06,0.31,0.95
0.06,0.31,0.95
0.05,0.31,0.96
0.05,0.31,0.96
0.06,0.31,0.96
0.05,0.31,0.97
0.05,0.31,0.96
0.05,0.3,0.96
0.05,0.3,0.96
0.05,0.3,0.97
0.05,0.3,0.98
0.05,0.3,0.98
0.05,0.3,0.98
0.05,0.3,0.97
0.05,0.3,0.96
0.04,0.3,0.95
0.04,0.31,0.95
0.04,0.31,0.94
0.04,0.31,0.94
0.04,0.31,0.94
0.04,0.31,0.94
0.05,0.31,0.95
0.05,0.31,0.95
0.05,0.31,0.95
0.05,0.31,0.96
0.05,0.31,0.95
0.05,0.31,0.95
0.04,0.31,0.95
0.04,0.31,0.94
0.03,0.31,0.94
0.04,0.31,0.94
0.04,0.32,0.95
0.04,0.32,0.95
0.04,0.31,0.94
0.05,0.31,0.95
0.05,0.31,0.95
0.05,0.31,0.96
0.06,0.31,0.95
0.06,0.3,0.95
0.05,0.3,0.95
0.05,0.3,0.95
0.05,0.3,0.95
0.05,0.3,0.95
0.05,0.3,0.95
0.05,0.31,0.95
0.05,0.31,0.95
0.04,0.3,0.96
0.04,0.31,0.95
0.04,0.31,0.95
0.04,0.31,0.95
0.05,0.31,0.95
0.05,0.31,0.95
0.05,0.31,0.95
0.05,0.31,0.95
0.06,0.31,0.95
0.06,0.31,0.95
0.06,0.31,0.95
0.05,0.31,0.94
0.05,0.31,0.95
0.05,0.32,0.95
0.05,0.32,0.95
0.05,0.32,0.95
0.05,0.32,0.94
0.05,0.32,0.94
0.05,0.32,0.94
0.05,0.32,0.95
0.05,0.32,0.95
0.05,0.31,0.95
0.05,0.31,0.95
0.05,0.3,0.95
0.05,0.3,0.95
0.05,0.3,0.95
0.06,0.3,0.95
0.06,0.31,0.95
0.06,0.31,0.95
0.06,0.31,0.95
0.06,0.31,0.95
0.06,0.32,0.95
0.07,0.32,0.95
0.06,0.31,0.95
0.06,0.31,0.95
0.05,0.31,0.95
0.05,0.31,0.95
0.05,0.31,0.95
0.05,0.31,0.95
0.05,0.31,0.95
0.05,0.31,0.95
0.06,0.31,0.95
0.07,0.32,0.94
0.07,0.32,0.95
0.07,0.31,0.95
0.07,0.31,0.95
0.07,0.31,0.96
0.07,0.3,0.96
0.07,0.3,0.96
0.06,0.3,0.95
0.06,0.3,0.95
0.06,0.3,0.95
0.06,0.3,0.95
0.05,0.31,0.94
0.06,0.31,0.95
0.06,0.32,0.95
0.06,0.32,0.95
0.06,0.32,0.95
0.06,0.32,0.95
0.06,0.32,0.95
0.07,0.32,0.94
0.07,0.32,0.94
0.07,0.32,0.94
0.07,0.32,0.94
0.06,0.31,0.95
0.06,0.31,0.95
0.07,0.31,0.95
0.07,0.32,0.95
0.07,0.31,0.95
0.07,0.31,0.95
0.07,0.31,0.95
0.06,0.31,0.95
0.06,0.31,0.95
0.06,0.31,0.95
0.06,0.31,0.95
0.07,0.31,0.95
0.07,0.31,0.95
0.07,0.3,0.95
0.07,0.3,0.95
0.07,0.31,0.95
0.06,0.31,0.94
0.06,0.32,0.94
0.07,0.32,0.94
0.07,0.32,0.94
0.07,0.32,0.94
0.07,0.32,0.94
0.07,0.32,0.94
0.08,0.32,0.94
0.08,0.31,0.95
0.07,0.31,0.95
0.07,0.31,0.95
0.06,0.31,0.95
0.06,0.31,0.95
0.06,0.31,0.95
0.06,0.31,0.95
0.06,0.31,0.95
0.06,0.31,0.95
0.06,0.31,0.95
0.07,0.31,0.95
0.07,0.31,0.95
0.07,0.31,0.95
0.08,0.31,0.95
0.08,0.31,0.95
0.08,0.31,0.95
0.08,0.31,0.95
0.08,0.31,0.94
0.07,0.31,0.95
0.07,0.31,0.95
0.06,0.31,0.95
0.06,0.31,0.94
0.06,0.31,0.95
0.06,0.32,0.95
0.06,0.32,0.95
0.06,0.32,0.95
0.06,0.32,0.95
0.07,0.32,0.95
0.07,0.32,0.95
0.07,0.31,0.95
0.07,0.31,0.95
0.07,0.31,0.95
0.08,0.31,0.95
0.08,0.31,0.95
0.08,0.3,0.95
0.08,0.3,0.95
0.07,0.31,0.95
0.07,0.31,0.95
0.07,0.31,0.95
0.07,0.31,0.95
0.06,0.31,0.95
0.06,0.31,0.94
0.07,0.32,0.94
0.08,0.32,0.95
0.08,0.32,0.95
0.08,0.32,0.95
0.07,0.32,0.95
0.07,0.32,0.95
0.07,0.32,0.95
0.07,0.32,0.95
0.07,0.32,0.94
0.07,0.32,0.94
0.07,0.32,0.95
0.06,0.32,0.95
0.06,0.32,0.95
0.07,0.31,0.95
0.07,0.31,0.95
0.08,0.31,0.95
0.08,0.31,0.95
0.08,0.31,0.94
0.08,0.3,0.94
0.08,0.3,0.95
0.08,0.3,0.95
0.08,0.3,0.95
0.08,0.3,0.95
0.08,0.3,0.95
0.07,0.31,0.95
0.07,0.31,0.95
0.07,0.31,0.95
0.07,0.32,0.95
0.07,0.32,0.95
0.07,0.32,0.95
0.08,0.32,0.95
0.08,0.32,0.95
0.08,0.32,0.95
0.09,0.31,0.95
0.08,0.31,0.94
0.08,0.31,0.94
0.08,0.31,0.95
0.07,0.31,0.95
0.07,0.31,0.95
0.06,0.32,0.95
0.07,0.31,0.95
0.06,0.31,0.95
0.06,0.31,0.95
0.07,0.31,0.95
0.07,0.31,0.95
0.07,0.31,0.95
0.07,0.31,0.95
0.07,0.31,0.95
0.08,0.31,0.95
0.08,0.31,0.95
0.08,0.31,0.95
0.08,0.31,0.94
0.08,0.31,0.94
0.08,0.32,0.94
0.08,0.32,0.94
0.07,0.32,0.94
0.07,0.32,0.94
0.07,0.32,0.95
0.07,0.32,0.95
0.07,0.32,0.95
0.07,0.32,0.95
0.08,0.32,0.95
0.08,0.31,0.95
0.08,0.31,0.95
0.08,0.31,0.95
0.08,0.31,0.95
0.08,0.31,0.94
0.07,0.31,0.94
0.08,0.31,0.94
0.07,0.31,0.94
0.07,0.31,0.95
0.08,0.3,0.95
0.08,0.3,0.95
0.07,0.31,0.96
0.07,0.31,0.96
0.07,0.31,0.96
0.07,0.31,0.95
0.08,0.32,0.95
0.08,0.32,0.95
0.08,0.32,0.95
0.08,0.32,0.95
0.07,0.31,0.95
0.07,0.31,0.94
0.07,0.32,0.94
0.07,0.32,0.94
0.07,0.32,0.94
0.07,0.32,0.94
0.07,0.32,0.93
0.08,0.32,0.94
0.08,0.32,0.94
0.08,0.32,0.94
0.08,0.32,0.95
0.08,0.32,0.95
0.08,0.31,0.95
0.08,0.32,0.95
0.07,0.32,0.95
0.07,0.31,0.95
0.07,0.31,0.95
0.07,0.32,0.95
0.07,0.32,0.95
0.07,0.32,0.94
0.08,0.32,0.94
0.08,0.32,0.94
0.08,0.32,0.95
0.08,0.32,0.95
0.09,0.32,0.94
0.09,0.31,0.94
0.09,0.31,0.94
0.09,0.31,0.94
0.09,0.31,0.95
0.08,0.31,0.95
0.08,0.31,0.94
0.08,0.31,0.94
0.07,0.31,0.95
0.07,0.31,0.95
0.07,0.32,0.95
0.07,0.32,0.95
0.07,0.32,0.95
0.07,0.32,0.95
0.08,0.32,0.95
0.08,0.32,0.95
0.08,0.32,0.95
0.08,0.32,0.94
0.08,0.32,0.94
0.08,0.31,0.94
0.08,0.32,0.94
0.08,0.31,0.94
0.08,0.31,0.94
0.07,0.31,0.94
0.07,0.31,0.94
0.07,0.32,0.94
0.07,0.32,0.94
0.07,0.32,0.94
0.07,0.32,0.95
0.07,0.32,0.95
0.08,0.32,0.95
0.08,0.32,0.95
0.07,0.31,0.95
0.07,0.31,0.95
0.07,0.32,0.95
0.08,0.32,0.95
0.08,0.32,0.95
0.08,0.32,0.94
0.08,0.31,0.94
0.08,0.31,0.94
0.08,0.32,0.94
0.08,0.32,0.94
0.08,0.32,0.94
0.08,0.32,0.95
0.08,0.32,0.95
0.08,0.31,0.95
0.07,0.31,0.95
0.07,0.31,0.95
0.07,0.31,0.95
0.08,0.31,0.95
0.08,0.31,0.95
0.08,0.31,0.95
0.08,0.31,0.95
0.08,0.32,0.95
0.08,0.32,0.95
0.08,0.33,0.95
0.08,0.33,0.94
0.08,0.33,0.94
0.08,0.33,0.94
0.08,0.33,0.94
0.08,0.32,0.93
0.08,0.32,0.94
0.08,0.32,0.94
0.08,0.32,0.94
0.08,0.32,0.95
0.08,0.32,0.95
0.07,0.32,0.95
0.07,0.32,0.95
0.07,0.32,0.95
0.07,0.32,0.95
0.07,0.32,0.95
0.07,0.32,0.95
0.08,0.32,0.95
0.08,0.32,0.94
0.08,0.32,0.95
0.08,0.31,0.95
0.09,0.31,0.95
0.09,0.31,0.95
0.09,0.31,0.94
0.08,0.31,0.94
0.08,0.31,0.94
0.08,0.32,0.94
0.08,0.32,0.94
0.08,0.32,0.94
0.07,0.33,0.94
0.08,0.33,0.94
0.07,0.33,0.95
0.08,0.33,0.95
0.08,0.33,0.95
0.08,0.33,0.94
0.08,0.33,0.94
0.09,0.33,0.94
0.09,0.33,0.94
0.09,0.32,0.94
0.09,0.32,0.94
0.09,0.32,0.94
0.08,0.31,0.94
0.08,0.32,0.94
0.08,0.32,0.94
0.07,0.31,0.94
0.07,0.32,0.94
0.07,0.32,0.94
0.07,0.31,0.94
0.07,0.32,0.95
0.08,0.32,0.95
0.08,0.33,0.95
0.08,0.32,0.95
0.08,0.32,0.95
0.09,0.32,0.95
0.09,0.32,0.95
0.08,0.32,0.95
0.08,0.32,0.95
0.07,0.32,0.94
0.07,0.32,0.94
0.07,0.32,0.94
0.07,0.32,0.93
0.07,0.32,0.94
0.08,0.32,0.94
0.08,0.32,0.94
0.08,0.32,0.95
0.08,0.32,0.95
0.08,0.32,0.95
0.08,0.32,0.95
0.09,0.32,0.95
0.08,0.32,0.95
0.08,0.31,0.94
0.08,0.31,0.94
0.08,0.31,0.94
0.08,0.31,0.95
0.08,0.31,0.95
0.08,0.32,0.95
0.08,0.32,0.95
0.08,0.32,0.95
0.08,0.32,0.95
0.08,0.32,0.95
0.08,0.32,0.95
0.08,0.32,0.94
0.08,0.32,0.94
0.08,0.32,0.94
0.08,0.32,0.94
0.08,0.32,0.94
0.08,0.32,0.94
0.07,0.32,0.94
0.07,0.32,0.94
0.08,0.32,0.94
0.08,0.32,0.94
0.08,0.32,0.94
0.08,0.32,0.94
0.08,0.32,0.94
0.07,0.32,0.94
0.07,0.32,0.94
0.07,0.32,0.94
0.07,0.32,0.95
0.07,0.32,0.95
0.08,0.32,0.95
0.08,0.31,0.95
0.09,0.32,0.95
0.08,0.32,0.95
0.08,0.32,0.94
0.08,0.32,0.94
0.08,0.32,0.94
0.08,0.32,0.94
0.08,0.32,0.94
0.07,0.32,0.94
0.07,0.31,0.94
0.07,0.32,0.95
0.07,0.32,0.96
0.04,0.32,0.96
0.04,0.31,0.96
0.07,0.3,0.96
0.07,0.3,0.96
0.04,0.29,0.97
0.01,0.29,0.99
0.03,0.28,0.98
0.03,0.27,0.99
0.03,0.27,0.99
0.04,0.26,0.99
0.04,0.25,0.97
0,0.27,0.96
-0.02,0.28,0.96
-0.01,0.26,0.95
0.01,0.28,0.93
0.03,0.27,0.94
0.03,0.27,0.95
0.04,0.28,0.97
0.04,0.28,0.97
0.05,0.26,0.97
0.06,0.29,0.99
0.06,0.29,0.98
0.09,0.26,0.96
0.1,0.26,0.94
0.1,0.26,0.91
0.11,0.24,0.88
0.11,0.24,0.84
0.1,0.25,0.8
0.1,0.27,0.79
0.11,0.3,0.79
0.12,0.31,0.79
0.14,0.32,0.8
0.16,0.35,0.82
0.19,0.39,0.84
0.21,0.41,0.85
0.23,0.44,0.87
0.24,0.47,0.9
0.26,0.49,0.94
0.27,0.51,0.97
0.26,0.53,0.99
0.24,0.53,1
0.29,0.51,1
0.33,0.49,0.99
0.33,0.46,0.96
0.3,0.44,0.94
0.28,0.41,0.9
0.27,0.39,0.88
0.25,0.36,0.88
0.24,0.32,0.9
0.22,0.28,0.92
0.21,0.25,0.93
0.21,0.25,0.92
0.22,0.27,0.89
0.22,0.28,0.89
0.19,0.31,0.9
0.17,0.33,0.93
0.16,0.34,0.95
0.16,0.35,0.96
0.15,0.35,0.96
0.16,0.34,0.96
0.17,0.33,0.95
0.18,0.33,0.95
0.19,0.33,0.95
0.2,0.33,0.95
0.22,0.34,0.96
0.22,0.35,0.97
0.21,0.35,0.96
0.23,0.34,0.94
0.25,0.35,0.92
0.25,0.34,0.9
0.26,0.34,0.89
0.27,0.35,0.88
0.26,0.34,0.88
0.23,0.33,0.88
0.23,0.33,0.86
0.25,0.33,0.87
0.24,0.32,0.9
0.24,0.31,0.94
0.25,0.31,0.96
0.26,0.31,0.96
0.27,0.32,0.96
0.28,0.32,0.94
0.28,0.31,0.92
0.3,0.31,0.9
0.32,0.31,0.89
0.32,0.31,0.89
0.32,0.31,0.89
0.3,0.32,0.89
0.27,0.35,0.88
0.26,0.35,0.9
0.27,0.34,0.93
0.29,0.33,0.93
0.29,0.32,0.95
0.29,0.31,0.96
0.29,0.33,0.96
0.31,0.33,0.91
0.28,0.32,0.88
0.25,0.32,0.89
0.26,0.32,0.9
0.25,0.31,0.87
0.22,0.31,0.85
0.22,0.32,0.82
0.23,0.33,0.79
0.24,0.34,0.81
0.25,0.33,0.84
0.27,0.35,0.87
0.32,0.33,0.88
0.39,0.32,0.92
0.39,0.33,0.96
0.36,0.33,0.95
0.39,0.34,0.92
0.41,0.34,0.92
0.34,0.35,0.91
0.29,0.35,0.89
0.27,0.35,0.89
0.27,0.35,0.9
0.27,0.35,0.91
0.25,0.35,0.92
0.24,0.34,0.92
0.25,0.34,0.92
0.25,0.34,0.93
0.26,0.34,0.92
0.26,0.34,0.92
0.26,0.33,0.92
0.26,0.34,0.91
0.26,0.34,0.91
0.26,0.33,0.91
0.27,0.33,0.91
0.29,0.33,0.91
0.29,0.32,0.9
0.29,0.33,0.9
0.29,0.33,0.91
0.29,0.33,0.9
0.28,0.33,0.9
0.28,0.34,0.89
0.27,0.34,0.9
0.27,0.34,0.9
0.27,0.34,0.91
0.26,0.34,0.91
0.26,0.34,0.91
0.26,0.34,0.91
0.26,0.34,0.91
0.26,0.34,0.9
0.27,0.34,0.9
0.27,0.34,0.9
0.28,0.34,0.9
0.27,0.34,0.9
0.27,0.34,0.9
0.28,0.34,0.9
0.28,0.33,0.9
0.28,0.33,0.91
0.28,0.33,0.9
0.27,0.33,0.9
0.27,0.33,0.9
0.27,0.33,0.9
0.26,0.33,0.91
0.26,0.33,0.91
0.26,0.33,0.91
0.26,0.33,0.92
0.27,0.32,0.92
0.27,0.32,0.92
0.27,0.33,0.91
0.27,0.33,0.91
0.27,0.32,0.91
0.26,0.33,0.91
0.26,0.33,0.92
0.27,0.32,0.91
0.26,0.33,0.91
0.26,0.33,0.91
0.27,0.33,0.91
0.27,0.33,0.91
0.26,0.33,0.9
0.26,0.34,0.89
0.26,0.34,0.9
0.26,0.34,0.9
0.27,0.34,0.91
0.26,0.33,0.92
0.26,0.33,0.92
0.26,0.33,0.91
0.25,0.33,0.91
0.26,0.33,0.9
0.26,0.33,0.9
0.26,0.33,0.91
0.27,0.33,0.91
0.27,0.33,0.91
0.27,0.33,0.91
0.27,0.33,0.91
0.27,0.34,0.9
0.26,0.34,0.9
0.26,0.34,0.9
0.26,0.34,0.89
0.26,0.34,0.9
0.26,0.34,0.91
0.26,0.34,0.91
0.26,0.34,0.91
0.27,0.34,0.91
0.27,0.34,0.91
0.27,0.33,0.91
0.27,0.34,0.91
0.27,0.34,0.91
0.27,0.34,0.91
0.27,0.33,0.91
0.27,0.33,0.91
0.27,0.33,0.91
0.27,0.33,0.91
0.26,0.33,0.91
0.27,0.33,0.91
0.27,0.33,0.91
0.27,0.33,0.91
0.27,0.33,0.91
0.27,0.33,0.91
0.27,0.33,0.92
0.27,0.33,0.93
0.27,0.34,0.93
0.27,0.34,0.93
0.27,0.34,0.93
0.26,0.34,0.93
0.27,0.34,0.94
0.27,0.34,0.95
0.27,0.34,0.95
0.27,0.33,0.95
0.28,0.31,0.94
0.28,0.31,0.91
0.28,0.31,0.9
0.29,0.32,0.91
0.3,0.32,0.92
0.3,0.31,0.93
0.3,0.31,0.95
0.31,0.31,0.96
0.32,0.3,0.96
0.34,0.28,0.95
0.36,0.27,0.95
0.37,0.24,0.95
0.36,0.21,0.95
0.36,0.2,0.95
0.36,0.19,0.97
0.36,0.18,0.98
0.35,0.16,0.99
0.35,0.14,1
0.37,0.12,1.02
0.4,0.1,1.04
0.45,0.08,1.07
0.5,0.04,1.1
0.53,0,1.13
0.53,-0.04,1.17
0.51,-0.08,1.2
0.55,-0.1,1.18
0.6,-0.13,1.16
0.62,-0.15,1.13
0.66,-0.16,1.1
0.65,-0.15,1.05
0.63,-0.14,1
0.59,-0.14,0.94
0.54,-0.13,0.88
0.54,-0.13,0.81
0.54,-0.13,0.76
0.54,-0.11,0.72
0.53,-0.1,0.71
0.5,-0.1,0.72
0.45,-0.11,0.74
0.42,-0.12,0.74
0.41,-0.12,0.71
0.41,-0.12,0.66
0.39,-0.12,0.61
0.38,-0.13,0.57
0.37,-0.15,0.53
0.39,-0.18,0.51
0.47,-0.24,0.55
0.55,-0.31,0.59
0.56,-0.35,0.6
0.58,-0.34,0.6
0.61,-0.35,0.58
0.61,-0.36,0.54
0.58,-0.35,0.47
0.56,-0.35,0.33
0.59,-0.35,0.31
0.65,-0.37,0.33
0.7,-0.41,0.35
0.74,-0.47,0.37
0.74,-0.51,0.36
0.69,-0.52,0.32
0.64,-0.51,0.29
0.6,-0.51,0.27
0.61,-0.52,0.28
0.65,-0.57,0.27
0.72,-0.61,0.28
0.76,-0.62,0.29
0.74,-0.65,0.28
0.67,-0.67,0.27
0.62,-0.68,0.27
0.62,-0.67,0.28
0.65,-0.68,0.3
0.67,-0.71,0.33
0.67,-0.75,0.34
0.67,-0.79,0.35
0.7,-0.82,0.37
0.74,-0.88,0.35
0.75,-0.94,0.3
0.75,-0.97,0.25
0.77,-0.96,0.23
0.79,-0.95,0.26
0.75,-0.93,0.3
0.71,-0.92,0.32
0.67,-0.92,0.34
0.63,-0.91,0.35
0.58,-0.91,0.34
0.53,-0.9,0.33
0.5,-0.89,0.32
0.46,-0.89,0.29
0.45,-0.89,0.24
0.45,-0.92,0.23
0.46,-0.96,0.21
0.46,-1,0.19
0.45,-1.03,0.15
0.44,-1.04,0.12
0.43,-1.04,0.09
0.42,-1.06,0.08
0.42,-1.12,0.07
0.41,-1.2,0.05
0.39,-1.24,0.04
0.38,-1.22,0.05
0.37,-1.18,0.09
0.35,-1.13,0.12
0.33,-1.08,0.14
0.31,-1.05,0.16
0.3,-1.07,0.21
0.28,-1.21,0.23
0.23,-1.27,0.17
0.19,-1.3,0.09
0.19,-1.3,0.02
0.24,-1.23,-0.01
0.3,-1.15,-0.01
0.34,-1.1,-0.01
0.37,-1.12,0
0.42,-1.16,0.05
0.45,-1.25,0.08
0.46,-1.33,0.07
0.45,-1.36,0.04
0.43,-1.34,0.01
0.42,-1.3,-0.02
0.41,-1.28,-0.04
0.39,-1.27,-0.06
0.38,-1.27,-0.07
0.39,-1.27,-0.07
0.39,-1.25,-0.06
0.41,-1.22,-0.04
0.43,-1.2,-0.04
0.44,-1.2,-0.05
0.45,-1.17,-0.06
0.45,-1.14,-0.06
0.44,-1.1,-0.04
0.43,-1.07,-0.02
0.42,-1.01,0
0.41,-0.99,0
0.4,-0.98,-0.01
0.42,-0.97,-0.01
0.45,-0.96,-0.01
0.48,-0.95,-0.02
0.48,-0.95,0
0.48,-0.95,0.03
0.47,-0.93,0.06
0.47,-0.91,0.06
0.46,-0.89,0.04
0.44,-0.86,0.02
0.42,-0.83,0.01
0.42,-0.79,0
0.41,-0.76,0
0.41,-0.73,0.01
0.41,-0.71,0.02
0.42,-0.69,0.05
0.42,-0.67,0.08
0.4,-0.66,0.09
0.38,-0.66,0.07
0.37,-0.65,0.07
0.36,-0.64,0.06
0.36,-0.63,0.05
0.35,-0.63,0.04
0.35,-0.62,0.05
0.34,-0.6,0.06
0.35,-0.59,0.06
0.35,-0.59,0.07
0.35,-0.59,0.08
0.35,-0.6,0.08
0.35,-0.61,0.08
0.34,-0.62,0.09
0.33,-0.63,0.1
0.33,-0.64,0.1
0.33,-0.72,0.12
0.33,-0.77,0.12
0.33,-0.82,0.11
0.32,-0.86,0.1
0.32,-0.89,0.09
0.31,-0.98,0.08
0.3,-1.03,0.08
0.3,-1.08,0.08
0.3,-1.08,0.08
0.31,-1.06,0.1
0.31,-1.03,0.12
0.29,-1,0.15
0.28,-0.99,0.15
0.29,-0.98,0.16
0.29,-0.95,0.16
0.3,-0.97,0.15
0.31,-1,0.13
0.31,-1.03,0.11
0.31,-1.05,0.09
0.3,-1.08,0.08
0.29,-1.11,0.07
0.29,-1.16,0.08
0.28,-1.21,0.07
0.26,-1.24,0.05
0.24,-1.26,0.02
0.22,-1.26,0
0.23,-1.24,0
0.23,-1.21,0
0.22,-1.21,0
0.2,-1.22,0
0.19,-1.23,0
0.19,-1.24,0
0.19,-1.26,-0.01
0.17,-1.28,-0.03
0.16,-1.28,-0.06
0.14,-1.29,-0.09
0.1,-1.31,-0.13
0.07,-1.33,-0.16
0.06,-1.32,-0.18
0.07,-1.29,-0.18
0.09,-1.25,-0.11
0.15,-1.26,-0.1
0.16,-1.26,-0.1
0.16,-1.25,-0.12
0.14,-1.24,-0.15
0.12,-1.24,-0.17
0.09,-1.23,-0.17
0.07,-1.21,-0.16
0.08,-1.18,-0.14
0.09,-1.16,-0.12
0.1,-1.15,-0.1
0.1,-1.14,-0.11
0.1,-1.13,-0.11
0.09,-1.12,-0.09
0.1,-1.1,-0.07
0.1,-1.08,-0.06
0.09,-1.07,-0.07
0.07,-1.06,-0.07
0.06,-1.06,-0.07
0.07,-1.04,-0.06
0.07,-1.04,-0.03
0.05,-1.04,-0.01
0.04,-1.05,0
0.04,-1.05,0.01
0.04,-1.02,0.01
0.04,-1,0.05
0.04,-0.99,0.06
0.03,-0.98,0.07
0,-0.96,0.08
-0.01,-0.95,0.1
0.01,-0.93,0.11
0.05,-0.91,0.13
0.06,-0.88,0.13
0.09,-0.83,0.15
0.13,-0.78,0.18
0.18,-0.73,0.23
0.22,-0.72,0.28
0.25,-0.73,0.3
0.25,-0.74,0.29
0.23,-0.73,0.27
0.2,-0.7,0.25
0.21,-0.68,0.25
0.25,-0.65,0.29
0.3,-0.61,0.36
0.32,-0.6,0.41
0.35,-0.6,0.41
0.33,-0.6,0.39
0.28,-0.61,0.38
0.32,-0.59,0.36
0.43,-0.53,0.36
0.5,-0.45,0.38
0.53,-0.41,0.41
0.54,-0.39,0.39
0.51,-0.39,0.33
0.49,-0.38,0.28
0.48,-0.38,0.29
0.48,-0.45,0.34
0.52,-0.53,0.39
0.53,-0.63,0.4
0.52,-0.7,0.32
0.52,-0.71,0.21
0.52,-0.76,0.14
0.52,-0.86,0.12
0.52,-0.97,0.13
0.55,-1.06,0.14
0.58,-1.16,0.18
0.6,-1.32,0.16
0.61,-1.52,0.1
0.62,-1.69,0.03
0.63,-1.84,-0.05
0.61,-1.99,-0.09
0.63,-2.09,-0.11
0.62,-2.19,-0.08
0.56,-2.31,-0.05
0.51,-2.52,-0.19
0.52,-2.45,-0.28
0.6,-2.15,-0.24
0.61,-2.13,-0.13
0.58,-2.53,-0.11
0.44,-2.38,-0.23
0.29,-2.11,-1.2
0.1,-2.17,-1.3
0.15,-2.22,-0.46
0.2,-2.29,-0.45
-0.14,-2.65,-0.45
-0.49,-2.51,-0.45
-0.71,-2.11,-0.59
-0.82,-1.83,-0.65
-0.75,-1.56,-0.81
-1,-1.81,-1.33
-1.25,-1.98,-1.73
0.4,-0.82,0.36
0.54,-0.89,0.88
0.55,-0.83,0.84
0.6,-0.93,0.56
0.31,-0.87,0.31
0.6,-0.96,0.37
0.38,-0.76,0.24
0.3,-0.54,0.1
0.55,-0.77,0.36
0.64,-1,0.71
0.59,-0.83,0.86
0.63,-0.55,0.83
0.49,-0.35,0.56
0.97,-0.4,0.64
1.54,-0.51,0.9
0.37,-1.53,0.13
-0.06,-1.53,0.13
-0.49,-1.56,-0.07
-0.53,-1.39,-0.01
-0.29,-0.98,0.29
0.48,-0.58,0.49
1.09,-0.3,0.47
0.93,-0.54,0.43
0.2,-1.11,0.33
-0.51,-1.29,0.1
-0.8,-1.25,-0.07
-0.62,-1.23,-0.04
-0.25,-1.04,0.09
-0.1,-0.82,0.22
-0.02,-0.85,0.25
-0.02,-1.03,0.12
-0.06,-1.13,0
-0.05,-1.18,-0.07
-0.05,-1.16,-0.09
-0.06,-1.07,-0.03
-0.05,-1.04,0.03
-0.02,-1.03,0.06
0.02,-0.99,0.13
0.05,-1.04,0.12
0.02,-1.06,0.12
0.03,-0.96,0.31
0.05,-0.89,0.33
0,-0.92,0.24
0.01,-0.99,0.42
-0.06,-1.08,0.49
-0.24,-1.05,0.5
-0.34,-0.97,0.46
-0.32,-0.92,0.38
-0.2,-0.9,0.28
0,-0.93,0.19
0.13,-0.97,0.14
0.16,-1.01,0.15
0.1,-1.01,0.19
-0.01,-0.98,0.23
-0.12,-0.96,0.26
-0.19,-0.93,0.29
-0.2,-0.92,0.31
-0.17,-0.93,0.35
-0.15,-0.96,0.39
-0.15,-0.98,0.4
-0.14,-0.98,0.36
-0.13,-0.98,0.32
-0.12,-0.98,0.27
-0.1,-0.98,0.23
-0.06,-0.99,0.21
-0.01,-1,0.18
0.03,-1,0.16
0.05,-1,0.15
0.04,-1.01,0.14
0.02,-1.01,0.16
-0.01,-1.01,0.18
-0.05,-0.99,0.21
-0.06,-0.98,0.22
-0.07,-0.98,0.22
-0.09,-0.98,0.23
-0.11,-0.98,0.25
-0.13,-0.97,0.28
-0.12,-0.97,0.28
-0.12,-0.97,0.28
-0.12,-0.97,0.28
-0.11,-0.97,0.27
-0.12,-0.97,0.27
-0.12,-0.97,0.27
-0.13,-0.97,0.28
-0.13,-0.97,0.28
-0.13,-0.97,0.29
-0.12,-0.97,0.28
-0.11,-0.97,0.27
-0.11,-0.98,0.27
-0.11,-0.98,0.27
-0.1,-0.98,0.27
-0.1,-0.98,0.27
-0.1,-0.98,0.27
-0.1,-0.98,0.26
-0.1,-0.98,0.26
-0.09,-0.98,0.25
-0.09,-0.98,0.25
-0.09,-0.98,0.25
-0.09,-0.98,0.25
-0.09,-0.98,0.25
-0.09,-0.98,0.25
-0.09,-0.98,0.25
-0.09,-0.98,0.25
-0.09,-0.98,0.25
-0.09,-0.98,0.25
-0.09,-0.98,0.26
-0.09,-0.98,0.26
-0.1,-0.98,0.26
-0.1,-0.98,0.26
-0.1,-0.98,0.26
-0.1,-0.98,0.26
-0.1,-0.98,0.26
-0.1,-0.98,0.26
-0.1,-0.98,0.26
-0.1,-0.97,0.26
-0.1,-0.98,0.26
-0.1,-0.98,0.26
-0.1,-0.98,0.26
-0.1,-0.98,0.26
-0.1,-0.98,0.26
-0.1,-0.98,0.26
-0.1,-0.98,0.26
-0.1,-0.98,0.26
-0.1,-0.98,0.26
-0.1,-0.98,0.26
-0.1,-0.98,0.26
-0.1,-0.98,0.26
-0.1,-0.98,0.26
-0.1,-0.98,0.26
-0.1,-0.98,0.25
-0.09,-0.98,0.25
-0.09,-0.98,0.26
-0.09,-0.98,0.26
-0.09,-0.98,0.26
-0.1,-0.98,0.26
-0.1,-0.98,0.26
-0.1,-0.98,0.25
-0.1,-0.98,0.26
-0.1,-0.98,0.26
-0.1,-0.98,0.25
-0.1,-0.98,0.25
-0.1,-0.98,0.25
-0.1,-0.98,0.25
-0.09,-0.98,0.25
-0.09,-0.98,0.25
-0.1,-0.98,0.25
-0.1,-0.97,0.25
-0.1,-0.98,0.25
-0.09,-0.99,0.25
-0.09,-0.99,0.25
-0.09,-0.99,0.25
-0.09,-0.98,0.25
-0.1,-0.98,0.25
-0.09,-0.98,0.26
-0.09,-0.98,0.26
-0.09,-0.99,0.27
-0.1,-0.98,0.27
-0.1,-0.98,0.27
-0.11,-0.97,0.27
-0.11,-0.98,0.27
-0.11,-0.98,0.27
-0.1,-0.98,0.27
-0.1,-0.98,0.27
-0.1,-0.98,0.27
-0.11,-0.98,0.26
-0.1,-0.98,0.26
-0.09,-0.98,0.26
-0.1,-0.98,0.26
-0.1,-0.98,0.26
-0.09,-0.98,0.26
-0.09,-0.98,0.26
-0.1,-0.98,0.26
-0.1,-0.98,0.26
-0.1,-0.98,0.26
-0.1,-0.98,0.26
-0.09,-0.98,0.26
-0.1,-0.98,0.26
-0.1,-0.98,0.26
-0.1,-0.98,0.26
-0.1,-0.98,0.26
-0.1,-0.98,0.26
-0.09,-0.98,0.26
-0.09,-0.98,0.25
-0.09,-0.98,0.26
-0.1,-0.98,0.26
-0.09,-0.98,0.25
-0.09,-0.98,0.25
-0.09,-0.98,0.25
-0.09,-0.98,0.25
-0.09,-0.98,0.25
-0.09,-0.98,0.25
-0.09,-0.98,0.25
-0.09,-0.98,0.25
-0.09,-0.98,0.25
-0.09,-0.98,0.25
-0.09,-0.98,0.25
-0.09,-0.99,0.25
-0.09,-0.99,0.25
-0.09,-0.98,0.25
-0.09,-0.98,0.25
-0.09,-0.98,0.25
-0.09,-0.98,0.25
-0.09,-0.98,0.25
-0.09,-0.98,0.25
-0.09,-0.98,0.25
-0.09,-0.98,0.25
-0.09,-0.98,0.25
-0.09,-0.98,0.25
-0.09,-0.98,0.25
-0.09,-0.98,0.25
-0.09,-0.98,0.25
-0.09,-0.98,0.25
-0.09,-0.98,0.25
-0.09,-0.98,0.25
-0.09,-0.98,0.25
-0.09,-0.98,0.25
-0.09,-0.98,0.25
-0.09,-0.98,0.25
-0.09,-0.98,0.25
-0.09,-0.98,0.25
-0.09,-0.98,0.25
-0.09,-0.98,0.25
-0.09,-0.98,0.25
-0.09,-0.98,0.25
-0.08,-0.98,0.25
-0.09,-0.98,0.25
-0.09,-0.98,0.25
-0.09,-0.98,0.25
-0.09,-0.98,0.25
-0.1,-0.98,0.25
-0.1,-0.98,0.24
-0.09,-0.98,0.24
-0.09,-0.99,0.24
-0.09,-0.99,0.24
-0.09,-0.99,0.24
-0.08,-0.99,0.24
-0.08,-0.98,0.24
-0.08,-0.98,0.24
-0.08,-0.99,0.24
-0.08,-0.99,0.24
-0.08,-0.99,0.25
-0.08,-0.99,0.25
-0.08,-0.98,0.25
-0.09,-0.98,0.25
-0.09,-0.98,0.25
-0.09,-0.99,0.24
-0.09,-0.99,0.24
-0.09,-0.99,0.24
-0.09,-0.98,0.24
-0.09,-0.98,0.24
-0.08,-0.98,0.24
-0.08,-0.99,0.24
-0.08,-0.99,0.24
-0.08,-0.99,0.24
-0.08,-0.98,0.24
-0.08,-0.98,0.24
-0.08,-0.98,0.24
-0.09,-0.98,0.24
-0.09,-0.98,0.24
-0.09,-0.98,0.24
-0.09,-0.98,0.25
-0.09,-0.98,0.25
-0.09,-0.98,0.25
-0.09,-0.98,0.24
-0.09,-0.98,0.24
-0.09,-0.98,0.24
-0.09,-0.98,0.24
-0.09,-0.98,0.24
-0.09,-0.98,0.24
-0.08,-0.98,0.24
-0.09,-0.99,0.24
-0.09,-0.98,0.24
-0.09,-0.98,0.24
-0.09,-0.98,0.24
-0.09,-0.98,0.24
-0.08,-0.99,0.24
-0.08,-0.99,0.24
-0.08,-0.99,0.24
-0.08,-0.99,0.24
-0.08,-0.99,0.25
-0.09,-0.98,0.25
-0.09,-0.98,0.25
-0.09,-0.98,0.24
-0.08,-0.98,0.24
-0.08,-0.99,0.24
-0.08,-0.99,0.24
-0.08,-0.98,0.24
-0.09,-0.98,0.24
-0.09,-0.98,0.24
-0.09,-0.98,0.24
-0.09,-0.99,0.24
-0.08,-0.99,0.25
-0.08,-0.99,0.25
-0.08,-0.99,0.25
-0.08,-0.99,0.25
-0.08,-0.98,0.24
-0.09,-0.98,0.24
-0.09,-0.99,0.24
-0.09,-0.98,0.24
-0.09,-0.98,0.24
-0.09,-0.98,0.24
-0.09,-0.98,0.24
-0.08,-0.98,0.24
-0.08,-0.98,0.25
-0.08,-0.98,0.25
-0.08,-0.98,0.25
-0.08,-0.98,0.25
-0.08,-0.98,0.25
-0.08,-0.98,0.25
-0.08,-0.99,0.25
-0.09,-0.98,0.25
-0.08,-0.98,0.25
-0.08,-0.98,0.25
-0.08,-0.98,0.25
-0.08,-0.99,0.25
-0.08,-0.98,0.25
-0.08,-0.98,0.25
-0.09,-0.98,0.25
-0.09,-0.98,0.25
-0.09,-0.98,0.24
-0.08,-0.98,0.25
-0.09,-0.99,0.25
-0.09,-0.99,0.25
-0.08,-0.98,0.24
-0.08,-0.98,0.25
-0.08,-0.98,0.25
-0.08,-0.98,0.25
-0.08,-0.98,0.25
-0.09,-0.98,0.25
-0.09,-0.98,0.25
-0.08,-0.99,0.25
-0.08,-0.99,0.25
-0.08,-0.99,0.25
-0.08,-0.99,0.25
-0.08,-0.98,0.25
-0.08,-0.98,0.25
-0.08,-0.98,0.25
-0.08,-0.98,0.25
-0.09,-0.99,0.25
-0.09,-0.98,0.25
-0.08,-0.98,0.25
-0.08,-0.98,0.25
-0.09,-0.98,0.25
-0.09,-0.99,0.25
-0.09,-0.98,0.25
-0.08,-0.98,0.25
-0.08,-0.98,0.25
-0.08,-0.98,0.25
-0.09,-0.98,0.25
-0.09,-0.98,0.24
-0.08,-0.98,0.24
-0.08,-0.98,0.25
-0.08,-0.99,0.25
-0.09,-0.99,0.25
-0.08,-0.98,0.24
-0.08,-0.98,0.24
-0.08,-0.98,0.24
-0.08,-0.98,0.24
-0.08,-0.98,0.24
-0.08,-0.99,0.25
-0.08,-0.98,0.25
-0.08,-0.98,0.24
-0.08,-0.99,0.25
-0.08,-0.99,0.25
-0.08,-0.99,0.25
-0.08,-0.98,0.25
-0.08,-0.98,0.25
-0.09,-0.98,0.25
-0.08,-0.98,0.25
-0.08,-0.98,0.25
-0.08,-0.99,0.25
-0.09,-0.99,0.25
-0.09,-0.98,0.25
-0.09,-0.98,0.25
-0.09,-0.98,0.25
-0.09,-0.98,0.25
-0.08,-0.98,0.25
-0.08,-0.99,0.25
-0.08,-0.98,0.25
-0.08,-0.98,0.25
-0.08,-0.98,0.25
-0.09,-0.98,0.25
-0.09,-0.98,0.25
-0.08,-0.98,0.25
-0.08,-0.98,0.25
-0.08,-0.98,0.25
-0.08,-0.98,0.25
-0.08,-0.98,0.25
-0.08,-0.98,0.25
-0.08,-0.98,0.25
-0.08,-0.98,0.25
-0.08,-0.98,0.25
-0.09,-0.98,0.25
-0.08,-0.98,0.24
-0.09,-0.99,0.25
-0.09,-0.98,0.25
-0.09,-0.98,0.25
-0.08,-0.98,0.25
-0.08,-0.98,0.25
-0.09,-0.98,0.25
-0.08,-0.98,0.25
-0.08,-0.98,0.24
-0.08,-0.98,0.25
-0.08,-0.98,0.25
-0.09,-0.98,0.25
-0.09,-0.98,0.25
-0.09,-0.98,0.25
-0.09,-0.98,0.25
-0.09,-0.98,0.25
-0.09,-0.99,0.25
-0.08,-0.99,0.25
-0.08,-0.98,0.25
-0.09,-0.98,0.25
-0.09,-0.98,0.25
-0.09,-0.98,0.25
-0.09,-0.98,0.25
-0.08,-0.98,0.25
-0.09,-0.98,0.25
-0.09,-0.98,0.25
-0.09,-0.98,0.25
-0.08,-0.98,0.25
-0.09,-0.98,0.25
-0.09,-0.98,0.25
-0.09,-0.98,0.25
-0.08,-0.98,0.25
-0.08,-0.98,0.25
-0.08,-0.98,0.25
-0.08,-0.98,0.25
-0.09,-0.98,0.25
-0.09,-0.98,0.25
-0.09,-0.98,0.25
-0.09,-0.98,0.25
-0.09,-0.98,0.25
-0.08,-0.98,0.25
-0.08,-0.98,0.25
-0.09,-0.98,0.25
-0.09,-0.98,0.25
-0.09,-0.98,0.25
-0.09,-0.98,0.25
-0.09,-0.98,0.25
-0.09,-0.98,0.25
-0.09,-0.98,0.25
-0.08,-0.99,0.25
-0.08,-0.98,0.25
-0.09,-0.98,0.25
-0.09,-0.98,0.25
-0.09,-0.98,0.25
-0.08,-0.98,0.25
-0.09,-0.98,0.25
-0.09,-0.98,0.25
-0.09,-0.98,0.25
-0.09,-0.98,0.25
-0.09,-0.98,0.25
-0.09,-0.98,0.25
-0.09,-0.98,0.25
-0.08,-0.98,0.25
-0.08,-0.98,0.25
-0.09,-0.98,0.25
-0.09,-0.98,0.25
-0.08,-0.98,0.25
-0.08,-0.98,0.25
-0.09,-0.98,0.25
-0.09,-0.98,0.25
-0.09,-0.98,0.25
-0.09,-0.98,0.25
-0.09,-0.98,0.25
-0.09,-0.99,0.25
-0.09,-0.98,0.25
-0.09,-0.98,0.25
-0.09,-0.98,0.25
-0.09,-0.98,0.25
-0.09,-0.98,0.25
-0.09,-0.98,0.25
-0.09,-0.98,0.25
-0.09,-0.98,0.25
-0.09,-0.98,0.25
-0.09,-0.98,0.25
-0.09,-0.98,0.25
-0.09,-0.99,0.25
-0.08,-0.99,0.25
-0.08,-0.98,0.25
-0.09,-0.98,0.25
-0.09,-0.98,0.25
-0.09,-0.98,0.25
-0.09,-0.98,0.25
-0.09,-0.98,0.25
-0.09,-0.98,0.25
-0.09,-0.98,0.25
-0.09,-0.98,0.25
-0.08,-0.98,0.25
-0.08,-0.98,0.25
-0.08,-0.99,0.25
-0.09,-0.99,0.25
-0.08,-0.98,0.25
-0.09,-0.98,0.25
-0.09,-0.98,0.25
-0.09,-0.98,0.25
-0.09,-0.98,0.25
-0.09,-0.98,0.25
-0.08,-0.98,0.25
-0.08,-0.98,0.25
-0.09,-0.98,0.25
-0.09,-0.98,0.25
-0.09,-0.99,0.25
-0.09,-0.99,0.25
-0.09,-0.98,0.25
-0.09,-0.99,0.25
-0.09,-0.99,0.25
-0.09,-0.98,0.25
-0.09,-0.98,0.25
-0.09,-0.98,0.25
-0.09,-0.98,0.25
-0.09,-0.98,0.25
-0.09,-0.98,0.25
-0.09,-0.98,0.25
-0.09,-0.98,0.25
-0.09,-0.98,0.25
-0.09,-0.98,0.25
-0.09,-0.98,0.25
-0.09,-0.98,0.25
-0.09,-0.98,0.25
-0.09,-0.98,0.25
-0.09,-0.98,0.25
-0.09,-0.98,0.25
-0.09,-0.98,0.25
-0.09,-0.99,0.25
-0.09,-0.99,0.25
-0.09,-0.98,0.25
-0.09,-0.98,0.25
-0.09,-0.98,0.25
-0.09,-0.98,0.25
-0.09,-0.99,0.25
-0.09,-0.98,0.25
-0.09,-0.98,0.25
-0.09,-0.98,0.25
-0.09,-0.98,0.25
-0.09,-0.98,0.25
-0.09,-0.98,0.25
-0.09,-0.98,0.25
-0.1,-0.98,0.25
-0.1,-0.98,0.25
-0.1,-0.98,0.25
-0.09,-0.98,0.25
-0.09,-0.98,0.25
-0.09,-0.98,0.25
-0.1,-0.98,0.25
-0.09,-0.98,0.25
-0.09,-0.98,0.26
-0.1,-0.98,0.26
-0.09,-0.98,0.25
-0.09,-0.98,0.25
-0.09,-0.98,0.25
-0.09,-0.98,0.25
-0.09,-0.98,0.25
-0.09,-0.98,0.25
-0.09,-0.98,0.25
-0.09,-0.98,0.25
-0.09,-0.98,0.25
-0.09,-0.98,0.25
-0.09,-0.98,0.25
-0.09,-0.98,0.25
-0.09,-0.98,0.25
-0.09,-0.98,0.25
-0.09,-0.98,0.25
-0.09,-0.98,0.25
-0.1,-0.98,0.25
-0.09,-0.98,0.25
-0.09,-0.98,0.25
-0.09,-0.98,0.25
-0.09,-0.98,0.25
-0.09,-0.98,0.25
-0.09,-0.98,0.25
-0.09,-0.98,0.25
-0.09,-0.98,0.25
-0.09,-0.98,0.25
-0.09,-0.98,0.25
-0.09,-0.98,0.25
-0.09,-0.98,0.25
-0.09,-0.98,0.25
-0.09,-0.98,0.25
-0.09,-0.98,0.26
-0.09,-0.98,0.26
-0.09,-0.98,0.26
-0.09,-0.98,0.26
-0.09,-0.98,0.25
-0.09,-0.98,0.25
-0.09,-0.98,0.26
-0.09,-0.98,0.26
-0.09,-0.98,0.25
-0.09,-0.98,0.25
-0.09,-0.98,0.25
-0.09,-0.98,0.25
-0.09,-0.98,0.25
-0.09,-0.98,0.25
-0.09,-0.98,0.26
-0.09,-0.98,0.26
-0.09,-0.98,0.26
-0.09,-0.98,0.26
-0.09,-0.98,0.26
-0.09,-0.98,0.26
-0.1,-0.98,0.26
-0.1,-0.98,0.26
-0.09,-0.98,0.26
-0.09,-0.98,0.26
-0.09,-0.98,0.26
-0.09,-0.98,0.26
-0.09,-0.98,0.25
-0.09,-0.98,0.26
-0.09,-0.98,0.26
-0.09,-0.98,0.26
-0.09,-0.98,0.26
-0.09,-0.98,0.26
-0.1,-0.98,0.26
-0.1,-0.98,0.25
-0.09,-0.98,0.25
-0.09,-0.98,0.26
-0.09,-0.98,0.26
-0.09,-0.98,0.25
-0.09,-0.98,0.25
-0.1,-0.98,0.25
-0.1,-0.98,0.25
-0.09,-0.98,0.25
-0.09,-0.98,0.25
-0.09,-0.98,0.25
-0.1,-0.98,0.25
-0.1,-0.98,0.25
-0.09,-0.98,0.25
-0.09,-0.98,0.25
-0.09,-0.98,0.25
-0.09,-0.98,0.25
-0.09,-0.98,0.25
-0.1,-0.97,0.25
-0.1,-0.97,0.25
-0.1,-0.97,0.25
-0.09,-0.98,0.26
-0.1,-0.98,0.26
-0.09,-0.98,0.26
-0.09,-0.98,0.27
-0.1,-0.98,0.27
-0.1,-0.97,0.27
-0.11,-0.97,0.28
-0.1,-0.97,0.28
-0.1,-0.96,0.27
-0.11,-0.97,0.27
-0.12,-0.97,0.28
-0.11,-0.97,0.3
-0.1,-0.97,0.3
-0.09,-0.98,0.29
-0.08,-0.97,0.28
-0.08,-0.96,0.27
-0.08,-0.97,0.27
-0.08,-0.98,0.28
-0.07,-0.97,0.28
-0.06,-0.97,0.27
-0.04,-0.98,0.26
-0.02,-0.99,0.25
-0.03,-0.99,0.25
-0.03,-0.98,0.26
-0.04,-0.97,0.26
-0.02,-0.97,0.26
0,-0.98,0.28
0.02,-0.98,0.29
0.01,-0.97,0.3
0,-0.97,0.31
-0.01,-0.97,0.33
-0.01,-0.98,0.34
-0.02,-0.97,0.33
0.02,-0.96,0.33
0.05,-0.97,0.33
0.05,-0.97,0.34
0.07,-0.97,0.34
0.09,-0.96,0.32
0.09,-0.97,0.27
0.06,-0.97,0.26
0.08,-0.97,0.3
0.11,-0.97,0.32
0.09,-0.96,0.32
0.08,-0.95,0.32
0.08,-0.94,0.33
0.09,-0.95,0.35
0.12,-0.95,0.38
0.15,-0.96,0.39
0.15,-0.95,0.37
0.14,-0.95,0.37
0.13,-0.95,0.37
0.13,-0.94,0.37
0.15,-0.95,0.38
0.13,-0.94,0.39
0.16,-0.94,0.4
0.16,-0.93,0.39
0.14,-0.91,0.39
0.16,-0.92,0.39
0.18,-0.93,0.37
0.19,-0.92,0.37
0.2,-0.92,0.38
0.19,-0.92,0.37
0.23,-0.9,0.42
0.23,-0.91,0.43
0.25,-0.91,0.42
0.23,-0.9,0.42
0.22,-0.89,0.41
0.22,-0.87,0.42
0.16,-0.93,0.37
0.16,-0.93,0.37
0.2,-0.91,0.37
0.29,-0.88,0.36
0.31,-0.92,0.37
0.24,-0.95,0.38
0.34,-0.86,0.41
0.27,-0.87,0.4
0.26,-0.88,0.37
0.31,-0.89,0.38
0.34,-0.88,0.41
0.35,-0.87,0.43
0.32,-0.84,0.4
0.3,-0.85,0.39
0.29,-0.85,0.42
0.36,-0.85,0.49
0.45,-0.86,0.52
0.42,-0.83,0.45
0.44,-0.83,0.44
0.41,-0.87,0.48
0.29,-0.91,0.39
0.29,-0.82,0.49
0.4,-0.71,0.58
0.53,-0.74,0.61
0.44,-0.72,0.7
0.45,-0.75,0.65
0.44,-0.78,0.52
0.36,-0.8,0.35
0.4,-0.71,0.37
0.6,-0.57,0.57
0.51,-0.64,0.55
0.55,-0.65,0.62
0.56,-0.66,0.63
0.56,-0.6,0.64
0.6,-0.54,0.7
0.66,-0.58,0.71
0.48,-0.89,0.79
0.46,-0.91,0.82
0.43,-0.9,0.83
0.65,-0.87,0.84
1.03,-0.93,0.84
0.99,-1.11,0.27
1.04,-1.04,0.3
1.01,-0.96,0.39
0.99,-0.91,0.54
0.96,-0.87,0.66
0.9,-0.79,0.7
0.88,-0.74,0.7
0.89,-0.72,0.68
0.89,-0.71,0.63
0.85,-0.68,0.6
0.42,-0.25,0.68
0.4,-0.16,0.59
0.34,-0.11,0.51
0.28,-0.09,0.47
0.27,-0.11,0.5
0.25,-0.26,0.54
0.23,-0.28,0.54
0.26,-0.25,0.53
0.28,-0.23,0.55
0.27,-0.24,0.57
0.27,-0.26,0.56
0.27,-0.28,0.54
0.27,-0.29,0.55
0.29,-0.27,0.59
0.31,-0.26,0.61
0.31,-0.23,0.59
0.33,-0.19,0.6
0.35,-0.18,0.63
0.37,-0.2,0.67
0.43,-0.25,0.69
0.5,-0.27,0.69
0.52,-0.26,0.64
0.43,-0.24,0.58
0.37,-0.2,0.59
0.36,-0.15,0.61
0.36,-0.16,0.63
0.41,-0.2,0.67
0.49,-0.25,0.7
0.55,-0.31,0.76
0.59,-0.34,0.85
0.61,-0.33,0.84
0.57,-0.29,0.81
0.53,-0.25,0.78
0.53,-0.24,0.77
0.57,-0.27,0.78
0.61,-0.29,0.82
0.66,-0.3,0.89
0.67,-0.31,0.95
0.64,-0.29,0.99
0.56,-0.27,0.99
0.45,-0.26,0.94
0.32,-0.27,0.85
0.26,-0.29,0.75
0.28,-0.3,0.69
0.34,-0.3,0.71
0.37,-0.28,0.79
0.34,-0.27,0.92
0.29,-0.29,1.07
0.29,-0.3,1.2
0.29,-0.33,1.3
0.28,-0.36,1.35
0.31,-0.39,1.32
0.47,-0.48,1.35
0.57,-0.52,1.37
0.65,-0.58,1.39
0.66,-0.63,1.38
0.57,-0.64,1.32
0.32,-0.72,0.15
0.32,-0.72,0.15
0.39,-0.72,0.14
0.43,-0.7,0.14
0.4,-0.71,0.14
0.38,-0.69,0.15
0.38,-0.64,0.16
0.34,-0.64,0.16
0.3,-0.65,0.14
0.28,-0.64,0.11
0.28,-0.64,0.11
0.29,-0.63,0.09
0.29,-0.66,0.06
0.3,-0.69,0.07
0.32,-0.69,0.07
0.35,-0.7,0.07
0.35,-0.71,0.07
0.34,-0.72,0.03
0.32,-0.72,0.01
0.28,-0.73,-0.01
0.25,-0.74,-0.01
0.26,-0.76,-0.03
0.32,-0.75,-0.04
0.35,-0.72,-0.05
0.37,-0.75,-0.06
0.38,-0.77,-0.06
0.38,-0.77,-0.05
0.38,-0.78,-0.04
0.37,-0.82,-0.04
0.37,-0.85,-0.06
0.36,-0.84,-0.06
0.34,-0.85,-0.06
0.34,-0.87,-0.07
0.34,-0.88,-0.07
0.35,-0.88,-0.07
0.37,-0.88,-0.07
0.39,-0.87,-0.08
0.4,-0.89,-0.08
0.4,-0.9,-0.08
0.39,-0.91,-0.07
0.38,-0.94,-0.07
0.38,-0.92,-0.07
0.37,-0.89,-0.07
0.36,-0.9,-0.09
0.35,-0.89,-0.09
0.36,-0.86,-0.09
0.37,-0.87,-0.08
0.38,-0.9,-0.08
0.38,-0.93,-0.07
0.38,-0.96,-0.06
0.38,-0.97,-0.04
0.38,-0.96,-0.03
0.37,-0.96,-0.03
0.36,-1,-0.02
0.35,-1,-0.03
0.34,-1.01,-0.04
0.33,-1.06,-0.06
0.33,-1.1,-0.07
0.34,-1.08,-0.07
0.3,-1.08,-0.05
0.27,-1.08,-0.04
0.27,-0.98,0.01
0.25,-0.85,0.09
0.24,-0.79,0.15
0.21,-0.79,0.19
0.17,-0.8,0.22
0.13,-0.81,0.23
0.11,-0.89,0.21
0.11,-1.02,0.15
0.17,-1.27,0.05
0.15,-1.33,0.04
0.13,-1.34,0.06
0.12,-1.31,0.11
0.1,-1.28,0.13
0.08,-1.3,0.13
0.07,-1.3,0.15
0.1,-1.27,0.18
0.12,-1.24,0.19
0.13,-1.19,0.21
0.13,-1.14,0.21
0.1,-1.09,0.2
0.08,-1.03,0.2
0.07,-0.98,0.19
0.02,-0.94,0.18
-0.02,-0.9,0.19
-0.05,-0.86,0.22
-0.05,-0.83,0.24
-0.06,-0.81,0.25
-0.09,-0.79,0.25
-0.11,-0.76,0.24
-0.1,-0.74,0.22
-0.08,-0.75,0.21
-0.06,-0.79,0.2
-0.04,-0.83,0.19
-0.02,-0.85,0.18
0.02,-0.86,0.18
0.04,-0.87,0.18
0.06,-0.88,0.18
0.08,-0.89,0.18
0.09,-0.89,0.19
0.12,-0.89,0.2
0.15,-0.89,0.22
0.16,-0.9,0.23
0.18,-0.92,0.24
0.22,-0.93,0.23
0.25,-0.92,0.23
0.26,-0.9,0.23
0.27,-0.88,0.22
0.29,-0.86,0.22
0.3,-0.84,0.23
0.33,-0.82,0.24
0.37,-0.83,0.23
0.41,-0.85,0.23
0.42,-0.87,0.22
0.42,-0.88,0.23
0.41,-0.88,0.23
0.43,-0.86,0.23
0.45,-0.85,0.23
0.47,-0.85,0.23
0.48,-0.84,0.23
0.49,-0.83,0.23
0.5,-0.82,0.24
0.5,-0.81,0.24
0.5,-0.81,0.25
0.49,-0.81,0.24
0.49,-0.83,0.23
0.49,-0.84,0.21
0.5,-0.85,0.2
0.49,-0.86,0.2
0.46,-0.87,0.2
0.47,-0.89,0.19
0.47,-0.94,0.19
0.48,-1,0.18
0.51,-1.07,0.17
0.55,-1.16,0.15
0.59,-1.25,0.14
0.58,-1.32,0.15
0.57,-1.34,0.13
0.56,-1.36,0.09
0.54,-1.36,0.05
0.53,-1.32,0.04
0.52,-1.29,0.06
0.49,-1.28,0.07
0.48,-1.24,0.1
0.46,-1.19,0.13
0.44,-1.18,0.12
0.42,-1.18,0.1
0.39,-1.22,0.08
0.38,-1.25,0.07
0.37,-1.24,0.05
0.35,-1.21,0.03
0.35,-1.17,0.03
0.34,-1.14,0.03
0.32,-1.09,0.03
0.31,-1.04,0.04
0.3,-1,0.05
0.31,-0.99,0.06
0.33,-0.99,0.07
0.33,-0.99,0.05
0.32,-0.94,0.05
0.32,-0.87,0.06
0.32,-0.84,0.06
0.31,-0.81,0.06
0.31,-0.77,0.06
0.31,-0.74,0.07
0.32,-0.74,0.08
0.33,-0.77,0.07
0.35,-0.79,0.05
0.39,-0.78,0.03
0.39,-0.77,0.02
0.38,-0.75,0.01
0.4,-0.71,0.01
0.45,-0.69,0.02
0.52,-0.73,0.09
0.53,-0.76,0.1
0.54,-0.77,0.1
0.55,-0.76,0.1
0.55,-0.73,0.09
0.57,-0.7,0.08
0.6,-0.65,0.08
0.62,-0.59,0.08
0.64,-0.55,0.1
0.69,-0.54,0.13
0.75,-0.58,0.16
0.81,-0.63,0.17
0.84,-0.65,0.18
0.83,-0.64,0.18
0.83,-0.61,0.18
0.84,-0.56,0.17
0.85,-0.51,0.16
0.84,-0.44,0.17
0.86,-0.39,0.2
0.91,-0.38,0.22
0.92,-0.37,0.24
0.93,-0.35,0.26
0.93,-0.32,0.28
0.94,-0.31,0.31
0.94,-0.3,0.36
0.95,-0.29,0.41
0.97,-0.24,0.42
0.93,-0.22,0.42
0.88,-0.19,0.43
0.89,-0.16,0.42
0.92,-0.15,0.42
0.91,-0.16,0.44
0.92,-0.16,0.47
0.92,-0.15,0.51
0.92,-0.16,0.54
0.93,-0.16,0.55
0.95,-0.16,0.55
0.95,-0.18,0.54
0.94,-0.19,0.53
0.9,-0.17,0.54
0.87,-0.14,0.57
0.89,-0.14,0.59
0.89,-0.15,0.62
0.88,-0.16,0.64
0.84,-0.17,0.65
0.82,-0.18,0.66
0.79,-0.2,0.66
0.77,-0.22,0.67
0.76,-0.23,0.68
0.75,-0.23,0.69
0.7,-0.21,0.69
0.64,-0.18,0.69
0.6,-0.12,0.65
0.61,-0.1,0.66
0.6,-0.1,0.74
0.61,-0.09,0.76
0.65,-0.08,0.78
0.66,-0.07,0.78
0.63,-0.05,0.78
0.6,-0.03,0.78
0.6,-0.02,0.78
0.58,-0.03,0.79
0.59,-0.03,0.81
0.61,-0.05,0.84
0.62,-0.06,0.86
0.61,-0.06,0.88
0.58,-0.04,0.87
0.56,-0.03,0.85
0.56,-0.02,0.82
0.57,-0.01,0.8
0.59,0,0.81
0.58,0,0.83
0.55,0.03,0.84
0.52,0.06,0.85
0.49,0.1,0.85
0.47,0.13,0.85
0.45,0.16,0.84
0.44,0.18,0.89
0.46,0.16,0.92
0.49,0.14,0.95
0.51,0.14,0.96
0.52,0.16,0.97
0.49,0.17,0.98
0.45,0.18,0.98
0.4,0.2,0.99
0.34,0.21,0.98
0.28,0.23,0.96
0.24,0.24,0.93
0.19,0.27,0.91
0.14,0.28,0.88
0.11,0.29,0.87
0.11,0.29,0.9
0.14,0.28,0.94
0.21,0.28,0.96
0.23,0.28,0.97
0.22,0.27,0.96
0.2,0.28,0.96
0.12,0.27,0.99
0.12,0.27,1
0.12,0.27,0.98
0.09,0.26,1
0.13,0.26,0.98
0.19,0.26,0.93
0.18,0.24,0.94
0.1,0.3,0.92
0.02,0.32,0.93
0.03,0.32,0.98
0.04,0.26,1.04
0.04,0.24,1.05
0.07,0.27,1.02
0.06,0.3,0.99
0.03,0.31,0.96
0,0.31,0.94
0.01,0.32,0.92
-0.02,0.35,0.92
-0.07,0.33,0.94
-0.07,0.3,0.97
-0.05,0.31,0.96
-0.05,0.33,0.94
-0.05,0.34,0.93
-0.07,0.34,0.93
-0.06,0.36,0.92
-0.05,0.38,0.92
-0.09,0.36,0.93
-0.04,0.34,0.92
0,0.33,0.93
-0.01,0.31,0.94
0,0.31,0.94
0.04,0.31,0.93
0.05,0.31,0.94
-0.01,0.3,0.94
0.02,0.3,0.92
-0.01,0.32,0.91
-0.02,0.3,0.91
0.01,0.28,0.91
0.03,0.3,0.92
0.03,0.32,0.95
