Acc_x,Acc_y,Acc_z
0,0,0
0,0,0
0,0,0
0,0,0
0,0,0
0,0,0
0,0,0
0,0,0
0,0,0
0,0,0
0,0,0
0,0,0
0,0,0
0,0,0
0,0,0
0,0,0
0,0,0
0,0,0
0,0,0
0,0,0
0,0,0
0,0,0
0,0,0
0,0,0
0,0,0
0,0,0
0,0,0
0,0,0
0,0,0
0,0,0
0,0,0
0,0,0
0,0,0
0,0,0
0,0,0
0,0,0
0,0,0
0,0,0
0,0,0
0,0,0
0,0,0
0,0,0
0,0,0
0,0,0
0,0,0
0,0,0
0,0,0
0,0,0
0,0,0
0,0,0
0,0,0
0,0,0
0,0,0
0,0,0
0,0,0
0,0,0
0,0,0
0,0,0
0,0,0
0,0,0
0,0,0
0,0,0
0,0,0
0,0,0
0,0,0
0,0,0
0,0,0
0,0,0
0,0,0
0,0,0
0,0,0
0,0,0
0,0,0
0,0,0
0,0,0
0,0,0
0,0,0
0,0,0
0,0,0
0,0,0
0,0,0
0,0,0
0,0,0
0,0,0
0,0,0
0,0,0
0,0,0
0,0,0
0,0,0
0,0,0
0,0,0
0,0,0
0,0,0
0,0,0
0,0,0
0,0,0
0,0,0
0,0,0
0,0,0
0,0,0
0,0,0
0,0,0
0,0,0
0,0,0
0,0,0
0,0,0
0,0,0
0,0,0
0,0,0
0,0,0
0,0,0
0,0,0
0,0,0
0,0,0
0,0,0
0,0,0
0,0,0
0,0,0
0,0,0
0,0,0
0,0,0
0,0,0
0,0,0
0,0,0
0,0,0
0,0,0
0,0,0
0,0,0
0,0,0
0,0,0
0,0,0
0,0,0
0,0,0
0,0,0
0,0,0
0,0,0
0,0,0
0,0,0
0,0,0
0,0,0
0,0,0
0,0,0
0,0,0
0,0,0
0,0,0
0,0,0
0,0,0
0,0,0
0,0,0
0,0,0
0,0,0
0,0,0
0,0,0
0,0,0
0,0,0
0,0,0
0,0,0
0,0,0
0,0,0
0,0,0
0,0,0
0,0,0
0,0,0
0,0,0
0,0,0
0,0,0
0,0,0
0,0,0
0,0,0
0,0,0
0,0,0
0,0,0
0,0,0
0,0,0
0,0,0
0,0,0
0,0,0
0,0,0
0,0,0
0,0,0
0,0,0
0,0,0
0,0,0
0,0,0
0,0,0
0,0,0
0,0,0
0,0,0
0,0,0
0,0,0
0,0,0
0,0,0
0,0,0
0,0,0
0,0,0
0,0,0
0,0,0
0,0,0
0,0,0
0,0,0
0,0,0
0,0,0
0,0,0
0,0,0
0,0,0
0,0,0
0,0,0
0,0,0
0,0,0
0,0,0
0,0,0
0,0,0
0,0,0
0,0,0
0,0,0
0,0,0
0,0,0
0,0,0
0,0,0
0,0,0
0,0,0
0,0,0
0,0,0
0,0,0
0,0,0
0,0,0
0,0,0
0,0,0
0,0,0
0,0,0
0,0,0
0,0,0
0,0,0
0,0,0
0,0,0
0,0,0
0,0,0
0,0,0
0,0,0
0,0,0
0,0,0
0,0,0
0,0,0
0,0,0
0,0,0
0,0,0
0,0,0
0,0,0
0,0,0
0,0,0
0,0,0
0,0,0
0,0,0
0,0,0
0,0,0
0,0,0
0,0,0
0,0,0
0,0,0
0,0,0
0,0,0
0,0,0
0,0,0
0,0,0
0,0,0
0,0,0
0,0,0
0,0,0
0,0,0
0,0,0
0,0,0
0,0,0
0,0,0
0,0,0
0,0,0
0,0,0
0,0,0
0,0,0
0,0,0
0,0,0
0,0,0
0,0,0
0,0,0
0,0,0
0,0,0
0,0,0
0,0,0
0,0,0
0,0,0
0,0,0
0,0,0
0,0,0
0,0,0
0,0,0
0,0,0
0,0,0
0,0,0
0,0,0
0,0,0
0,0,0
0,0,0
0,0,0
0,0,0
0,0,0
0,0,0
0,0,0
0,0,0
0,0,0
0,0,0
0,0,0
0,0,0
0,0,0
0,0,0
0,0,0
0,0,0
0,0,0
0,0,0
0,0,0
0,0,0
0,0,0
0,0,0
0,0,0
0,0,0
0,0,0
0,0,0
0,0,0
0,0,0
0,0,0
0,0,0
0,0,0
0,0,0
0,0,0
0,0,0
0,0,0
0,0,0
0,0,0
0,0,0
0,0,0
0,0,0
0,0,0
0,0,0
0,0,0
0,0,0
0,0,0
0,0,0
0,0,0
0,0,0
0,0,0
0,0,0
0,0,0
0,0,0
0,0,0
0,0,0
0,0,0
0,0,0
0,0,0
0,0,0
0,0,0
0,0,0
0,0,0
0,0,0
0,0,0
0,0,0
0,0,0
0,0,0
0,0,0
0,0,0
0,0,0
0,0,0
0,0,0
0,0,0
0,0,0
0,0,0
0,0,0
0,0,0
0,0,0
0,0,0
0,0,0
0,0,0
0,0,0
0,0,0
0,0,0
0,0,0
0,0,0
0,0,0
0,0,0
0,0,0
0,0,0
0,0,0
0,0,0
0,0,0
0,0,0
0,0,0
0,0,0
0,0,0
0,0,0
0,0,0
0,0,0
0,0,0
0,0,0
0,0,0
0,0,0
0,0,0
0,0,0
0,0,0
0,0,0
0,0,0
0,0,0
0,0,0
0,0,0
0,0,0
0,0,0
0,0,0
0,0,0
0,0,0
0,0,0
0,0,0
0,0,0
0,0,0
0,0,0
0,0,0
0,0,0
0,0,0
0,0,0
0,0,0
0,0,0
0,0,0
0,0,0
0,0,0
0,0,0
0,0,0
0,0,0
0,0,0
0,0,0
0,0,0
0,0,0
0,0,0
0,0,0
0,0,0
0,0,0
0,0,0
0,0,0
0,0,0
0,0,0
0,0,0
0,0,0
0,0,0
0,0,0
0,0,0
0,0,0
0,0,0
0,0,0
0,0,0
0,0,0
0,0,0
0,0,0
0,0,0
0,0,0
0,0,0
0,0,0
0,0,0
0,0,0
0,0,0
0,0,0
0,0,0
0,0,0
0,0,0
0,0,0
0,0,0
0,0,0
0,0,0
0,0,0
0,0,0
0,0,0
0,0,0
0,0,0
0,0,0
0,0,0
0,0,0
0,0,0
0,0,0
0,0,0
0,0,0
0,0,0
0,0,0
0,0,0
0,0,0
0,0,0
0,0,0
0,0,0
0,0,0
0,0,0
0,0,0
0,0,0
0,0,0
0,0,0
0,0,0
0,0,0
0,0,0
0,0,0
0,0,0
0,0,0
0,0,0
0,0,0
0,0,0
0,0,0
0,0,0
0,0,0
0,0,0
0,0,0
0,0,0
0,0,0
0,0,0
0,0,0
0,0,0
0,0,0
0,0,0
0,0,0
0,0,0
0,0,0
0,0,0
0,0,0
0,0,0
0,0,0
0,0,0
0,0,0
0,0,0
0,0,0
0,0,0
0,0,0
0,0,0
0,0,0
0,0,0
0,0,0
0,0,0
0,0,0
0,0,0
0,0,0
0,0,0
0,0,0
0,0,0
0,0,0
0,0,0
0,0,0
0,0,0
0,0,0
0,0,0
0,0,0
0,0,0
0,0,0
0,0,0
0,0,0
0,0,0
0,0,0
0,0,0
0,0,0
0,0,0
0,0,0
0,0,0
0,0,0
0,0,0
0,0,0
0,0,0
0,0,0
0,0,0
0,0,0
0,0,0
0,0,0
0,0,0
0,0,0
0,0,0
0,0,0
0,0,0
0,0,0
0,0,0
0,0,0
0,0,0
0,0,0
0,0,0
0,0,0
0,0,0
0,0,0
0,0,0
0,0,0
0,0,0
0,0,0
0,0,0
0,0,0
0,0,0
0,0,0
0,0,0
0,0,0
0,0,0
0,0,0
0,0,0
0,0,0
0,0,0
0,0,0
0,0,0
0,0,0
0,0,0
0,0,0
0,0,0
0,0,0
0,0,0
0,0,0
0,0,0
0,0,0
0,0,0
0,0,0
0,0,0
0,0,0
0,0,0
0,0,0
0,0,0
0,0,0
0,0,0
0,0,0
0,0,0
0,0,0
0,0,0
0,0,0
0,0,0
0,0,0
0,0,0
0,0,0
0,0,0
0,0,0
0,0,0
0,0,0
0,0,0
0,0,0
0,0,0
0,0,0
0,0,0
0,0,0
0,0,0
0,0,0
0,0,0
0,0,0
0,0,0
0,0,0
0,0,0
0,0,0
0,0,0
0,0,0
0,0,0
0,0,0
0,0,0
0,0,0
0,0,0
0,0,0
0,0,0
0,0,0
0,0,0
0,0,0
0,0,0
0,0,0
0,0,0
0,0,0
0,0,0
0,0,0
0,0,0
0,0,0
0,0,0
0,0,0
0,0,0
0,0,0
0,0,0
0,0,0
0,0,0
0,0,0
0,0,0
0,0,0
0,0,0
0,0,0
0,0,0
0,0,0
0,0,0
0,0,0
0,0,0
0,0,0
0,0,0
0,0,0
0,0,0
0,0,0
0,0,0
0,0,0
0,0,0
0,0,0
0,0,0
0,0,0
0,0,0
0,0,0
0,0,0
0,0,0
0,0,0
0,0,0
0,0,0
0,0,0
0,0,0
0,0,0
0,0,0
0,0,0
0,0,0
0,0,0
0,0,0
0,0,0
0,0,0
0,0,0
0,0,0
0,0,0
0,0,0
0,0,0
0,0,0
0,0,0
0,0,0
0,0,0
0,0,0
0,0,0
0,0,0
0,0,0
0,0,0
0,0,0
0,0,0
0,0,0
0,0,0
0,0,0
0,0,0
0,0,0
0,0,0
0,0,0
0,0,0
0,0,0
0,0,0
0,0,0
0,0,0
0,0,0
0,0,0
0,0,0
0,0,0
0,0,0
0,0,0
0,0,0
0,0,0
0,0,0
0,0,0
0,0,0
0,0,0
0,0,0
0,0,0
0,0,0
0,0,0
0,0,0
0,0,0
0,0,0
0,0,0
0,0,0
0,0,0
0,0,0
0,0,0
0,0,0
0,0,0
0,0,0
0,0,0
0,0,0
0,0,0
0,0,0
0,0,0
0.17,0.35,0.92
0.17,0.35,0.92
0.16,0.35,0.92
0.16,0.35,0.92
0.17,0.35,0.92
0.16,0.35,0.92
0.16,0.35,0.92
0.17,0.35,0.92
0.17,0.35,0.92
0.17,0.35,0.92
0.17,0.35,0.92
0.17,0.35,0.92
0.17,0.35,0.92
0.16,0.34,0.92
0.17,0.35,0.92
0.17,0.35,0.92
0.17,0.35,0.92
0.17,0.35,0.92
0.17,0.35,0.92
0.17,0.35,0.92
0.17,0.35,0.92
0.17,0.34,0.92
0.17,0.34,0.92
0.17,0.35,0.92
0.17,0.35,0.92
0.17,0.35,0.92
0.16,0.35,0.92
0.16,0.35,0.92
0.16,0.35,0.92
0.17,0.35,0.92
0.17,0.35,0.92
0.17,0.35,0.92
0.17,0.35,0.92
0.17,0.35,0.92
0.17,0.35,0.92
0.17,0.35,0.92
0.16,0.34,0.92
0.16,0.35,0.92
0.16,0.35,0.92
0.16,0.35,0.92
0.17,0.35,0.92
0.17,0.34,0.92
0.17,0.35,0.92
0.17,0.35,0.92
0.17,0.35,0.92
0.17,0.35,0.92
0.16,0.35,0.92
0.17,0.35,0.92
0.17,0.35,0.92
0.17,0.35,0.92
0.17,0.35,0.92
0.18,0.35,0.92
0.18,0.34,0.92
0.18,0.34,0.92
0.18,0.34,0.93
0.17,0.34,0.93
0.17,0.34,0.93
0.17,0.34,0.93
0.16,0.34,0.94
0.17,0.33,0.94
0.18,0.32,0.94
0.16,0.33,0.95
0.15,0.33,0.96
0.15,0.32,0.97
0.19,0.32,0.97
0.23,0.31,0.97
0.25,0.3,0.98
0.26,0.3,0.99
0.25,0.29,0.99
0.27,0.28,0.99
0.32,0.14,1.04
0.35,0.1,0.98
0.33,0.19,0.88
0.29,0.18,0.88
0.26,0.15,0.87
0.26,0.15,0.88
0.26,0.15,0.91
0.25,0.14,0.94
0.26,0.15,0.95
0.28,0.15,0.96
0.29,0.16,0.95
0.29,0.16,0.94
0.28,0.15,0.95
0.29,0.14,0.96
0.3,0.14,0.96
0.3,0.14,0.96
0.3,0.14,0.96
0.29,0.14,0.96
0.29,0.15,0.96
0.28,0.16,0.93
0.26,0.17,0.89
0.26,0.19,0.85
0.27,0.2,0.83
0.27,0.2,0.84
0.26,0.21,0.86
0.24,0.22,0.87
0.2,0.22,0.87
0.19,0.23,0.87
0.2,0.24,0.87
0.22,0.26,0.86
0.23,0.26,0.86
0.22,0.26,0.86
0.21,0.27,0.88
0.19,0.28,0.9
0.18,0.29,0.91
0.22,0.29,0.92
0.25,0.3,0.92
0.28,0.3,0.91
0.27,0.31,0.88
0.25,0.32,0.86
0.27,0.31,0.85
0.29,0.31,0.84
0.33,0.31,0.84
0.33,0.32,0.85
0.32,0.33,0.89
0.31,0.34,0.92
0.29,0.34,0.92
0.28,0.35,0.91
0.26,0.36,0.89
0.23,0.36,0.85
0.23,0.34,0.81
0.23,0.34,0.78
0.25,0.31,0.77
0.3,0.28,0.8
0.37,0.24,0.86
0.42,0.21,0.93
0.43,0.19,1.01
0.42,0.02,0.94
0.43,0.11,0.93
0.46,0.23,1.18
0.56,0.14,1.51
0.66,0.27,1.61
0.58,0.33,1.42
0.42,0.25,1.26
0.27,0.2,1.05
0.27,0.15,0.91
0.37,0.12,0.79
0.43,0.09,0.74
0.45,0.07,0.75
0.44,0.05,0.81
0.42,0.03,0.88
0.42,0.02,0.93
0.44,0.03,0.97
0.46,0.04,0.98
0.47,0.05,0.97
0.46,0.05,0.94
0.45,0.04,0.9
0.44,0.02,0.88
0.43,0.01,0.88
0.45,0.01,0.9
0.48,0.01,0.92
0.49,0.02,0.92
0.48,0.03,0.92
0.46,0.03,0.91
0.46,0.03,0.91
0.47,0.03,0.91
0.48,0.02,0.91
0.48,0.02,0.92
0.47,0.02,0.93
0.46,0.02,0.93
0.46,0.02,0.91
0.46,0.03,0.9
0.46,0.04,0.89
0.48,0.03,0.9
0.49,0.02,0.9
0.46,0.03,0.9
0.45,0.03,0.91
0.45,0.03,0.92
0.44,0.04,0.93
0.43,0.04,0.93
0.44,0.04,0.92
0.44,0.05,0.91
0.43,0.05,0.9
0.43,0.05,0.9
0.44,0.05,0.9
0.45,0.05,0.92
0.46,0.05,0.93
0.46,0.06,0.93
0.46,0.06,0.93
0.46,0.07,0.92
0.45,0.07,0.91
0.45,0.07,0.9
0.45,0.07,0.89
0.45,0.08,0.89
0.45,0.08,0.88
0.46,0.08,0.88
0.48,0.08,0.89
0.47,0.09,0.89
0.47,0.1,0.88
0.47,0.1,0.88
0.47,0.11,0.87
0.46,0.11,0.87
0.46,0.11,0.86
0.48,0.11,0.86
0.49,0.11,0.87
0.49,0.12,0.87
0.49,0.13,0.87
0.48,0.13,0.87
0.47,0.13,0.87
0.46,0.13,0.87
0.46,0.14,0.87
0.46,0.15,0.87
0.45,0.16,0.87
0.44,0.17,0.87
0.43,0.19,0.88
0.42,0.21,0.88
0.43,0.22,0.88
0.44,0.24,0.88
0.43,0.25,0.89
0.42,0.26,0.9
0.39,0.28,0.9
0.37,0.29,0.9
0.37,0.29,0.9
0.38,0.31,0.88
0.4,0.32,0.88
0.41,0.33,0.88
0.4,0.34,0.88
0.39,0.34,0.89
0.39,0.35,0.89
0.4,0.35,0.9
0.41,0.34,0.89
0.43,0.34,0.89
0.44,0.34,0.89
0.43,0.33,0.88
0.43,0.32,0.87
0.44,0.3,0.87
0.45,0.29,0.87
0.46,0.28,0.86
0.46,0.28,0.85
0.45,0.27,0.83
0.44,0.27,0.83
0.44,0.27,0.82
0.45,0.27,0.82
0.46,0.26,0.81
0.48,0.26,0.81
0.5,0.25,0.8
0.52,0.23,0.8
0.54,0.22,0.8
0.57,0.21,0.81
0.64,0.19,0.84
0.66,0.19,0.85
0.67,0.18,0.85
0.69,0.17,0.86
0.72,0.16,0.89
0.75,0.13,0.91
0.76,0.11,0.92
0.76,0.09,0.93
0.75,0.06,0.91
0.74,0.03,0.89
0.74,0.01,0.87
0.75,0,0.84
0.76,-0.02,0.8
0.76,-0.03,0.76
0.76,-0.03,0.73
0.77,-0.04,0.71
0.8,-0.05,0.7
0.84,-0.07,0.7
0.88,-0.1,0.71
0.9,-0.12,0.72
0.91,-0.15,0.71
0.93,-0.19,0.71
0.95,-0.24,0.7
0.96,-0.3,0.69
0.97,-0.35,0.68
0.96,-0.4,0.67
0.95,-0.5,0.65
0.93,-0.55,0.66
0.97,-0.6,0.68
1,-0.62,0.69
0.99,-0.62,0.67
0.95,-0.61,0.64
0.91,-0.59,0.62
0.86,-0.56,0.6
0.83,-0.54,0.58
0.78,-0.52,0.56
0.76,-0.51,0.55
0.75,-0.5,0.57
0.71,-0.49,0.57
0.65,-0.48,0.55
0.6,-0.46,0.53
0.57,-0.45,0.5
0.53,-0.44,0.45
0.49,-0.44,0.41
0.47,-0.42,0.4
0.44,-0.41,0.4
0.41,-0.41,0.4
0.41,-0.41,0.42
0.41,-0.4,0.44
0.38,-0.4,0.44
0.36,-0.39,0.43
0.32,-0.37,0.39
0.25,-0.36,0.31
0.22,-0.38,0.31
0.26,-0.38,0.31
0.31,-0.39,0.32
0.34,-0.39,0.33
0.33,-0.41,0.33
0.32,-0.45,0.34
0.32,-0.47,0.33
0.33,-0.49,0.32
0.35,-0.53,0.3
0.37,-0.56,0.29
0.38,-0.58,0.27
0.39,-0.59,0.25
0.39,-0.61,0.24
0.38,-0.64,0.24
0.39,-0.69,0.23
0.41,-0.74,0.22
0.43,-0.77,0.22
0.43,-0.81,0.22
0.43,-0.85,0.23
0.42,-0.89,0.23
0.42,-0.92,0.24
0.41,-0.91,0.26
0.39,-0.92,0.24
0.38,-0.97,0.19
0.38,-0.96,0.15
0.38,-0.96,0.13
0.39,-0.99,0.14
0.39,-1.03,0.14
0.41,-1.06,0.17
0.4,-1.08,0.17
0.35,-1.08,0.13
0.37,-1.09,0.17
0.39,-1.13,0.22
0.28,-1.23,0.19
0.17,-1.36,0.19
0.22,-1.35,0.17
0.26,-1.31,0.13
0.28,-1.31,0.08
0.32,-1.3,0.02
0.31,-1.3,0
0.32,-1.28,-0.02
0.36,-1.26,-0.02
0.4,-1.26,-0.01
0.41,-1.26,0
0.41,-1.25,0.01
0.41,-1.25,0.02
0.38,-1.25,0.02
0.36,-1.24,0.02
0.34,-1.21,0.02
0.33,-1.17,0.02
0.34,-1.13,0.03
0.34,-1.12,0.05
0.36,-1.09,0.06
0.36,-1.09,0.06
0.36,-1.09,0.07
0.35,-1.1,0.07
0.35,-1.09,0.07
0.36,-1.06,0.05
0.36,-1.02,0.04
0.36,-0.98,0.03
0.37,-0.95,0.04
0.38,-0.93,0.06
0.38,-0.98,0.1
0.36,-1.07,0.14
0.34,-1.12,0.15
0.31,-1.09,0.14
0.28,-1.05,0.13
0.27,-1.01,0.11
0.27,-0.97,0.09
0.28,-0.93,0.06
0.29,-0.89,0.05
0.3,-0.85,0.06
0.32,-0.84,0.08
0.33,-0.85,0.1
0.33,-0.88,0.13
0.32,-0.9,0.14
0.32,-0.91,0.15
0.33,-0.91,0.13
0.33,-0.9,0.12
0.33,-0.89,0.12
0.33,-0.89,0.12
0.33,-0.88,0.12
0.34,-0.87,0.12
0.35,-0.87,0.13
0.36,-0.87,0.13
0.37,-0.88,0.13
0.38,-0.88,0.13
0.39,-0.88,0.13
0.39,-0.89,0.13
0.41,-0.9,0.14
0.42,-0.9,0.14
0.44,-0.9,0.14
0.44,-0.9,0.14
0.45,-0.9,0.14
0.47,-0.89,0.14
0.5,-0.88,0.14
0.52,-0.89,0.13
0.53,-0.89,0.15
0.52,-0.89,0.18
0.52,-0.89,0.19
0.54,-0.87,0.2
0.56,-0.85,0.2
0.56,-0.86,0.2
0.56,-0.88,0.22
0.56,-0.85,0.22
0.56,-0.84,0.22
0.57,-0.84,0.23
0.59,-0.81,0.25
0.6,-0.81,0.26
0.59,-0.82,0.27
0.59,-0.81,0.29
0.6,-0.81,0.29
0.6,-0.81,0.28
0.59,-0.78,0.28
0.58,-0.77,0.28
0.57,-0.77,0.28
0.57,-0.76,0.28
0.58,-0.74,0.29
0.59,-0.72,0.29
0.59,-0.72,0.31
0.59,-0.71,0.32
0.59,-0.7,0.34
0.59,-0.69,0.35
0.59,-0.68,0.35
0.59,-0.67,0.34
0.59,-0.65,0.34
0.6,-0.64,0.34
0.6,-0.65,0.33
0.6,-0.65,0.33
0.61,-0.64,0.34
0.61,-0.62,0.35
0.62,-0.6,0.36
0.63,-0.59,0.35
0.63,-0.6,0.34
0.63,-0.6,0.34
0.62,-0.59,0.35
0.62,-0.6,0.34
0.61,-0.61,0.34
0.6,-0.62,0.35
0.59,-0.63,0.34
0.59,-0.64,0.34
0.6,-0.67,0.32
0.61,-0.72,0.31
0.61,-0.77,0.29
0.6,-0.82,0.28
0.59,-0.85,0.28
0.57,-0.86,0.28
0.55,-0.87,0.28
0.54,-0.86,0.28
0.52,-0.86,0.27
0.52,-0.85,0.26
0.52,-0.84,0.24
0.52,-0.85,0.24
0.52,-0.86,0.25
0.52,-0.88,0.25
0.5,-0.89,0.26
0.49,-0.91,0.27
0.45,-0.91,0.27
0.43,-0.91,0.27
0.4,-0.91,0.25
0.38,-0.92,0.24
0.37,-0.9,0.24
0.35,-0.9,0.23
0.33,-0.91,0.21
0.31,-0.93,0.19
0.29,-0.96,0.2
0.27,-0.97,0.22
0.24,-0.98,0.23
0.24,-0.99,0.23
0.22,-0.98,0.22
0.2,-0.98,0.21
0.19,-0.97,0.2
0.18,-0.96,0.2
0.17,-0.97,0.2
0.18,-0.98,0.2
0.18,-1,0.21
0.17,-1.01,0.21
0.15,-1.02,0.2
0.13,-1.02,0.2
0.13,-1.04,0.2
0.13,-1.04,0.2
0.12,-1.04,0.2
0.12,-1.04,0.21
0.13,-1.04,0.21
0.12,-1.04,0.22
0.12,-1.04,0.21
0.13,-1.03,0.22
0.13,-1.03,0.22
0.13,-1.02,0.22
0.11,-1.01,0.22
0.11,-1.01,0.22
0.11,-1,0.22
0.11,-1.01,0.22
0.12,-1.01,0.22
0.12,-1.01,0.21
0.12,-1.01,0.2
0.11,-1.01,0.21
0.11,-1.02,0.21
0.11,-1.03,0.21
0.11,-1.04,0.21
0.11,-1.04,0.21
0.1,-1.04,0.2
0.1,-1.05,0.2
0.1,-1.05,0.2
0.1,-1.05,0.2
0.09,-1.05,0.19
0.09,-1.05,0.19
0.09,-1.04,0.18
0.08,-1.03,0.16
0.08,-0.99,0.16
0.08,-0.99,0.17
0.07,-0.99,0.16
0.07,-1,0.16
0.07,-1.02,0.15
0.06,-1.03,0.15
0.05,-1.03,0.14
0.05,-1.03,0.14
0.04,-1.03,0.12
0.04,-1.03,0.11
0.03,-1.03,0.1
0.03,-1.02,0.1
0.02,-1,0.1
0.02,-0.99,0.1
0.02,-0.99,0.09
0.02,-1,0.08
0.03,-1.01,0.08
0.04,-1.01,0.08
0.04,-1.01,0.09
0.04,-1.01,0.09
0.03,-1.01,0.09
0.03,-1.01,0.09
0.03,-1,0.08
0.04,-1.01,0.09
0.05,-1.02,0.1
0.05,-1.03,0.11
0.06,-1.02,0.12
0.07,-1.02,0.12
0.08,-1.01,0.13
0.08,-1,0.14
0.09,-0.99,0.14
0.09,-0.99,0.15
0.09,-0.99,0.16
0.09,-0.99,0.16
0.1,-0.99,0.17
0.11,-0.99,0.17
0.11,-0.99,0.18
0.11,-0.98,0.19
0.13,-0.98,0.19
0.14,-0.97,0.21
0.14,-0.96,0.21
0.13,-0.96,0.22
0.14,-0.95,0.21
0.15,-0.94,0.21
0.16,-0.94,0.22
0.17,-0.94,0.23
0.16,-0.94,0.25
0.15,-0.94,0.26
0.15,-0.93,0.27
0.16,-0.92,0.27
0.17,-0.93,0.28
0.17,-0.96,0.29
0.2,-1.12,0.29
0.22,-1.2,0.28
0.2,-1.25,0.27
0.16,-1.25,0.26
0.11,-1.22,0.24
0.06,-1.16,0.22
0.06,-1.11,0.22
0.07,-1.06,0.24
0.04,-1.03,0.27
-0.01,-1.01,0.3
-0.06,-0.99,0.32
-0.11,-0.98,0.33
-0.12,-0.97,0.31
-0.11,-0.95,0.29
-0.1,-0.94,0.26
-0.09,-0.93,0.25
-0.08,-0.92,0.24
-0.07,-0.92,0.24
-0.05,-0.92,0.25
-0.04,-0.91,0.25
-0.02,-0.9,0.24
0.02,-0.87,0.23
0.05,-0.83,0.22
0.1,-0.8,0.2
0.13,-0.82,0.2
0.13,-0.86,0.14
0.13,-0.85,0.13
0.14,-0.83,0.12
0.16,-0.84,0.1
0.16,-0.82,0.09
0.16,-0.82,0.11
0.15,-0.86,0.12
0.18,-0.92,0.13
0.22,-1.02,0.13
0.21,-1.08,0.07
0.2,-1.08,0.01
0.16,-1.05,-0.01
0.11,-1,0
0.14,-0.97,0
0.21,-0.92,0
0.26,-0.89,0.01
0.26,-0.89,0.02
0.26,-0.9,0.04
0.31,-0.94,0.02
0.36,-1,0
0.36,-1.02,-0.02
0.34,-1.02,-0.04
0.34,-1.01,-0.05
0.35,-0.96,-0.06
0.36,-0.92,-0.07
0.36,-0.91,-0.07
0.34,-0.88,-0.04
0.29,-0.83,-0.03
0.29,-0.82,-0.04
0.29,-0.77,-0.05
0.28,-0.74,-0.06
0.27,-0.71,-0.06
0.28,-0.66,-0.06
0.27,-0.6,-0.06
0.26,-0.54,-0.05
0.26,-0.5,-0.03
0.27,-0.46,-0.03
0.26,-0.43,-0.02
0.25,-0.37,0
0.24,-0.31,0
0.24,-0.25,0.02
0.25,-0.23,0.03
0.27,-0.27,0.04
0.27,-0.26,0.05
0.3,-0.22,0.07
0.35,-0.22,0.1
0.37,-0.25,0.13
0.36,-0.3,0.16
0.34,-0.33,0.2
0.33,-0.36,0.22
0.37,-0.34,0.18
0.4,-0.34,0.14
0.41,-0.41,0.14
0.56,-0.74,0.28
0.66,-0.75,0.29
0.68,-0.87,0.23
0.6,-0.83,0.25
0.58,-0.88,0.23
0.62,-0.98,0.24
0.67,-1.04,0.3
0.68,-1.05,0.34
0.65,-1.04,0.36
0.6,-1.08,0.3
0.58,-1.03,0.2
0.59,-1,0.17
0.56,-1.06,0.25
0.5,-1,0.34
0.42,-1.04,0.28
0.06,-0.87,0.3
0.07,-0.94,0.17
0.18,-1.24,0.06
-0.03,-1.31,0.13
-0.08,-1.42,-0.01
-0.28,-1.45,-0.26
-0.52,-1.52,-0.46
-0.7,-1.56,-0.67
-0.75,-0.22,-2.4
-0.59,-0.17,-3.27
0.79,-2.71,-0.24
3,-4,3.36
-2.27,-3.06,-0.61
-1.01,-2.23,-1.13
0.29,-2.16,1.32
-0.05,-1.34,1.17
1.56,-0.48,0.87
1.31,-0.29,0.27
0.78,-0.21,0.14
1.09,-0.23,0.24
1,-0.53,0.37
0.6,-0.94,0.45
0.36,-0.89,0.32
0.41,-0.83,-0.01
0.6,-0.93,0.13
0.57,-0.62,0.33
0.78,-0.56,0.42
0.79,-0.72,0.5
0.77,-0.69,0.6
0.73,-0.65,0.61
0.66,-0.71,0.6
0.67,-0.69,0.59
0.62,-0.79,0.62
0.66,-0.54,0.96
0.82,-0.17,0.65
0.9,-0.52,0.14
0.79,-0.75,0.11
0.64,-0.81,0.26
0.59,-0.69,0.28
0.64,-0.64,0.43
0.68,-0.69,0.61
0.51,-0.52,0.54
0.34,-0.65,0.37
0.1,-1.25,0.23
-0.18,-1.5,0.07
-0.17,-1.41,-0.01
0.02,-1.18,-0.05
0.22,-0.85,-0.02
0.52,-0.8,0.11
0.62,-0.96,0.22
0.44,-1.04,0.2
0.3,-1.04,0.13
0.26,-1.02,0.12
0.2,-1,0.15
0.12,-0.97,0.18
0.08,-0.88,0.18
0.1,-0.84,0.23
0.11,-0.95,0.29
0.09,-1.05,0.26
0.06,-1.06,0.2
0.06,-1.08,0.23
0.13,-1.08,0.29
0.2,-0.95,0.29
0.22,-0.85,0.28
0.19,-0.91,0.33
0.17,-0.94,0.4
0.18,-0.95,0.39
0.2,-0.95,0.37
0.18,-0.94,0.37
0.16,-0.93,0.39
0.16,-0.92,0.4
0.14,-0.91,0.42
0.1,-0.9,0.46
0.11,-0.93,0.48
0.12,-0.97,0.47
0.1,-0.94,0.46
0.1,-0.88,0.48
0.17,-0.87,0.49
0.18,-0.87,0.55
0.13,-0.91,0.62
0.2,-1.03,0.59
0.2,-1.05,0.57
0.13,-0.94,0.47
0.22,-0.8,0.32
0.53,-0.7,0.39
0.68,-0.57,0.45
0.31,-0.55,0.36
-0.1,-0.78,0.4
-0.21,-1.02,0.58
-0.15,-0.97,0.59
-0.06,-0.66,0.65
-0.19,-0.78,0.68
-0.26,-0.85,0.66
-0.29,-0.76,0.66
-0.3,-0.7,0.71
-0.19,-0.72,0.76
0.03,-0.73,0.81
0.04,-0.75,0.8
0,-0.83,0.73
0.06,-0.89,0.67
0.05,-0.81,0.65
0.1,-0.72,0.62
0.19,-0.72,0.62
0.16,-0.73,0.62
0.05,-0.77,0.6
-0.09,-0.87,0.6
-0.09,-0.88,0.62
-0.01,-0.83,0.66
0.09,-0.81,0.67
0.13,-0.79,0.69
0.06,-0.82,0.71
0.06,-0.8,0.72
0.12,-0.74,0.73
0.1,-0.73,0.72
0.14,-0.71,0.64
0.17,-0.69,0.71
-0.1,-0.74,0.8
-0.11,-0.78,0.8
-0.05,-0.76,0.77
0.02,-0.73,0.72
0.05,-0.75,0.68
0.05,-0.76,0.65
0.04,-0.73,0.6
0.04,-0.72,0.61
-0.01,-0.75,0.65
-0.09,-0.78,0.66
-0.09,-0.79,0.62
-0.1,-0.79,0.62
-0.18,-0.79,0.66
-0.22,-0.76,0.67
-0.23,-0.73,0.69
-0.29,-0.74,0.74
-0.32,-0.76,0.75
-0.29,-0.76,0.72
-0.2,-0.75,0.67
-0.07,-0.71,0.62
0.02,-0.69,0.6
0,-0.73,0.62
-0.02,-0.78,0.64
-0.01,-0.8,0.64
-0.01,-0.81,0.64
-0.01,-0.79,0.66
-0.04,-0.74,0.67
-0.03,-0.75,0.64
0,-0.77,0.65
0,-0.79,0.66
0.01,-0.8,0.67
0.04,-0.8,0.67
0.03,-0.8,0.65
0.02,-0.81,0.64
0.05,-0.8,0.65
0.08,-0.8,0.64
0.09,-0.81,0.63
0.08,-0.8,0.64
0.09,-0.8,0.65
0.1,-0.79,0.65
0.11,-0.78,0.66
0.11,-0.78,0.66
0.12,-0.77,0.66
0.12,-0.78,0.66
0.12,-0.78,0.66
0.11,-0.79,0.65
0.11,-0.79,0.65
0.1,-0.78,0.65
0.09,-0.78,0.65
0.09,-0.79,0.65
0.08,-0.79,0.65
0.08,-0.79,0.65
0.07,-0.78,0.65
0.07,-0.77,0.66
0.07,-0.78,0.66
0.06,-0.78,0.66
0.05,-0.77,0.66
0.04,-0.77,0.65
0.04,-0.77,0.65
0.04,-0.77,0.65
0.04,-0.77,0.65
0.04,-0.77,0.64
0.03,-0.76,0.65
0.04,-0.77,0.65
0.04,-0.77,0.65
0.04,-0.78,0.66
0.04,-0.77,0.66
0.03,-0.77,0.66
0.03,-0.76,0.67
0.03,-0.77,0.67
0.03,-0.77,0.66
0.03,-0.77,0.67
0.03,-0.76,0.67
0.03,-0.76,0.66
0.03,-0.76,0.66
0.03,-0.76,0.66
0.03,-0.76,0.67
0.03,-0.76,0.67
0.02,-0.76,0.66
0.03,-0.76,0.67
0.03,-0.76,0.67
0.03,-0.76,0.66
0.03,-0.76,0.66
0.04,-0.77,0.66
0.03,-0.77,0.67
0.03,-0.77,0.67
0.03,-0.76,0.67
0.03,-0.76,0.67
0.03,-0.76,0.67
0.03,-0.76,0.67
0.04,-0.76,0.67
0.04,-0.76,0.66
0.04,-0.77,0.66
0.04,-0.77,0.67
0.04,-0.77,0.67
0.03,-0.77,0.66
0.04,-0.76,0.66
0.04,-0.76,0.66
0.04,-0.77,0.66
0.05,-0.77,0.66
0.04,-0.77,0.67
0.04,-0.77,0.67
0.03,-0.77,0.67
0.03,-0.76,0.68
0.03,-0.76,0.67
0.03,-0.77,0.66
0.03,-0.77,0.66
0.03,-0.77,0.66
0.03,-0.77,0.66
0.03,-0.77,0.66
0.03,-0.77,0.65
0.03,-0.77,0.65
0.03,-0.77,0.66
0.04,-0.77,0.65
0.04,-0.77,0.66
0.03,-0.77,0.66
0.03,-0.77,0.66
0.03,-0.77,0.66
0.03,-0.77,0.66
0.03,-0.77,0.66
0.04,-0.77,0.66
0.04,-0.77,0.66
0.04,-0.77,0.66
0.04,-0.77,0.66
0.04,-0.77,0.66
0.04,-0.77,0.66
0.04,-0.77,0.66
0.04,-0.77,0.67
0.03,-0.77,0.67
0.04,-0.77,0.66
0.04,-0.77,0.66
0.04,-0.77,0.66
0.04,-0.77,0.66
0.04,-0.77,0.66
0.04,-0.77,0.65
0.04,-0.77,0.65
0.03,-0.77,0.65
0.03,-0.77,0.65
0.03,-0.77,0.65
0.03,-0.77,0.65
0.03,-0.77,0.65
0.03,-0.77,0.65
0.03,-0.77,0.65
0.03,-0.77,0.65
0.03,-0.77,0.65
0.04,-0.77,0.65
0.03,-0.77,0.65
0.03,-0.78,0.66
0.03,-0.78,0.65
0.03,-0.77,0.66
0.03,-0.77,0.66
0.04,-0.78,0.66
0.04,-0.78,0.66
0.03,-0.78,0.66
0.03,-0.77,0.65
0.03,-0.77,0.65
0.03,-0.77,0.65
0.04,-0.77,0.65
0.04,-0.78,0.64
0.04,-0.78,0.65
0.04,-0.78,0.65
0.03,-0.78,0.65
0.03,-0.78,0.65
0.03,-0.77,0.65
0.03,-0.78,0.65
0.03,-0.78,0.65
0.03,-0.78,0.65
0.03,-0.78,0.65
0.03,-0.78,0.66
0.03,-0.78,0.65
0.02,-0.78,0.65
0.02,-0.78,0.65
0.03,-0.78,0.65
0.03,-0.78,0.65
0.03,-0.78,0.65
0.03,-0.78,0.65
0.03,-0.78,0.65
0.02,-0.78,0.65
0.02,-0.78,0.65
0.02,-0.78,0.65
0.02,-0.78,0.65
0.03,-0.78,0.65
0.03,-0.78,0.65
0.03,-0.77,0.65
0.03,-0.78,0.65
0.03,-0.78,0.65
0.03,-0.78,0.65
0.03,-0.78,0.65
0.03,-0.78,0.65
0.02,-0.78,0.65
0.02,-0.78,0.65
0.03,-0.78,0.64
0.03,-0.78,0.64
0.03,-0.78,0.64
0.03,-0.78,0.64
0.03,-0.78,0.65
0.03,-0.78,0.65
0.02,-0.79,0.64
0.03,-0.78,0.64
0.03,-0.78,0.64
0.03,-0.78,0.64
0.03,-0.78,0.64
0.03,-0.78,0.65
0.03,-0.78,0.65
0.03,-0.78,0.65
0.03,-0.78,0.65
0.03,-0.78,0.65
0.03,-0.78,0.65
0.03,-0.78,0.65
0.03,-0.78,0.65
0.03,-0.78,0.65
0.03,-0.78,0.65
0.03,-0.78,0.65
0.03,-0.78,0.65
0.03,-0.78,0.66
0.03,-0.77,0.65
0.03,-0.77,0.65
0.03,-0.78,0.65
0.03,-0.77,0.65
0.03,-0.77,0.65
0.03,-0.78,0.65
0.03,-0.78,0.65
0.03,-0.78,0.65
0.03,-0.78,0.65
0.03,-0.77,0.65
0.03,-0.77,0.65
0.03,-0.77,0.65
0.03,-0.77,0.65
0.04,-0.78,0.65
0.04,-0.78,0.66
0.03,-0.78,0.66
0.03,-0.78,0.66
0.03,-0.78,0.66
0.03,-0.78,0.65
0.03,-0.78,0.66
0.03,-0.78,0.65
0.03,-0.78,0.65
0.03,-0.77,0.65
0.03,-0.78,0.66
0.02,-0.78,0.65
0.02,-0.77,0.65
0.02,-0.77,0.65
0.02,-0.78,0.65
0.03,-0.78,0.65
0.03,-0.77,0.66
0.03,-0.77,0.66
0.03,-0.77,0.66
0.03,-0.77,0.66
0.03,-0.77,0.66
0.03,-0.77,0.66
0.03,-0.77,0.66
0.03,-0.77,0.66
0.04,-0.77,0.66
0.04,-0.77,0.66
0.03,-0.77,0.66
0.03,-0.77,0.66
0.03,-0.77,0.66
0.03,-0.77,0.66
0.03,-0.77,0.65
0.03,-0.77,0.65
0.03,-0.78,0.66
0.03,-0.77,0.66
0.03,-0.77,0.66
0.03,-0.77,0.66
0.03,-0.77,0.66
0.03,-0.77,0.66
0.03,-0.77,0.65
0.03,-0.77,0.65
0.03,-0.77,0.66
0.03,-0.77,0.66
0.03,-0.77,0.66
0.03,-0.77,0.66
0.03,-0.77,0.66
0.03,-0.77,0.66
0.03,-0.77,0.66
0.03,-0.76,0.66
0.03,-0.77,0.66
0.03,-0.77,0.66
0.03,-0.77,0.66
0.03,-0.77,0.66
0.03,-0.77,0.66
0.04,-0.77,0.66
0.04,-0.77,0.66
0.04,-0.77,0.66
0.03,-0.77,0.67
0.04,-0.77,0.67
0.04,-0.77,0.67
0.03,-0.77,0.66
0.04,-0.77,0.66
0.04,-0.77,0.66
0.04,-0.77,0.66
0.04,-0.77,0.66
0.03,-0.76,0.67
0.03,-0.76,0.67
0.03,-0.77,0.66
0.03,-0.77,0.66
0.04,-0.77,0.66
0.04,-0.77,0.67
0.04,-0.77,0.66
0.04,-0.77,0.66
0.04,-0.77,0.66
0.04,-0.77,0.66
0.03,-0.77,0.66
0.04,-0.77,0.66
0.04,-0.76,0.66
0.03,-0.76,0.66
0.03,-0.77,0.66
0.03,-0.76,0.66
0.03,-0.77,0.66
0.04,-0.77,0.66
0.04,-0.77,0.66
0.04,-0.77,0.66
0.04,-0.77,0.67
0.04,-0.77,0.67
0.04,-0.77,0.67
0.04,-0.77,0.67
0.04,-0.77,0.67
0.04,-0.76,0.67
0.04,-0.76,0.66
0.04,-0.76,0.66
0.04,-0.76,0.66
0.04,-0.76,0.66
0.03,-0.77,0.66
0.03,-0.77,0.66
0.03,-0.77,0.67
0.03,-0.77,0.67
0.03,-0.77,0.66
0.03,-0.77,0.66
0.03,-0.77,0.66
0.03,-0.77,0.66
0.03,-0.76,0.66
0.03,-0.76,0.66
0.03,-0.77,0.66
0.03,-0.77,0.66
0.03,-0.77,0.66
0.03,-0.76,0.67
0.04,-0.76,0.67
0.04,-0.77,0.67
0.04,-0.76,0.67
0.04,-0.76,0.66
0.04,-0.76,0.66
0.04,-0.76,0.67
0.04,-0.76,0.67
0.04,-0.77,0.67
0.04,-0.77,0.67
0.04,-0.77,0.67
0.04,-0.76,0.67
0.04,-0.77,0.66
0.04,-0.77,0.66
0.04,-0.77,0.66
0.03,-0.77,0.66
0.04,-0.77,0.66
0.04,-0.77,0.66
0.03,-0.77,0.66
0.03,-0.77,0.66
0.03,-0.77,0.66
0.03,-0.76,0.66
0.03,-0.76,0.66
0.03,-0.77,0.67
0.03,-0.77,0.66
0.03,-0.77,0.66
0.03,-0.77,0.66
0.03,-0.77,0.66
0.03,-0.77,0.66
0.03,-0.76,0.66
0.03,-0.77,0.66
0.03,-0.77,0.66
0.03,-0.77,0.66
0.03,-0.77,0.66
0.03,-0.77,0.66
0.03,-0.77,0.66
0.03,-0.77,0.66
0.03,-0.77,0.66
0.03,-0.77,0.66
0.03,-0.77,0.66
0.03,-0.77,0.66
0.03,-0.77,0.66
0.03,-0.77,0.66
0.03,-0.77,0.66
0.03,-0.77,0.66
0.03,-0.77,0.66
0.03,-0.77,0.66
0.03,-0.77,0.66
0.03,-0.78,0.66
0.03,-0.78,0.66
0.03,-0.78,0.66
0.03,-0.77,0.67
0.03,-0.77,0.66
0.03,-0.77,0.66
0.03,-0.77,0.66
0.03,-0.78,0.65
0.03,-0.78,0.65
0.03,-0.77,0.65
0.03,-0.77,0.65
0.03,-0.78,0.65
0.02,-0.78,0.66
0.02,-0.78,0.65
0.02,-0.78,0.65
0.02,-0.77,0.65
0.03,-0.77,0.65
0.03,-0.77,0.65
0.03,-0.78,0.66
0.03,-0.78,0.65
0.03,-0.77,0.65
0.03,-0.78,0.65
0.03,-0.77,0.65
0.03,-0.77,0.65
0.03,-0.77,0.65
0.03,-0.77,0.65
0.03,-0.77,0.65
0.03,-0.78,0.65
0.03,-0.77,0.66
0.03,-0.77,0.66
0.03,-0.77,0.66
0.03,-0.77,0.65
0.03,-0.78,0.65
0.03,-0.77,0.66
0.03,-0.78,0.65
0.03,-0.78,0.65
0.03,-0.78,0.65
0.03,-0.78,0.65
0.02,-0.77,0.65
0.02,-0.78,0.65
0.02,-0.78,0.65
0.03,-0.78,0.65
0.03,-0.78,0.65
0.03,-0.78,0.65
0.03,-0.78,0.65
0.02,-0.78,0.65
0.02,-0.78,0.65
0.02,-0.78,0.65
0.02,-0.78,0.65
0.03,-0.78,0.65
0.03,-0.78,0.65
0.03,-0.78,0.65
0.03,-0.78,0.65
0.02,-0.78,0.65
0.02,-0.78,0.65
0.03,-0.78,0.65
0.03,-0.78,0.65
0.03,-0.78,0.65
0.03,-0.78,0.65
0.03,-0.78,0.65
0.03,-0.78,0.65
0.03,-0.78,0.65
0.03,-0.78,0.65
0.03,-0.78,0.65
0.03,-0.78,0.65
0.02,-0.78,0.65
0.02,-0.78,0.65
0.03,-0.78,0.65
0.03,-0.78,0.65
0.03,-0.78,0.65
0.03,-0.77,0.65
0.03,-0.77,0.65
0.03,-0.77,0.65
0.03,-0.77,0.66
0.03,-0.77,0.66
0.03,-0.77,0.66
0.03,-0.77,0.66
0.03,-0.78,0.65
0.03,-0.78,0.65
0.03,-0.78,0.65
0.03,-0.78,0.65
0.02,-0.78,0.65
0.02,-0.78,0.65
0.02,-0.78,0.65
0.03,-0.77,0.65
0.02,-0.77,0.65
0.02,-0.77,0.66
0.03,-0.78,0.65
0.03,-0.78,0.66
0.03,-0.78,0.65
0.03,-0.78,0.65
0.03,-0.78,0.65
0.03,-0.78,0.65
0.03,-0.78,0.65
0.03,-0.77,0.65
0.03,-0.78,0.65
0.03,-0.77,0.65
0.03,-0.77,0.65
0.03,-0.77,0.65
0.03,-0.77,0.65
0.03,-0.77,0.66
0.03,-0.77,0.66
0.03,-0.77,0.66
0.03,-0.77,0.66
0.03,-0.77,0.66
0.03,-0.77,0.66
0.03,-0.77,0.66
0.03,-0.77,0.66
0.03,-0.77,0.66
0.03,-0.77,0.66
0.03,-0.77,0.65
0.03,-0.77,0.65
0.03,-0.77,0.66
0.03,-0.77,0.66
0.03,-0.77,0.66
0.03,-0.77,0.66
0.03,-0.77,0.66
0.03,-0.77,0.66
0.03,-0.77,0.66
0.03,-0.77,0.66
0.03,-0.77,0.66
0.03,-0.77,0.66
0.03,-0.77,0.66
0.03,-0.77,0.66
0.03,-0.77,0.66
0.03,-0.77,0.66
0.03,-0.77,0.66
0.04,-0.77,0.66
0.04,-0.77,0.66
0.03,-0.77,0.66
0.03,-0.77,0.66
0.03,-0.77,0.66
0.03,-0.77,0.66
0.03,-0.77,0.66
0.04,-0.77,0.66
0.04,-0.77,0.66
0.04,-0.77,0.66
0.03,-0.77,0.66
0.03,-0.77,0.66
0.03,-0.77,0.66
0.03,-0.77,0.66
0.03,-0.77,0.66
0.03,-0.77,0.66
0.03,-0.77,0.66
0.04,-0.77,0.66
0.03,-0.77,0.66
0.03,-0.77,0.66
0.03,-0.77,0.67
0.03,-0.77,0.67
0.03,-0.77,0.66
0.04,-0.77,0.66
0.04,-0.77,0.66
0.03,-0.77,0.66
0.03,-0.77,0.66
0.03,-0.77,0.66
0.03,-0.77,0.66
0.03,-0.77,0.66
0.03,-0.77,0.66
0.03,-0.77,0.66
0.03,-0.77,0.66
0.03,-0.77,0.66
0.04,-0.77,0.66
0.04,-0.77,0.66
0.03,-0.77,0.66
0.03,-0.77,0.66
0.03,-0.77,0.66
0.03,-0.77,0.66
0.03,-0.77,0.66
0.03,-0.77,0.66
0.04,-0.77,0.66
0.04,-0.77,0.66
0.04,-0.77,0.66
0.03,-0.77,0.67
0.03,-0.77,0.67
0.04,-0.76,0.67
0.04,-0.76,0.66
0.04,-0.77,0.66
0.03,-0.77,0.66
0.04,-0.77,0.67
0.04,-0.77,0.67
0.03,-0.77,0.66
0.03,-0.77,0.66
0.03,-0.77,0.66
0.04,-0.77,0.66
0.04,-0.77,0.66
0.04,-0.77,0.66
0.04,-0.77,0.66
0.03,-0.77,0.66
0.03,-0.77,0.66
0.03,-0.77,0.66
0.03,-0.77,0.66
0.03,-0.77,0.66
0.04,-0.77,0.66
0.04,-0.77,0.66
0.04,-0.77,0.66
0.03,-0.77,0.66
0.03,-0.76,0.66
0.03,-0.77,0.66
0.04,-0.77,0.66
0.04,-0.77,0.66
0.04,-0.76,0.66
0.04,-0.76,0.66
0.04,-0.77,0.66
0.04,-0.77,0.66
0.04,-0.77,0.66
0.03,-0.77,0.66
0.03,-0.77,0.67
0.04,-0.77,0.66
0.04,-0.77,0.66
0.04,-0.77,0.67
0.03,-0.77,0.66
0.03,-0.77,0.66
0.03,-0.77,0.66
0.03,-0.77,0.66
0.04,-0.77,0.66
0.04,-0.77,0.66
0.03,-0.77,0.66
0.03,-0.77,0.67
0.04,-0.77,0.67
0.04,-0.77,0.66
0.04,-0.77,0.67
0.04,-0.77,0.67
0.03,-0.77,0.67
0.04,-0.76,0.67
0.04,-0.77,0.66
0.04,-0.77,0.66
0.03,-0.77,0.66
0.03,-0.77,0.66
0.03,-0.77,0.66
0.03,-0.77,0.66
0.03,-0.77,0.66
0.03,-0.77,0.66
0.03,-0.77,0.66
0.03,-0.77,0.66
0.03,-0.77,0.66
0.03,-0.77,0.66
0.03,-0.77,0.66
0.03,-0.77,0.66
0.03,-0.77,0.66
0.03,-0.77,0.66
0.03,-0.77,0.66
0.03,-0.77,0.66
0.03,-0.77,0.66
0.03,-0.77,0.66
0.03,-0.77,0.66
0.03,-0.77,0.66
0.03,-0.77,0.66
0.03,-0.77,0.66
0.03,-0.77,0.66
0.03,-0.77,0.66
0.03,-0.77,0.66
0.03,-0.77,0.66
0.03,-0.77,0.66
0.03,-0.77,0.66
0.03,-0.77,0.66
0.03,-0.77,0.66
0.03,-0.77,0.66
0.03,-0.77,0.66
0.03,-0.78,0.66
0.03,-0.78,0.66
0.03,-0.78,0.66
0.03,-0.78,0.66
0.03,-0.77,0.65
0.03,-0.77,0.66
0.03,-0.77,0.66
0.03,-0.77,0.65
0.03,-0.77,0.65
0.03,-0.77,0.66
0.03,-0.77,0.66
0.03,-0.77,0.65
0.03,-0.77,0.66
0.03,-0.77,0.66
0.03,-0.77,0.66
0.03,-0.78,0.66
0.03,-0.77,0.66
0.03,-0.77,0.66
0.03,-0.77,0.66
0.03,-0.77,0.66
0.03,-0.78,0.65
0.03,-0.78,0.65
0.03,-0.78,0.65
0.03,-0.78,0.65
0.03,-0.78,0.65
0.03,-0.78,0.65
0.03,-0.77,0.65
0.03,-0.78,0.65
0.02,-0.78,0.65
0.02,-0.78,0.65
0.02,-0.78,0.65
0.02,-0.78,0.65
0.02,-0.78,0.65
0.03,-0.78,0.65
0.03,-0.78,0.65
0.03,-0.78,0.65
0.03,-0.78,0.66
0.03,-0.78,0.66
0.03,-0.77,0.66
0.03,-0.77,0.66
0.03,-0.78,0.65
0.03,-0.78,0.65
0.03,-0.78,0.65
0.03,-0.78,0.65
0.03,-0.78,0.65
0.02,-0.78,0.64
0.02,-0.78,0.65
0.02,-0.78,0.65
0.02,-0.78,0.65
0.02,-0.78,0.65
0.02,-0.78,0.65
0.02,-0.78,0.65
0.02,-0.78,0.65
0.02,-0.78,0.65
0.02,-0.78,0.65
0.02,-0.78,0.65
0.02,-0.78,0.65
0.02,-0.78,0.65
0.02,-0.78,0.65
0.02,-0.78,0.65
0.02,-0.78,0.65
0.03,-0.78,0.65
0.03,-0.78,0.65
0.02,-0.78,0.65
0.02,-0.78,0.65
0.02,-0.78,0.65
0.02,-0.78,0.65
0.03,-0.78,0.65
0.03,-0.78,0.65
0.03,-0.78,0.65
0.03,-0.78,0.65
0.02,-0.78,0.65
0.02,-0.78,0.65
0.02,-0.78,0.65
0.02,-0.78,0.65
0.03,-0.78,0.65
0.02,-0.78,0.65
0.02,-0.78,0.65
0.03,-0.78,0.65
0.03,-0.78,0.65
0.03,-0.78,0.65
0.02,-0.78,0.65
0.02,-0.78,0.65
0.02,-0.78,0.65
0.03,-0.78,0.65
0.03,-0.78,0.65
0.03,-0.78,0.65
0.02,-0.78,0.65
0.03,-0.78,0.65
0.03,-0.77,0.65
0.03,-0.77,0.65
0.03,-0.78,0.65
0.03,-0.78,0.65
0.03,-0.78,0.65
0.03,-0.78,0.65
0.03,-0.77,0.66
0.03,-0.78,0.65
0.03,-0.78,0.65
0.03,-0.78,0.65
0.02,-0.78,0.65
0.02,-0.77,0.66
0.02,-0.77,0.66
0.02,-0.77,0.65
0.02,-0.78,0.65
0.03,-0.78,0.65
0.03,-0.78,0.65
0.03,-0.78,0.65
0.03,-0.77,0.65
0.03,-0.77,0.65
0.03,-0.77,0.66
0.03,-0.77,0.66
0.03,-0.77,0.66
0.03,-0.77,0.66
0.03,-0.77,0.66
0.03,-0.77,0.65
0.03,-0.77,0.65
0.03,-0.77,0.65
0.03,-0.77,0.66
0.03,-0.77,0.66
0.03,-0.77,0.66
0.03,-0.77,0.66
0.03,-0.77,0.66
0.03,-0.77,0.66
0.03,-0.77,0.66
0.03,-0.77,0.66
0.03,-0.77,0.66
0.03,-0.77,0.66
0.03,-0.77,0.66
0.03,-0.77,0.66
0.03,-0.77,0.66
0.03,-0.77,0.66
0.03,-0.77,0.66
0.03,-0.77,0.66
0.03,-0.77,0.66
0.03,-0.77,0.66
0.03,-0.77,0.66
0.03,-0.77,0.66
0.03,-0.77,0.66
0.03,-0.77,0.66
0.03,-0.77,0.67
0.03,-0.77,0.66
0.04,-0.77,0.66
0.04,-0.76,0.66
0.03,-0.77,0.66
0.03,-0.77,0.66
0.03,-0.77,0.66
0.03,-0.77,0.66
0.03,-0.77,0.66
0.03,-0.76,0.66
0.03,-0.77,0.66
0.04,-0.77,0.66
0.04,-0.77,0.66
0.04,-0.76,0.66
0.03,-0.76,0.66
0.04,-0.75,0.65
0.04,-0.75,0.64
0.04,-0.75,0.64
0.04,-0.77,0.65
0.04,-0.78,0.65
0.05,-0.77,0.67
0.05,-0.79,0.66
0.05,-0.8,0.64
0.07,-0.8,0.63
0.07,-0.79,0.61
0.05,-0.78,0.61
0.04,-0.77,0.61
0.03,-0.78,0.63
0.05,-0.8,0.65
0.08,-0.81,0.64
0.07,-0.8,0.63
0.04,-0.81,0.62
0.02,-0.79,0.63
0.04,-0.78,0.63
0.06,-0.8,0.61
0.03,-0.83,0.62
0.01,-0.83,0.63
0.02,-0.83,0.61
0.04,-0.81,0.61
0.05,-0.79,0.6
0.05,-0.78,0.57
0.08,-0.78,0.56
0.11,-0.8,0.58
0.13,-0.84,0.6
0.13,-0.85,0.61
0.11,-0.81,0.61
0.09,-0.78,0.64
0.08,-0.76,0.68
0.11,-0.77,0.69
0.13,-0.79,0.66
0.12,-0.81,0.63
0.13,-0.8,0.63
0.14,-0.8,0.63
0.15,-0.79,0.6
0.16,-0.78,0.58
0.18,-0.79,0.61
0.19,-0.81,0.6
0.22,-0.81,0.59
0.22,-0.82,0.57
0.2,-0.81,0.57
0.2,-0.81,0.56
0.24,-0.81,0.56
0.24,-0.79,0.56
0.25,-0.77,0.56
0.25,-0.79,0.57
0.26,-0.81,0.55
0.28,-0.8,0.54
0.28,-0.79,0.55
0.28,-0.79,0.54
0.32,-0.8,0.52
0.34,-0.82,0.51
0.33,-0.8,0.51
0.31,-0.79,0.51
0.3,-0.8,0.53
0.36,-0.8,0.52
0.43,-0.79,0.51
0.4,-0.78,0.54
0.34,-0.78,0.53
0.32,-0.78,0.51
0.35,-0.79,0.53
0.44,-0.82,0.53
0.5,-0.81,0.54
0.43,-0.78,0.52
0.44,-0.79,0.5
0.49,-0.79,0.5
0.52,-0.78,0.48
0.48,-0.76,0.47
0.48,-0.76,0.48
0.47,-0.78,0.49
0.46,-0.79,0.52
0.49,-0.81,0.5
0.47,-0.78,0.45
0.49,-0.76,0.44
0.49,-0.77,0.42
0.49,-0.77,0.43
0.5,-0.81,0.47
0.44,-0.8,0.45
0.49,-0.78,0.48
0.5,-0.81,0.47
0.47,-0.8,0.43
0.51,-0.8,0.43
0.5,-0.8,0.39
0.45,-0.8,0.38
0.45,-0.81,0.4
0.45,-0.82,0.42
0.47,-0.83,0.45
0.5,-0.82,0.42
0.52,-0.8,0.43
0.46,-0.81,0.47
0.42,-0.76,0.43
0.49,-0.74,0.41
0.54,-0.77,0.42
0.54,-0.82,0.47
0.56,-0.83,0.49
0.58,-0.83,0.47
0.56,-0.83,0.44
0.48,-0.83,0.43
0.42,-0.83,0.44
0.45,-0.85,0.47
0.48,-0.86,0.47
0.48,-0.87,0.48
0.49,-0.88,0.48
0.54,-0.88,0.45
0.6,-0.89,0.46
0.6,-0.92,0.57
0.57,-0.95,0.69
0.57,-0.95,0.75
0.56,-0.96,0.75
0.55,-1.03,0.7
0.52,-1.13,0.64
0.54,-1.14,0.65
0.5,-1.06,0.71
0.4,-1.06,0.71
0.41,-1.06,0.67
0.41,-1.03,0.65
0.38,-1.09,0.6
0.3,-1.14,0.6
0.22,-1.16,0.64
0.25,-1.18,0.7
0.33,-1.16,0.77
0.38,-1.09,0.78
0.42,-1.03,0.73
0.47,-1.09,0.67
0.43,-1.08,0.69
0.29,-1.01,0.72
0.28,-1.08,0.63
0.33,-1.07,0.52
0.33,-0.96,0.47
0.34,-0.92,0.44
0.4,-0.89,0.41
0.49,-0.84,0.38
0.49,-0.86,0.35
0.41,-0.91,0.33
0.43,-0.92,0.31
0.45,-0.91,0.27
0.38,-0.91,0.23
0.36,-0.97,0.18
0.44,-0.99,0.11
0.49,-0.96,0.05
0.49,-0.96,0.03
0.44,-1.08,0.1
0.35,-1.16,0.16
0.38,-1.2,0.18
0.38,-1.21,0.18
0.34,-1.24,0.2
0.33,-1.23,0.2
0.33,-1.2,0.19
0.33,-1.17,0.18
0.32,-1.15,0.18
0.31,-1.11,0.19
0.28,-1.07,0.19
0.25,-1.02,0.18
0.24,-0.95,0.18
0.23,-0.93,0.18
0.22,-0.92,0.18
0.22,-0.9,0.21
0.2,-0.9,0.25
0.19,-0.94,0.27
0.19,-0.97,0.29
0.21,-0.97,0.29
0.2,-0.96,0.3
0.14,-0.95,0.31
0.11,-0.96,0.33
0.11,-0.99,0.36
0.11,-0.99,0.38
0.1,-1.01,0.41
0.08,-1.17,0.48
0.02,-1.27,0.53
-0.02,-1.35,0.57
-0.04,-1.44,0.61
-0.07,-1.54,0.65
-0.09,-1.6,0.68
-0.1,-1.66,0.65
-0.15,-1.72,0.59
-0.24,-1.72,0.49
-0.27,-1.67,0.34
-0.24,-1.63,0.24
-0.18,-1.62,0.2
-0.12,-1.61,0.17
-0.07,-1.53,0.13
-0.06,-1.43,0.09
-0.06,-1.33,0.06
-0.05,-1.24,0.03
-0.02,-1.19,0
0.01,-1.19,-0.03
0.04,-1.2,-0.05
0.08,-1.17,-0.04
0.1,-1.11,-0.03
0.12,-1.06,-0.01
0.13,-1.02,0.01
0.12,-0.96,0.04
0.14,-0.92,0.03
0.15,-0.89,-0.02
0.2,-0.78,0.01
0.28,-0.72,0.07
0.37,-0.67,0.14
0.41,-0.65,0.21
0.41,-0.66,0.28
0.4,-0.67,0.35
0.39,-0.66,0.42
0.38,-0.64,0.48
0.38,-0.63,0.53
0.38,-0.66,0.57
0.39,-0.65,0.59
0.4,-0.64,0.64
0.38,-0.65,0.69
0.35,-0.66,0.72
0.34,-0.65,0.73
0.32,-0.63,0.71
0.31,-0.62,0.68
0.3,-0.61,0.67
0.27,-0.63,0.68
0.26,-0.68,0.69
0.25,-0.72,0.69
0.25,-0.72,0.7
0.26,-0.7,0.7
0.26,-0.7,0.71
0.24,-0.72,0.72
0.22,-0.73,0.72
0.22,-0.74,0.72
0.2,-0.79,0.72
0.15,-0.85,0.72
0.12,-0.84,0.68
0.12,-0.81,0.61
0.13,-0.82,0.56
0.13,-0.83,0.54
0.16,-0.8,0.53
0.17,-0.79,0.52
0.15,-0.82,0.51
0.14,-0.84,0.52
0.13,-0.86,0.51
0.12,-0.88,0.5
0.12,-0.9,0.46
0.14,-0.93,0.43
0.16,-0.96,0.41
0.17,-0.97,0.4
0.17,-0.99,0.38
0.18,-1,0.36
0.19,-0.99,0.35
0.19,-0.97,0.34
0.19,-0.93,0.31
0.21,-0.89,0.28
0.23,-0.84,0.25
0.25,-0.8,0.23
0.27,-0.74,0.22
0.3,-0.62,0.23
0.31,-0.56,0.24
0.32,-0.51,0.22
0.33,-0.48,0.19
0.33,-0.49,0.17
0.31,-0.54,0.17
0.3,-0.58,0.17
0.29,-0.62,0.18
0.27,-0.63,0.19
0.24,-0.65,0.22
0.21,-0.67,0.24
0.17,-0.69,0.26
0.14,-0.7,0.25
0.12,-0.71,0.22
0.09,-0.73,0.2
0.06,-0.77,0.19
0.05,-0.82,0.19
0.05,-0.88,0.2
0.05,-0.94,0.2
0.05,-1,0.2
0.05,-1.06,0.21
0.06,-1.15,0.23
0.06,-1.24,0.26
0.05,-1.33,0.3
0.06,-1.42,0.32
0.09,-1.46,0.34
0.13,-1.46,0.36
0.15,-1.41,0.38
0.18,-1.34,0.4
0.2,-1.24,0.42
0.19,-1.15,0.44
0.18,-1.05,0.46
0.18,-0.96,0.47
0.21,-0.89,0.46
0.22,-0.84,0.45
0.22,-0.8,0.45
0.23,-0.78,0.44
0.25,-0.77,0.42
0.27,-0.77,0.41
0.29,-0.78,0.42
0.3,-0.8,0.44
0.31,-0.82,0.45
0.32,-0.83,0.45
0.32,-0.82,0.44
0.33,-0.81,0.43
0.35,-0.8,0.41
0.35,-0.79,0.39
0.35,-0.77,0.39
0.36,-0.77,0.4
0.39,-0.77,0.41
0.4,-0.78,0.42
0.41,-0.81,0.42
0.4,-0.88,0.41
0.42,-0.96,0.4
0.45,-1.08,0.4
0.48,-1.21,0.42
0.48,-1.31,0.44
0.44,-1.38,0.45
0.4,-1.42,0.44
0.34,-1.45,0.4
0.29,-1.45,0.34
0.28,-1.43,0.29
0.29,-1.41,0.26
0.33,-1.4,0.23
0.36,-1.36,0.21
0.36,-1.35,0.22
0.35,-1.41,0.26
0.35,-1.5,0.29
0.33,-1.59,0.27
0.28,-1.61,0.2
0.23,-1.57,0.12
0.22,-1.47,0.07
0.23,-1.35,0.04
0.24,-1.26,0.03
0.25,-1.19,0.06
0.24,-1.15,0.08
0.21,-1.14,0.09
0.2,-1.12,0.07
0.14,-1.01,0
0.15,-0.97,0
0.16,-0.93,-0.01
0.17,-0.91,-0.02
0.16,-0.92,-0.03
0.15,-0.92,-0.04
0.14,-0.89,-0.06
0.15,-0.86,-0.07
0.18,-0.85,-0.08
0.15,-0.85,-0.08
0.11,-0.81,-0.06
0.14,-0.78,-0.05
0.19,-0.78,-0.04
0.21,-0.8,-0.03
0.22,-0.81,-0.02
0.23,-0.81,-0.02
0.25,-0.82,-0.02
0.26,-0.84,-0.02
0.3,-0.86,-0.02
0.34,-0.88,-0.01
0.36,-0.87,0
0.39,-0.86,0.02
0.42,-0.86,0.03
0.44,-0.86,0.05
0.46,-0.85,0.07
0.48,-0.85,0.09
0.52,-0.92,0.13
0.61,-0.96,0.13
0.65,-0.99,0.14
0.68,-1.02,0.14
0.73,-1.04,0.15
0.79,-1.06,0.16
0.84,-1.08,0.19
0.85,-1.08,0.23
0.81,-1.04,0.26
0.75,-1,0.28
0.73,-0.95,0.31
0.75,-0.92,0.33
0.78,-0.9,0.35
0.8,-0.88,0.37
0.81,-0.87,0.37
0.78,-0.86,0.36
0.74,-0.87,0.34
0.7,-0.87,0.33
0.68,-0.85,0.31
0.65,-0.81,0.3
0.62,-0.78,0.3
0.6,-0.74,0.32
0.58,-0.71,0.34
0.59,-0.67,0.35
0.6,-0.64,0.34
0.62,-0.6,0.32
0.62,-0.52,0.27
0.63,-0.48,0.25
0.63,-0.45,0.23
0.64,-0.43,0.21
0.66,-0.42,0.21
0.68,-0.41,0.2
0.69,-0.4,0.21
0.67,-0.37,0.23
0.64,-0.35,0.25
0.61,-0.31,0.25
0.59,-0.28,0.24
0.56,-0.25,0.24
0.58,-0.25,0.24
0.65,-0.26,0.24
0.72,-0.32,0.25
0.79,-0.41,0.27
0.82,-0.51,0.29
0.81,-0.59,0.32
0.78,-0.64,0.34
0.78,-0.66,0.35
0.79,-0.65,0.37
0.83,-0.63,0.38
0.83,-0.64,0.4
0.84,-0.67,0.42
0.89,-0.72,0.42
0.92,-0.77,0.4
0.95,-0.83,0.37
0.95,-0.89,0.36
0.92,-0.87,0.37
0.89,-0.83,0.37
0.86,-0.77,0.39
0.83,-0.72,0.39
0.81,-0.68,0.39
0.79,-0.64,0.39
0.79,-0.62,0.38
0.77,-0.6,0.36
0.76,-0.58,0.34
0.77,-0.55,0.32
0.81,-0.53,0.32
0.82,-0.52,0.33
0.8,-0.51,0.35
0.77,-0.49,0.35
0.76,-0.46,0.34
0.76,-0.43,0.34
0.78,-0.42,0.35
0.8,-0.41,0.36
0.83,-0.42,0.36
0.86,-0.42,0.37
0.89,-0.4,0.39
0.91,-0.4,0.38
0.94,-0.38,0.37
0.96,-0.37,0.38
0.93,-0.36,0.42
0.88,-0.33,0.44
0.88,-0.31,0.45
0.86,-0.3,0.46
0.82,-0.28,0.46
0.81,-0.26,0.46
0.82,-0.25,0.46
0.83,-0.24,0.46
0.84,-0.23,0.46
0.83,-0.22,0.47
0.81,-0.22,0.47
0.83,-0.22,0.47
0.81,-0.22,0.47
0.76,-0.18,0.48
0.73,-0.13,0.5
0.74,-0.08,0.52
0.78,-0.05,0.54
0.85,-0.05,0.55
0.91,-0.06,0.55
0.92,-0.09,0.54
0.9,-0.13,0.54
0.87,-0.14,0.54
0.84,-0.14,0.55
0.83,-0.13,0.58
0.82,-0.12,0.6
0.8,-0.11,0.63
0.78,-0.12,0.67
0.77,-0.09,0.67
0.76,-0.07,0.65
0.74,-0.06,0.62
0.7,-0.06,0.62
0.64,-0.04,0.62
0.59,-0.02,0.62
0.55,0.01,0.63
0.56,0.04,0.65
0.6,0.07,0.68
0.61,0.07,0.7
0.6,0.04,0.74
0.61,0.04,0.76
0.61,0.05,0.76
0.58,0.04,0.74
0.59,0.05,0.75
0.63,0.08,0.74
0.61,0.07,0.76
0.58,0.06,0.82
0.56,0.08,0.84
0.54,0.12,0.84
0.5,0.14,0.83
0.45,0.15,0.81
0.44,0.17,0.78
0.44,0.17,0.76
0.46,0.17,0.77
0.48,0.16,0.84
0.48,0.17,0.86
0.46,0.16,0.86
0.45,0.17,0.87
0.44,0.19,0.89
0.43,0.19,0.92
0.4,0.21,0.94
0.38,0.24,0.95
0.35,0.25,0.96
0.31,0.23,0.96
0.27,0.21,0.97
0.24,0.21,0.98
0.21,0.2,0.98
0.19,0.17,0.98
0.19,0.18,0.98
0.18,0.15,0.98
0.16,0.12,0.99
0.17,0.14,1.03
0.2,0.12,1.08
0.23,0.07,1.11
0.25,0.07,1.13
0.25,0.09,1.15
0.23,0.1,1.15
0.22,0.1,1.14
0.23,0.12,1.12
0.24,0.16,1.09
0.27,0.19,1.03
0.24,0.22,1.03
0.22,0.2,1.03
0.21,0.2,1.01
0.21,0.19,1
0.21,0.18,0.99
0.21,0.17,0.98
0.2,0.18,0.97
0.19,0.19,0.96
0.19,0.18,0.95
0.18,0.19,0.94
0.18,0.2,0.92
0.19,0.19,0.89
0.19,0.17,0.88
0.18,0.16,0.89
0.17,0.14,0.91
0.17,0.12,0.92
0.17,0.12,0.92
0.16,0.12,0.93
0.17,0.12,0.93
0.2,0.13,0.94
0.21,0.14,0.93
0.21,0.15,0.92
0.22,0.15,0.94
0.24,0.15,0.96
0.27,0.14,0.97
0.3,0.14,0.96
0.3,0.2,0.93
0.29,0.24,0.93
0.29,0.27,0.93
0.29,0.3,0.93
0.28,0.32,0.94
0.29,0.32,0.94
0.31,0.33,0.94
0.3,0.34,0.94
0.28,0.35,0.95
0.29,0.35,0.96
0.27,0.35,0.94
0.24,0.36,0.92
0.23,0.35,0.89
0.24,0.35,0.88
0.26,0.33,0.89
0.28,0.32,0.89
0.29,0.33,0.89
0.27,0.35,0.9
0.24,0.41,0.92
0.23,0.45,1
0.22,0.4,1.08
0.21,0.33,1.11
0.22,0.32,1.08
0.22,0.34,1.02
0.21,0.35,0.97
0.19,0.34,0.92
0.17,0.34,0.9
0.21,0.34,0.92
0.26,0.34,0.92
0.28,0.33,0.94
0.28,0.32,0.94
0.28,0.33,0.93
0.29,0.34,0.92
0.3,0.35,0.9
0.28,0.37,0.88
0.28,0.38,0.85
0.3,0.38,0.83
0.28,0.39,0.83
0.26,0.39,0.84
0.27,0.39,0.85
0.28,0.38,0.85
0.27,0.38,0.86
0.27,0.36,0.89
0.27,0.35,0.93
0.28,0.34,0.96
0.28,0.34,0.97
0.27,0.34,0.96
0.25,0.35,0.95
0.24,0.36,0.94
0.23,0.36,0.93
0.24,0.36,0.9
0.24,0.35,0.89
0.24,0.35,0.88
0.23,0.35,0.89
0.23,0.35,0.89
0.23,0.35,0.9
0.21,0.36,0.91
0.19,0.36,0.92
0.19,0.36,0.93
0.21,0.35,0.93
0.24,0.34,0.94
0.26,0.35,0.93
0.27,0.35,0.91
0.28,0.36,0.89
0.28,0.36,0.88
0.27,0.36,0.88
0.25,0.36,0.88
0.24,0.35,0.89
0.25,0.35,0.91
0.25,0.35,0.91
0.25,0.34,0.9
0.26,0.35,0.89
0.26,0.35,0.88
0.27,0.35,0.88
0.28,0.35,0.89
0.28,0.35,0.9
0.28,0.35,0.91
0.28,0.35,0.9
0.27,0.36,0.88
0.27,0.36,0.87
0.28,0.37,0.88
0.27,0.37,0.89
0.26,0.36,0.91
0.26,0.36,0.91
0.26,0.36,0.9
0.25,0.35,0.9
0.26,0.35,0.9
0.27,0.35,0.9
0.27,0.36,0.89
0.27,0.36,0.89
0.27,0.35,0.89
0.28,0.35,0.89
0.28,0.34,0.89
0.27,0.34,0.89
0.27,0.34,0.9
0.27,0.34,0.9
0.27,0.34,0.9
0.27,0.35,0.9
0.28,0.35,0.9
0.29,0.35,0.9
0.29,0.35,0.9
0.27,0.35,0.91
0.27,0.35,0.9
0.28,0.35,0.89
0.28,0.35,0.89
0.28,0.36,0.89
0.28,0.35,0.89
0.28,0.35,0.89
0.28,0.35,0.9
0.27,0.35,0.9
0.28,0.35,0.9
0.28,0.35,0.9
0.28,0.35,0.9
0.29,0.35,0.89
0.29,0.35,0.89
0.29,0.35,0.89
0.28,0.34,0.89
0.27,0.34,0.9
0.27,0.34,0.9
0.27,0.34,0.9
0.27,0.34,0.9
0.27,0.35,0.9
0.27,0.35,0.9
0.27,0.35,0.9
0.27,0.35,0.89
0.28,0.35,0.89
0.28,0.35,0.9
0.27,0.35,0.9
0.27,0.35,0.9
0.27,0.35,0.89
0.27,0.35,0.89
0.27,0.35,0.9
0.27,0.35,0.9
0.28,0.35,0.9
0.28,0.34,0.89
0.28,0.34,0.9
0.28,0.34,0.9
