Acc_x,Acc_y,Acc_z
0,0,0
0,0,0
0,0,0
0,0,0
0,0,0
0,0,0
0,0,0
0,0,0
0,0,0
0,0,0
0,0,0
0,0,0
0,0,0
0,0,0
0,0,0
0,0,0
0,0,0
0,0,0
0,0,0
0,0,0
0,0,0
0,0,0
0,0,0
0,0,0
0,0,0
0,0,0
0,0,0
0,0,0
0,0,0
0,0,0
0,0,0
0,0,0
0,0,0
0,0,0
0,0,0
0,0,0
0,0,0
0,0,0
0,0,0
0,0,0
0,0,0
0,0,0
0,0,0
0,0,0
0,0,0
0,0,0
0,0,0
0,0,0
0,0,0
0,0,0
0,0,0
0,0,0
0,0,0
0,0,0
0,0,0
0,0,0
0,0,0
0,0,0
0,0,0
0,0,0
0,0,0
0,0,0
0,0,0
0,0,0
0,0,0
0,0,0
0,0,0
0,0,0
0,0,0
0,0,0
0,0,0
0,0,0
0,0,0
0,0,0
0,0,0
0,0,0
0,0,0
0,0,0
0,0,0
0,0,0
0,0,0
0,0,0
0,0,0
0,0,0
0,0,0
0,0,0
0,0,0
0,0,0
0,0,0
0,0,0
0,0,0
0,0,0
0,0,0
0,0,0
0,0,0
0,0,0
0,0,0
0,0,0
0,0,0
0,0,0
0,0,0
0,0,0
0,0,0
0,0,0
0,0,0
0,0,0
0,0,0
0,0,0
0,0,0
0,0,0
0,0,0
0,0,0
0,0,0
0,0,0
0,0,0
0,0,0
0,0,0
0,0,0
0,0,0
0,0,0
0,0,0
0,0,0
0,0,0
0,0,0
0,0,0
0,0,0
0,0,0
0,0,0
0,0,0
0,0,0
0,0,0
0,0,0
0,0,0
0,0,0
0,0,0
0,0,0
0,0,0
0,0,0
0,0,0
0,0,0
0,0,0
0,0,0
0,0,0
0,0,0
0,0,0
0,0,0
0,0,0
0,0,0
0,0,0
0,0,0
0,0,0
0,0,0
0,0,0
0,0,0
0,0,0
0,0,0
0,0,0
0,0,0
0,0,0
0,0,0
0,0,0
0,0,0
0,0,0
0,0,0
0,0,0
0,0,0
0,0,0
0,0,0
0,0,0
0,0,0
0,0,0
0,0,0
0,0,0
0,0,0
0,0,0
0,0,0
0,0,0
0,0,0
0,0,0
0,0,0
0,0,0
0,0,0
0,0,0
0,0,0
0,0,0
0,0,0
0,0,0
0,0,0
0,0,0
0,0,0
0,0,0
0,0,0
0,0,0
0,0,0
0,0,0
0,0,0
0,0,0
0,0,0
0,0,0
0,0,0
0,0,0
0,0,0
0,0,0
0,0,0
0,0,0
0,0,0
0,0,0
0,0,0
0,0,0
0,0,0
0,0,0
0,0,0
0,0,0
0,0,0
0,0,0
0,0,0
0,0,0
0,0,0
0,0,0
0,0,0
0,0,0
0,0,0
0,0,0
0,0,0
0,0,0
0,0,0
0,0,0
0,0,0
0,0,0
0,0,0
0,0,0
0,0,0
0,0,0
0,0,0
0,0,0
0,0,0
0,0,0
0,0,0
0,0,0
0,0,0
0,0,0
0,0,0
0,0,0
0,0,0
0,0,0
0,0,0
0,0,0
0,0,0
0,0,0
0,0,0
0,0,0
0,0,0
0,0,0
0,0,0
0,0,0
0,0,0
0,0,0
0,0,0
0,0,0
0,0,0
0,0,0
0,0,0
0,0,0
0,0,0
0,0,0
0,0,0
0,0,0
0,0,0
0,0,0
0,0,0
0,0,0
0,0,0
0,0,0
0,0,0
0,0,0
0,0,0
0,0,0
0,0,0
0,0,0
0,0,0
0,0,0
0,0,0
0,0,0
0,0,0
0,0,0
0,0,0
0,0,0
0,0,0
0,0,0
0,0,0
0,0,0
0,0,0
0,0,0
0,0,0
0,0,0
0,0,0
0,0,0
0,0,0
0,0,0
0,0,0
0,0,0
0,0,0
0,0,0
0,0,0
0,0,0
0,0,0
0,0,0
0,0,0
0,0,0
0,0,0
0,0,0
0,0,0
0,0,0
0,0,0
0,0,0
0,0,0
0,0,0
0,0,0
0,0,0
0,0,0
0,0,0
0,0,0
0,0,0
0,0,0
0,0,0
0,0,0
0,0,0
0,0,0
0,0,0
0,0,0
0,0,0
0,0,0
0,0,0
0,0,0
0,0,0
0,0,0
0,0,0
0,0,0
0,0,0
0,0,0
0,0,0
0,0,0
0,0,0
0,0,0
0,0,0
0,0,0
0,0,0
0,0,0
0,0,0
0,0,0
0,0,0
0,0,0
0,0,0
0,0,0
0,0,0
0,0,0
0,0,0
0,0,0
0,0,0
0,0,0
0,0,0
0,0,0
0,0,0
0,0,0
0,0,0
0,0,0
0,0,0
0,0,0
0,0,0
0,0,0
0,0,0
0,0,0
0,0,0
0,0,0
0,0,0
0,0,0
0,0,0
0,0,0
0,0,0
0,0,0
0,0,0
0,0,0
0,0,0
0,0,0
0,0,0
0,0,0
0,0,0
0,0,0
0,0,0
0,0,0
0,0,0
0,0,0
0,0,0
0,0,0
0,0,0
0,0,0
0,0,0
0,0,0
0,0,0
0,0,0
0,0,0
0,0,0
0,0,0
0,0,0
0,0,0
0,0,0
0,0,0
0,0,0
0,0,0
0,0,0
0,0,0
0,0,0
0,0,0
0,0,0
0,0,0
0,0,0
0,0,0
0,0,0
0,0,0
0,0,0
0,0,0
0,0,0
0,0,0
0,0,0
0,0,0
0,0,0
0,0,0
0,0,0
0,0,0
0,0,0
0,0,0
0,0,0
0,0,0
0,0,0
0,0,0
0,0,0
0,0,0
0,0,0
0,0,0
0,0,0
0,0,0
0,0,0
0,0,0
0,0,0
0,0,0
0,0,0
0,0,0
0,0,0
0,0,0
0,0,0
0,0,0
0,0,0
0,0,0
0,0,0
0,0,0
0,0,0
0,0,0
0,0,0
0,0,0
0,0,0
0,0,0
0,0,0
0,0,0
0,0,0
0,0,0
0,0,0
0,0,0
0,0,0
0,0,0
0,0,0
0,0,0
0,0,0
0,0,0
0,0,0
0,0,0
0,0,0
0,0,0
0,0,0
0,0,0
0,0,0
0,0,0
0,0,0
0,0,0
0,0,0
0,0,0
0,0,0
0,0,0
0,0,0
0,0,0
0,0,0
0,0,0
0,0,0
0,0,0
0,0,0
0,0,0
0,0,0
0,0,0
0,0,0
0,0,0
0,0,0
0,0,0
0,0,0
0,0,0
0,0,0
0,0,0
0,0,0
0,0,0
0,0,0
0,0,0
0,0,0
0,0,0
0,0,0
0,0,0
0,0,0
0,0,0
0,0,0
0,0,0
0,0,0
0,0,0
0,0,0
0,0,0
0,0,0
0,0,0
0,0,0
0,0,0
0,0,0
0,0,0
0,0,0
0,0,0
0,0,0
0,0,0
0,0,0
0,0,0
0,0,0
0,0,0
0,0,0
0,0,0
0,0,0
0,0,0
0,0,0
0,0,0
0,0,0
0,0,0
0,0,0
0,0,0
0,0,0
0,0,0
0,0,0
0,0,0
0,0,0
0,0,0
0,0,0
0,0,0
0,0,0
0,0,0
0,0,0
0,0,0
0,0,0
0,0,0
0,0,0
0,0,0
0,0,0
0,0,0
0,0,0
0,0,0
0,0,0
0,0,0
0,0,0
0,0,0
0,0,0
0,0,0
0,0,0
0,0,0
0,0,0
0,0,0
0,0,0
0,0,0
0,0,0
0,0,0
0,0,0
0,0,0
0,0,0
0,0,0
0,0,0
0,0,0
0,0,0
0,0,0
0,0,0
0,0,0
0,0,0
0,0,0
0,0,0
0,0,0
0,0,0
0,0,0
0,0,0
0,0,0
0,0,0
0,0,0
0,0,0
0,0,0
0,0,0
0,0,0
0,0,0
0,0,0
0,0,0
0,0,0
0,0,0
0,0,0
0,0,0
0,0,0
0,0,0
0,0,0
0,0,0
0,0,0
0,0,0
0,0,0
0,0,0
0,0,0
0,0,0
0,0,0
0,0,0
0,0,0
0,0,0
0,0,0
0,0,0
0,0,0
0,0,0
0,0,0
0,0,0
0,0,0
0,0,0
0,0,0
0,0,0
0,0,0
0,0,0
0,0,0
0,0,0
0,0,0
0,0,0
0,0,0
0,0,0
0,0,0
0,0,0
0,0,0
0,0,0
0,0,0
0,0,0
0,0,0
0,0,0
0,0,0
0,0,0
0,0,0
0,0,0
0,0,0
0,0,0
0,0,0
0,0,0
0,0,0
0,0,0
0,0,0
0,0,0
0,0,0
0,0,0
0,0,0
0,0,0
0,0,0
0,0,0
0,0,0
0,0,0
0,0,0
0,0,0
0,0,0
0,0,0
0,0,0
0,0,0
0,0,0
0,0,0
0,0,0
0,0,0
0,0,0
0,0,0
0,0,0
0,0,0
0,0,0
0,0,0
0,0,0
0,0,0
0,0,0
0,0,0
0,0,0
0,0,0
0,0,0
0,0,0
0,0,0
0,0,0
0,0,0
0,0,0
0,0,0
0,0,0
0,0,0
0,0,0
0,0,0
0,0,0
0,0,0
0,0,0
0,0,0
0,0,0
0,0,0
0,0,0
0,0,0
0,0,0
0,0,0
0,0,0
0,0,0
0,0,0
0,0,0
0,0,0
0,0,0
0,0,0
0,0,0
0,0,0
0,0,0
0,0,0
0,0,0
0,0,0
0,0,0
0,0,0
0,0,0
0,0,0
0,0,0
0,0,0
0,0,0
0,0,0
0,0,0
0,0,0
0,0,0
0,0,0
0,0,0
0,0,0
0,0,0
0,0,0
0,0,0
0,0,0
0,0,0
0,0,0
0,0,0
0,0,0
0,0,0
0,0,0
0,0,0
0,0,0
0,0,0
0,0,0
0,0,0
0,0,0
0,0,0
0,0,0
0,0,0
0,0,0
0,0,0
0,0,0
0,0,0
0,0,0
0,0,0
0,0,0
0,0,0
0,0,0
0,0,0
0,0,0
0,0,0
0.19,0.4,0.91
0.2,0.4,0.91
0.2,0.4,0.9
0.19,0.4,0.89
0.2,0.39,0.89
0.2,0.39,0.9
0.2,0.39,0.89
0.21,0.39,0.89
0.21,0.39,0.89
0.2,0.4,0.89
0.21,0.39,0.9
0.2,0.39,0.9
0.2,0.38,0.9
0.2,0.38,0.9
0.2,0.38,0.9
0.2,0.38,0.9
0.2,0.38,0.91
0.21,0.39,0.91
0.2,0.4,0.89
0.18,0.4,0.88
0.18,0.4,0.88
0.19,0.4,0.89
0.2,0.4,0.89
0.21,0.4,0.9
0.22,0.4,0.9
0.22,0.4,0.9
0.21,0.4,0.9
0.2,0.39,0.9
0.2,0.39,0.89
0.2,0.39,0.89
0.2,0.39,0.89
0.21,0.38,0.89
0.21,0.38,0.9
0.21,0.38,0.9
0.21,0.38,0.9
0.21,0.38,0.9
0.21,0.38,0.9
0.21,0.38,0.9
0.2,0.39,0.9
0.2,0.39,0.89
0.2,0.39,0.89
0.19,0.39,0.89
0.2,0.39,0.9
0.21,0.4,0.9
0.21,0.39,0.9
0.19,0.39,0.9
0.19,0.4,0.9
0.18,0.39,0.9
0.19,0.39,0.9
0.39,0.18,1.1
0.41,0.16,1.01
0.44,0.13,0.95
0.44,0.1,0.93
0.44,0.08,0.94
0.45,0.07,0.95
0.46,0.08,0.96
0.47,0.08,0.96
0.46,0.08,0.95
0.44,0.08,0.95
0.43,0.08,0.96
0.42,0.07,0.99
0.4,0.08,1.01
0.38,0.09,1.01
0.38,0.09,0.98
0.38,0.09,0.95
0.4,0.09,0.92
0.42,0.08,0.87
0.45,0.06,0.87
0.45,0.06,0.88
0.46,0.05,0.9
0.49,0.03,0.91
0.49,0.03,0.91
0.49,0.04,0.89
0.51,0.03,0.87
0.52,0.04,0.85
0.54,0.05,0.84
0.54,0.05,0.84
0.53,0.06,0.84
0.51,0.06,0.84
0.5,0.07,0.85
0.48,0.07,0.84
0.48,0.07,0.83
0.49,0.08,0.82
0.5,0.08,0.81
0.5,0.09,0.81
0.49,0.09,0.81
0.49,0.1,0.82
0.48,0.09,0.84
0.48,0.09,0.84
0.47,0.1,0.84
0.47,0.1,0.84
0.48,0.1,0.85
0.47,0.1,0.83
0.46,0.1,0.83
0.47,0.1,0.84
0.47,0.1,0.85
0.47,0.11,0.87
0.46,0.12,0.88
0.46,0.12,0.89
0.46,0.12,0.89
0.45,0.12,0.89
0.45,0.12,0.88
0.45,0.13,0.88
0.45,0.13,0.88
0.44,0.13,0.87
0.43,0.13,0.88
0.43,0.13,0.88
0.43,0.13,0.89
0.45,0.12,0.89
0.47,0.12,0.9
0.48,0.13,0.91
0.47,0.13,0.91
0.46,0.13,0.91
0.46,0.13,0.91
0.46,0.14,0.91
0.46,0.14,0.91
0.46,0.14,0.9
0.46,0.13,0.89
0.46,0.13,0.89
0.46,0.15,0.89
0.46,0.14,0.89
0.46,0.14,0.89
0.47,0.14,0.89
0.47,0.14,0.89
0.47,0.14,0.88
0.47,0.14,0.88
0.47,0.13,0.87
0.47,0.13,0.87
0.47,0.13,0.87
0.47,0.13,0.87
0.47,0.13,0.87
0.47,0.13,0.88
0.47,0.13,0.88
0.47,0.13,0.88
0.47,0.13,0.88
0.47,0.12,0.88
0.47,0.12,0.87
0.48,0.11,0.87
0.48,0.11,0.87
0.48,0.11,0.87
0.48,0.11,0.87
0.48,0.11,0.87
0.48,0.11,0.87
0.48,0.11,0.86
0.47,0.11,0.86
0.48,0.1,0.87
0.48,0.09,0.87
0.47,0.09,0.87
0.47,0.09,0.87
0.47,0.08,0.86
0.47,0.08,0.87
0.47,0.07,0.87
0.47,0.07,0.86
0.47,0.07,0.87
0.47,0.07,0.87
0.48,0.06,0.88
0.48,0.06,0.88
0.46,0.06,0.87
0.46,0.06,0.86
0.46,0.06,0.86
0.46,0.06,0.86
0.48,0.06,0.87
0.49,0.05,0.88
0.48,0.05,0.89
0.48,0.05,0.89
0.48,0.05,0.89
0.47,0.05,0.88
0.48,0.05,0.87
0.48,0.05,0.88
0.48,0.05,0.87
0.49,0.05,0.87
0.49,0.05,0.86
0.48,0.06,0.86
0.49,0.06,0.86
0.49,0.06,0.86
0.5,0.05,0.86
0.5,0.05,0.87
0.51,0.05,0.88
0.53,0.05,0.88
0.54,0.04,0.9
0.56,0.04,0.92
0.57,0.04,0.93
0.57,0.04,0.94
0.55,0.04,0.93
0.54,0.04,0.91
0.52,0.04,0.89
0.51,0.04,0.87
0.5,0.03,0.87
0.49,0.03,0.88
0.5,0.01,0.89
0.5,0.01,0.89
0.5,0,0.89
0.51,0,0.89
0.52,0,0.89
0.52,0,0.88
0.52,0,0.88
0.52,0,0.87
0.53,0.01,0.87
0.54,0.01,0.87
0.53,0.02,0.88
0.53,0.02,0.89
0.53,0.01,0.89
0.52,0.01,0.89
0.51,0.01,0.88
0.5,0.01,0.87
0.5,0.01,0.86
0.5,0,0.85
0.5,-0.01,0.86
0.5,-0.01,0.86
0.5,-0.01,0.86
0.5,-0.01,0.86
0.49,-0.01,0.86
0.49,-0.01,0.86
0.49,-0.01,0.86
0.49,-0.01,0.85
0.49,-0.01,0.85
0.49,-0.01,0.86
0.5,-0.01,0.86
0.5,-0.01,0.87
0.51,0,0.87
0.51,0,0.87
0.51,0.01,0.87
0.51,0.01,0.87
0.51,0.01,0.88
0.51,0.01,0.88
0.5,0.01,0.88
0.5,0.01,0.88
0.51,0.01,0.88
0.52,0.01,0.88
0.53,0.01,0.88
0.53,0.01,0.87
0.53,0.01,0.87
0.53,0.02,0.86
0.53,0.01,0.86
0.53,0.01,0.86
0.54,0.01,0.86
0.54,0.01,0.86
0.54,0.01,0.86
0.53,0.01,0.86
0.53,0,0.86
0.53,0.01,0.86
0.54,0,0.86
0.54,0,0.85
0.55,0.01,0.85
0.55,0.01,0.84
0.56,0.01,0.84
0.56,0.01,0.84
0.56,0.01,0.84
0.56,0.01,0.84
0.56,0.01,0.84
0.57,0.01,0.83
0.58,0.01,0.83
0.58,0.01,0.82
0.57,0.01,0.83
0.57,0.01,0.83
0.56,0.01,0.83
0.56,0.01,0.83
0.57,0.01,0.83
0.58,0.01,0.83
0.58,0.01,0.83
0.58,0.01,0.83
0.58,0.02,0.83
0.59,0.02,0.82
0.59,0.01,0.82
0.59,0.02,0.83
0.59,0.02,0.82
0.59,0.02,0.82
0.59,0.02,0.82
0.59,0.02,0.82
0.6,0.02,0.82
0.6,0.02,0.82
0.6,0.02,0.82
0.59,0.03,0.82
0.59,0.03,0.82
0.6,0.03,0.82
0.6,0.04,0.82
0.6,0.04,0.82
0.59,0.04,0.83
0.59,0.04,0.83
0.59,0.04,0.83
0.59,0.04,0.83
0.59,0.04,0.83
0.59,0.04,0.83
0.6,0.03,0.83
0.59,0.03,0.83
0.59,0.03,0.83
0.59,0.03,0.83
0.59,0.02,0.82
0.59,0.02,0.82
0.59,0.02,0.82
0.6,0.02,0.81
0.6,0.02,0.81
0.6,0.02,0.81
0.6,0.02,0.81
0.6,0.02,0.82
0.6,0.01,0.82
0.6,0.01,0.82
0.59,0.01,0.81
0.6,0.02,0.81
0.6,0.02,0.81
0.59,0.02,0.82
0.58,0.01,0.83
0.58,0.01,0.83
0.58,0.01,0.82
0.58,0.01,0.83
0.58,0.02,0.83
0.58,0.02,0.83
0.58,0.02,0.83
0.58,0.02,0.83
0.57,0.01,0.83
0.57,0.01,0.83
0.57,0.02,0.83
0.57,0.01,0.83
0.57,0.02,0.83
0.57,0.02,0.83
0.57,0.01,0.83
0.57,0.01,0.84
0.57,0.01,0.84
0.57,0.01,0.83
0.57,0,0.83
0.57,0,0.83
0.57,0,0.83
0.57,0,0.83
0.56,-0.01,0.83
0.56,0,0.83
0.56,0,0.83
0.56,0,0.83
0.57,0,0.84
0.56,0.01,0.84
0.56,0.01,0.84
0.56,0.01,0.84
0.56,0,0.83
0.56,0,0.84
0.56,0,0.84
0.56,0,0.84
0.56,0,0.84
0.56,0,0.84
0.56,0,0.84
0.56,0,0.84
0.56,0,0.84
0.55,0,0.85
0.55,0,0.84
0.55,0,0.84
0.55,0,0.84
0.55,0,0.84
0.56,-0.01,0.84
0.56,0,0.84
0.56,0,0.85
0.55,0,0.85
0.55,0,0.85
0.56,0,0.85
0.56,0,0.84
0.55,0,0.84
0.55,0,0.85
0.55,0,0.85
0.55,0,0.85
0.55,0,0.85
0.55,0,0.85
0.55,-0.01,0.85
0.55,0,0.85
0.55,0,0.85
0.55,0,0.85
0.55,0,0.84
0.55,0,0.84
0.55,0,0.85
0.55,0,0.85
0.55,0,0.85
0.55,-0.01,0.84
0.55,-0.01,0.84
0.55,0,0.85
0.55,0,0.85
0.54,0,0.85
0.54,0,0.85
0.54,0,0.86
0.54,0,0.86
0.54,0,0.85
0.54,0,0.85
0.54,0,0.85
0.54,0,0.85
0.54,0,0.85
0.54,-0.01,0.85
0.54,-0.01,0.85
0.54,-0.01,0.86
0.54,-0.01,0.85
0.54,-0.01,0.85
0.55,-0.01,0.85
0.55,-0.01,0.85
0.55,-0.01,0.85
0.55,-0.01,0.85
0.54,-0.01,0.85
0.55,-0.02,0.85
0.55,-0.02,0.85
0.55,-0.02,0.85
0.54,-0.01,0.85
0.54,-0.01,0.85
0.54,-0.01,0.85
0.54,-0.01,0.85
0.55,0,0.85
0.55,0,0.85
0.54,0,0.85
0.54,-0.01,0.85
0.54,-0.01,0.85
0.54,-0.01,0.85
0.54,-0.01,0.85
0.54,-0.02,0.85
0.54,-0.01,0.85
0.54,-0.01,0.85
0.54,-0.01,0.85
0.54,-0.01,0.85
0.54,-0.02,0.85
0.54,-0.02,0.85
0.54,-0.02,0.85
0.54,-0.02,0.85
0.54,-0.02,0.85
0.54,-0.02,0.85
0.54,-0.02,0.85
0.54,-0.02,0.85
0.54,-0.02,0.85
0.53,-0.02,0.85
0.54,-0.02,0.85
0.54,-0.02,0.85
0.54,-0.02,0.85
0.53,-0.02,0.86
0.53,-0.02,0.86
0.54,-0.02,0.86
0.54,-0.02,0.86
0.54,-0.02,0.85
0.54,-0.02,0.85
0.54,-0.02,0.85
0.54,-0.02,0.85
0.54,-0.02,0.85
0.54,-0.02,0.86
0.53,-0.02,0.86
0.53,-0.02,0.86
0.53,-0.02,0.86
0.53,-0.02,0.86
0.53,-0.02,0.86
0.53,-0.02,0.85
0.54,-0.02,0.85
0.54,-0.02,0.85
0.54,-0.02,0.86
0.53,-0.02,0.86
0.53,-0.02,0.86
0.53,-0.02,0.85
0.53,-0.01,0.85
0.53,-0.02,0.85
0.52,-0.02,0.85
0.53,-0.01,0.85
0.53,-0.01,0.84
0.54,0,0.84
0.54,0,0.85
0.55,-0.02,0.85
0.56,-0.04,0.85
0.56,-0.04,0.84
0.55,-0.04,0.83
0.55,-0.03,0.83
0.55,-0.03,0.83
0.55,-0.02,0.82
0.55,-0.01,0.83
0.57,-0.01,0.84
0.56,-0.01,0.83
0.56,-0.01,0.84
0.56,-0.01,0.84
0.55,-0.01,0.85
0.54,-0.02,0.85
0.54,-0.01,0.85
0.55,-0.01,0.85
0.56,-0.02,0.84
0.57,-0.02,0.84
0.58,-0.02,0.84
0.58,-0.02,0.85
0.58,-0.01,0.85
0.58,0,0.85
0.57,0,0.85
0.57,0,0.85
0.57,0,0.85
0.59,0,0.86
0.61,0.01,0.87
0.61,0.01,0.87
0.6,0.02,0.87
0.59,0.03,0.87
0.59,0.03,0.86
0.61,0.01,0.83
0.65,-0.17,0.69
0.57,-0.23,0.75
0.55,-0.17,0.73
0.57,-0.17,0.73
0.57,-0.16,0.74
0.55,-0.15,0.73
0.54,-0.16,0.71
0.58,-0.16,0.72
0.63,-0.14,0.73
0.63,-0.12,0.74
0.6,-0.1,0.73
0.6,-0.09,0.72
0.6,-0.08,0.73
0.6,-0.07,0.75
0.57,-0.06,0.78
0.5,-0.04,0.79
0.48,-0.03,0.8
0.47,-0.01,0.8
0.47,-0.01,0.79
0.49,-0.01,0.79
0.52,0.01,0.79
0.53,0.02,0.8
0.5,0.02,0.82
0.46,0.04,0.86
0.41,0.06,0.88
0.38,0.04,0.87
0.36,0.06,0.88
0.33,0.13,0.88
0.27,0.14,0.85
0.23,0.14,0.82
0.23,0.14,0.8
0.25,0.12,0.79
0.27,0.09,0.8
0.31,0.06,0.83
0.37,0,0.88
0.4,-0.06,0.92
0.42,-0.1,0.93
0.46,-0.11,0.93
0.48,-0.14,0.91
0.49,-0.15,0.91
0.5,-0.19,0.91
0.53,-0.25,0.9
0.6,-0.28,0.88
0.64,-0.3,0.83
0.63,-0.33,0.77
0.62,-0.36,0.69
0.64,-0.4,0.63
0.7,-0.46,0.6
0.76,-0.5,0.6
0.78,-0.57,0.64
0.8,-0.69,0.71
0.88,-0.76,0.77
0.9,-0.75,0.81
0.81,-0.75,0.79
0.65,-0.85,0.66
0.64,-0.91,0.6
0.65,-0.98,0.55
0.66,-1.01,0.53
0.63,-1.04,0.52
0.6,-1.09,0.5
0.6,-1.1,0.46
0.58,-1.13,0.41
0.55,-1.19,0.36
0.53,-1.24,0.33
0.51,-1.3,0.32
0.48,-1.37,0.31
0.48,-1.44,0.28
0.48,-1.49,0.24
0.49,-1.52,0.19
0.5,-1.53,0.11
0.48,-1.53,0.06
0.45,-1.53,0.01
0.41,-1.5,-0.04
0.36,-1.49,-0.08
0.29,-1.46,-0.09
0.25,-1.43,-0.08
0.2,-1.39,-0.07
0.15,-1.35,-0.06
0.13,-1.32,-0.04
0.13,-1.3,-0.02
0.14,-1.18,0.01
0.01,-1.12,0.1
-0.01,-1.13,0.11
0.09,-1.07,0.06
0.15,-0.97,0.04
0.11,-0.89,0.03
0.03,-0.82,0.04
-0.03,-0.77,0.05
-0.03,-0.72,0.05
-0.02,-0.68,0.06
0,-0.67,0.07
0,-0.66,0.07
-0.02,-0.66,0.08
-0.06,-0.66,0.09
-0.08,-0.64,0.09
-0.08,-0.64,0.09
-0.09,-0.64,0.08
-0.11,-0.64,0.07
-0.12,-0.64,0.06
-0.12,-0.63,0.06
-0.1,-0.64,0.06
-0.08,-0.66,0.06
-0.06,-0.7,0.07
-0.05,-0.74,0.06
-0.06,-0.77,0.05
-0.07,-0.78,0.03
-0.07,-0.76,-0.02
-0.04,-0.75,-0.03
-0.01,-0.76,-0.03
0.01,-0.78,-0.02
0.03,-0.79,-0.01
0.05,-0.79,0.01
0.06,-0.78,0.02
0.08,-0.79,0.03
0.09,-0.8,0.03
0.1,-0.82,0.01
0.1,-0.83,0.01
0.09,-0.85,0
0.08,-0.86,0
0.09,-0.87,0.01
0.11,-0.89,0.01
0.13,-0.91,0.02
0.14,-0.94,0.04
0.14,-0.97,0.05
0.15,-0.97,0.06
0.14,-0.96,0.07
0.14,-0.95,0.09
0.14,-0.95,0.11
0.15,-0.95,0.13
0.17,-0.97,0.15
0.18,-0.99,0.17
0.19,-1.01,0.19
0.19,-1.02,0.22
0.18,-1.01,0.23
0.18,-1,0.25
0.17,-0.99,0.25
0.17,-0.99,0.26
0.16,-1.01,0.27
0.16,-1.06,0.27
0.18,-1.16,0.27
0.19,-1.27,0.27
0.17,-1.35,0.23
0.13,-1.38,0.17
0.08,-1.36,0.11
0.06,-1.31,0.05
0.06,-1.27,0.03
0.09,-1.26,0.02
0.14,-1.25,0.02
0.19,-1.25,0.02
0.22,-1.25,0.01
0.23,-1.26,0
0.23,-1.27,-0.03
0.23,-1.27,-0.07
0.24,-1.25,-0.09
0.25,-1.21,-0.1
0.27,-1.16,-0.1
0.29,-1.13,-0.08
0.29,-1.11,-0.05
0.28,-1.12,-0.03
0.25,-1.13,-0.04
0.3,-1.12,-0.06
0.3,-1.1,-0.06
0.22,-1.07,-0.07
0.2,-1.03,-0.09
0.25,-1,-0.09
0.27,-0.98,-0.1
0.26,-0.95,-0.06
0.23,-0.93,-0.01
0.23,-0.92,0
0.25,-0.92,0.01
0.27,-0.92,0.01
0.27,-0.91,0
0.25,-0.91,0.01
0.24,-0.91,0.03
0.23,-0.91,0.03
0.24,-0.9,0.03
0.27,-0.91,0.03
0.3,-0.91,0.02
0.34,-0.92,0
0.35,-0.94,0
0.34,-0.96,0
0.34,-0.98,0
0.36,-0.98,-0.01
0.4,-0.99,-0.01
0.43,-1,-0.02
0.47,-1.01,-0.02
0.47,-1.01,-0.02
0.48,-1.02,-0.02
0.5,-1.01,-0.01
0.51,-1,-0.01
0.53,-0.98,-0.01
0.54,-0.97,-0.01
0.54,-0.95,0
0.53,-0.93,0
0.53,-0.9,0.01
0.53,-0.88,0.02
0.54,-0.85,0.03
0.55,-0.82,0.05
0.55,-0.8,0.07
0.57,-0.78,0.07
0.58,-0.77,0.07
0.6,-0.76,0.07
0.61,-0.76,0.08
0.61,-0.76,0.09
0.6,-0.76,0.1
0.59,-0.76,0.11
0.58,-0.75,0.12
0.58,-0.73,0.13
0.58,-0.71,0.14
0.58,-0.7,0.14
0.57,-0.69,0.14
0.57,-0.67,0.14
0.57,-0.66,0.14
0.57,-0.66,0.15
0.57,-0.66,0.15
0.56,-0.65,0.16
0.56,-0.65,0.17
0.55,-0.63,0.18
0.55,-0.63,0.18
0.55,-0.64,0.17
0.54,-0.64,0.17
0.54,-0.65,0.17
0.53,-0.65,0.17
0.53,-0.67,0.17
0.53,-0.69,0.17
0.52,-0.7,0.17
0.52,-0.71,0.18
0.51,-0.72,0.19
0.5,-0.72,0.19
0.49,-0.73,0.2
0.48,-0.74,0.2
0.47,-0.76,0.19
0.46,-0.77,0.18
0.45,-0.79,0.18
0.45,-0.81,0.18
0.44,-0.83,0.17
0.43,-0.86,0.17
0.43,-0.95,0.16
0.42,-1,0.16
0.41,-1.04,0.16
0.4,-1.06,0.17
0.39,-1.06,0.17
0.38,-1.06,0.18
0.37,-1.05,0.18
0.37,-1.03,0.17
0.36,-1.01,0.2
0.26,-1.02,0.25
0.31,-1.02,0.21
0.5,-1.01,0.14
0.53,-1.01,0.15
0.46,-1,0.18
0.39,-1.02,0.19
0.36,-1.05,0.18
0.38,-1.06,0.17
0.4,-1.06,0.16
0.38,-1.07,0.14
0.36,-1.08,0.13
0.35,-1.09,0.13
0.34,-1.09,0.12
0.33,-1.09,0.13
0.33,-1.08,0.13
0.33,-1.06,0.12
0.34,-1.04,0.09
0.32,-1.01,0.1
0.26,-1,0.1
0.27,-0.98,0.09
0.29,-0.96,0.09
0.29,-0.96,0.09
0.3,-0.97,0.08
0.29,-0.97,0.08
0.26,-0.98,0.08
0.25,-0.99,0.06
0.25,-0.99,0.04
0.25,-0.99,0.04
0.25,-0.98,0.06
0.23,-0.98,0.07
0.24,-0.97,0.05
0.24,-0.97,0.06
0.22,-0.96,0.08
0.18,-0.96,0.1
0.19,-0.96,0.1
0.24,-0.96,0.1
0.27,-0.94,0.11
0.26,-0.94,0.12
0.23,-0.94,0.13
0.21,-0.94,0.14
0.2,-0.94,0.15
0.21,-0.94,0.15
0.22,-0.94,0.16
0.23,-0.94,0.17
0.23,-0.94,0.2
0.21,-0.94,0.22
0.21,-0.94,0.22
0.24,-0.94,0.21
0.24,-0.93,0.22
0.23,-0.94,0.22
0.23,-0.95,0.23
0.23,-0.95,0.24
0.23,-0.96,0.24
0.23,-0.98,0.25
0.22,-0.99,0.25
0.22,-0.99,0.25
0.21,-0.99,0.24
0.19,-0.99,0.24
0.18,-0.99,0.24
0.17,-1,0.23
0.16,-1,0.23
0.16,-1.01,0.23
0.14,-1.02,0.23
0.14,-1.02,0.22
0.14,-1.02,0.21
0.14,-1.01,0.21
0.14,-0.99,0.19
0.15,-0.97,0.18
0.17,-0.94,0.17
0.17,-0.94,0.16
0.16,-0.96,0.14
0.17,-0.97,0.14
0.17,-0.99,0.14
0.21,-1.01,0.12
0.23,-1.03,0.1
0.17,-1.03,0.11
0.18,-1.05,0.12
0.17,-1.07,0.12
0.16,-1.06,0.11
0.17,-1.07,0.11
0.17,-1.06,0.11
0.17,-1.05,0.1
0.14,-1.04,0.09
0.16,-1.04,0.1
0.18,-1.04,0.08
0.19,-1.02,0.06
0.2,-1.01,0.06
0.16,-1.02,0.05
0.15,-1.02,0.06
0.17,-1.02,0.06
0.19,-1,0.05
0.19,-0.98,0.05
0.19,-0.97,0.04
0.2,-0.97,0.05
0.21,-0.96,0.04
0.22,-0.95,0.03
0.23,-0.95,0.03
0.24,-0.94,0.03
0.25,-0.95,0.02
0.26,-0.97,0.01
0.27,-0.99,0
0.28,-1.01,-0.01
0.29,-1.02,-0.02
0.3,-1.03,-0.02
0.3,-1.04,-0.02
0.3,-1.05,-0.02
0.3,-1.05,-0.02
0.29,-1.04,-0.02
0.29,-1.02,-0.02
0.29,-1.01,-0.02
0.29,-1,-0.02
0.3,-0.99,-0.02
0.3,-0.99,-0.02
0.3,-0.99,-0.03
0.3,-0.98,-0.03
0.31,-0.97,-0.03
0.31,-0.96,-0.03
0.31,-0.96,-0.02
0.31,-0.97,-0.02
0.31,-0.97,-0.02
0.31,-0.98,-0.03
0.31,-0.99,-0.03
0.31,-1,-0.03
0.32,-1.01,-0.03
0.31,-1.02,-0.03
0.31,-1.02,-0.03
0.31,-1.02,-0.03
0.31,-1.02,-0.03
0.31,-1.02,-0.02
0.31,-1.03,-0.02
0.31,-1.03,-0.01
0.31,-1.03,-0.01
0.3,-1.03,-0.01
0.3,-1.04,0
0.29,-1.04,0
0.29,-1.03,0
0.29,-1.03,0
0.29,-1.02,0
0.29,-1.01,0.01
0.28,-1,0.01
0.28,-1,0.02
0.27,-0.99,0.02
0.26,-0.98,0.03
0.26,-0.97,0.03
0.25,-0.97,0.03
0.25,-0.98,0.03
0.25,-1.02,0.03
0.26,-1.06,0.01
0.26,-1.11,0
0.25,-1.12,0
0.24,-1.12,-0.01
0.24,-1.09,-0.01
0.25,-1.04,-0.01
0.25,-0.98,0
0.25,-0.92,0
0.26,-0.87,0.02
0.28,-0.85,0.04
0.3,-0.83,0.05
0.3,-0.83,0.07
0.29,-0.84,0.09
0.29,-0.85,0.1
0.28,-0.86,0.11
0.26,-0.87,0.12
0.25,-0.86,0.13
0.25,-0.86,0.14
0.26,-0.86,0.15
0.26,-0.87,0.16
0.26,-0.89,0.17
0.25,-0.9,0.19
0.25,-0.92,0.21
0.24,-0.94,0.23
0.25,-0.95,0.24
0.25,-0.96,0.25
0.25,-0.97,0.26
0.24,-0.98,0.27
0.24,-0.97,0.28
0.25,-0.97,0.29
0.26,-0.96,0.3
0.28,-0.96,0.3
0.3,-0.95,0.31
0.31,-0.95,0.32
0.32,-0.95,0.32
0.34,-0.96,0.32
0.35,-0.96,0.32
0.36,-0.96,0.31
0.37,-0.96,0.29
0.38,-0.96,0.28
0.39,-0.96,0.27
0.4,-0.96,0.26
0.4,-0.96,0.26
0.38,-0.95,0.26
0.36,-0.95,0.25
0.35,-0.96,0.24
0.33,-0.97,0.24
0.31,-0.98,0.23
0.3,-0.99,0.24
0.29,-1,0.24
0.28,-1,0.23
0.27,-1.01,0.22
0.26,-1.01,0.22
0.24,-1.01,0.22
0.23,-1,0.22
0.22,-1,0.22
0.22,-1,0.22
0.21,-0.99,0.21
0.21,-0.98,0.21
0.21,-0.96,0.2
0.21,-0.96,0.2
0.21,-0.96,0.19
0.2,-0.95,0.19
0.2,-0.94,0.2
0.19,-0.93,0.2
0.19,-0.92,0.2
0.19,-0.9,0.21
0.21,-0.89,0.21
0.23,-0.89,0.21
0.24,-0.88,0.22
0.26,-0.88,0.21
0.28,-0.88,0.22
0.29,-0.88,0.22
0.32,-0.89,0.22
0.34,-0.9,0.21
0.36,-0.91,0.22
0.35,-0.91,0.24
0.35,-0.92,0.25
0.39,-0.94,0.27
0.34,-0.96,0.28
0.34,-0.96,0.28
0.37,-0.95,0.27
0.35,-0.96,0.29
0.33,-0.96,0.29
0.33,-0.96,0.29
0.34,-0.96,0.29
0.33,-0.96,0.3
0.32,-0.96,0.3
0.32,-0.95,0.28
0.34,-0.95,0.27
0.33,-0.94,0.26
0.31,-0.94,0.25
0.29,-0.94,0.24
0.27,-0.93,0.24
0.25,-0.93,0.24
0.24,-0.92,0.25
0.22,-0.92,0.25
0.21,-0.93,0.26
0.2,-0.97,0.27
0.2,-1.05,0.27
0.22,-1.17,0.27
0.24,-1.28,0.27
0.24,-1.34,0.24
0.21,-1.35,0.22
0.18,-1.29,0.18
0.13,-1.09,0.16
0.15,-0.99,0.15
0.17,-0.88,0.14
0.19,-0.81,0.14
0.2,-0.78,0.13
0.2,-0.77,0.12
0.21,-0.8,0.1
0.21,-0.83,0.09
0.23,-0.87,0.07
0.23,-0.9,0.05
0.23,-0.93,0.04
0.23,-0.96,0.03
0.22,-0.98,0.02
0.23,-1,0.02
0.25,-1.01,0
0.26,-1.02,-0.01
0.27,-1.02,-0.01
0.27,-1.02,-0.02
0.28,-1.01,-0.03
0.29,-1,-0.03
0.3,-0.98,-0.03
0.31,-0.98,-0.02
0.32,-0.98,-0.02
0.32,-0.99,-0.02
0.32,-1,-0.02
0.32,-1.01,-0.02
0.31,-1.04,-0.04
0.3,-1.04,-0.04
0.29,-1.03,-0.04
0.3,-1.02,-0.04
0.3,-1.02,-0.03
0.3,-1.02,-0.03
0.3,-1.01,-0.03
0.31,-1,-0.03
0.31,-0.99,-0.03
0.3,-0.99,-0.03
0.3,-0.98,-0.02
0.3,-0.98,-0.02
0.31,-0.98,-0.02
0.31,-0.97,-0.02
0.31,-0.97,-0.02
0.32,-0.96,-0.02
0.32,-0.96,-0.01
0.32,-0.95,0
0.32,-0.95,0
0.33,-0.94,0.01
0.32,-0.94,0.03
0.33,-0.94,0.04
0.33,-0.93,0.05
0.34,-0.94,0.06
0.34,-0.93,0.06
0.34,-0.93,0.07
0.35,-0.93,0.08
0.35,-0.93,0.08
0.35,-0.93,0.09
0.35,-0.93,0.1
0.35,-0.94,0.1
0.36,-0.94,0.11
0.36,-0.95,0.11
0.36,-0.95,0.12
0.37,-0.96,0.12
0.37,-0.96,0.12
0.37,-0.96,0.13
0.37,-0.96,0.13
0.37,-0.96,0.13
0.36,-0.96,0.14
0.36,-0.95,0.14
0.36,-0.95,0.15
0.36,-0.95,0.15
0.36,-0.95,0.15
0.35,-0.95,0.16
0.35,-0.95,0.16
0.34,-0.95,0.16
0.34,-0.95,0.16
0.33,-0.95,0.16
0.33,-0.94,0.15
0.33,-0.94,0.15
0.33,-0.92,0.16
0.32,-0.88,0.16
0.33,-0.86,0.15
0.35,-0.84,0.15
0.36,-0.81,0.15
0.36,-0.78,0.16
0.36,-0.75,0.17
0.35,-0.73,0.18
0.36,-0.71,0.18
0.38,-0.69,0.17
0.41,-0.68,0.15
0.44,-0.66,0.15
0.48,-0.65,0.15
0.49,-0.64,0.17
0.5,-0.61,0.2
0.51,-0.58,0.19
0.54,-0.56,0.17
0.58,-0.53,0.12
0.59,-0.52,0.09
0.62,-0.5,0.08
0.65,-0.48,0.13
0.65,-0.45,0.24
0.66,-0.39,0.32
0.68,-0.3,0.31
0.68,-0.25,0.27
0.66,-0.21,0.21
0.65,-0.18,0.16
0.59,-0.17,0.13
0.6,-0.29,0.14
0.57,-0.27,0.14
0.48,-0.23,0.18
0.35,-0.23,0.16
0.31,-0.23,0.06
0.31,-0.18,-0.01
0.31,-0.18,0
0.28,-0.22,0.03
0.2,-0.25,0.04
0.11,-0.27,0.02
0.07,-0.32,-0.02
0.1,-0.38,-0.06
0.19,-0.49,-0.1
0.26,-0.46,-0.07
0.28,-0.44,-0.07
0.34,-0.82,0.01
0.44,-1.02,0.18
0.55,-0.9,0.16
0.74,-1.01,0.06
0.83,-0.94,0.03
0.87,-0.74,0.09
0.75,-1,0.25
0.86,-1.06,0.31
0.97,-0.84,0.26
0.73,-0.89,0.27
0.67,-0.83,-0.05
0.61,-0.88,-0.11
0.5,-1.01,0.18
0.39,-1.04,0.11
0.28,-0.98,0.01
0.07,-1.15,-0.03
-0.08,-1.34,-0.12
-0.21,-1.54,-0.34
-0.34,-1.96,-0.58
-0.41,-2.34,-0.75
-0.39,-2.43,-0.9
-1.15,-1.9,-1.44
0.22,-2.67,-2.28
3.2,-3.99,0.65
0.02,-4,3.92
-3.97,-3.17,-0.03
-0.46,-2.62,-1.69
1.7,-2.73,0.41
0.34,-1.72,0.78
1.01,-0.53,1.26
1.43,-0.28,0.91
0.75,-0.45,0.42
0.41,-0.64,0.28
0.47,-0.53,0.5
0.64,-0.49,0.9
0.67,-0.76,1.03
0.58,-0.81,0.86
0.52,-0.45,1.14
0.3,-0.02,1.08
0.48,0.17,0.46
1.01,-0.24,-0.11
0.97,-0.88,-0.26
0.46,-1.18,-0.19
0.33,-1.27,-0.07
0.38,-1.36,0.08
0.17,-1.24,0.22
0.17,-0.97,0.48
0.34,-0.84,0.73
0.38,-0.56,0.73
0.51,-0.33,0.78
0.65,-0.62,0.84
0.39,-1.02,0.5
0.22,-1.15,0.15
0.32,-1.07,0.1
0.33,-0.93,0.2
0.42,-0.84,0.34
0.45,-0.8,0.37
0.39,-0.81,0.35
0.46,-0.83,0.42
0.43,-0.83,0.44
0.32,-0.76,0.41
0.35,-0.79,0.44
0.35,-0.84,0.39
0.31,-0.81,0.43
0.36,-0.9,0.46
0.35,-0.94,0.42
0.34,-0.9,0.39
0.33,-0.86,0.36
0.35,-0.85,0.34
0.39,-0.88,0.35
0.34,-0.86,0.31
0.31,-0.84,0.31
0.37,-0.9,0.39
0.37,-0.94,0.41
0.36,-0.93,0.39
0.31,-0.9,0.36
0.3,-0.89,0.36
0.31,-0.91,0.39
0.28,-0.9,0.37
0.3,-0.9,0.34
0.35,-0.93,0.34
0.32,-0.91,0.31
0.33,-0.89,0.33
0.34,-0.92,0.35
0.3,-0.9,0.35
0.3,-0.9,0.36
0.29,-0.91,0.35
0.28,-0.9,0.34
0.31,-0.91,0.36
0.28,-0.91,0.32
0.31,-0.91,0.34
0.3,-0.92,0.34
0.28,-0.92,0.32
0.28,-0.92,0.32
0.29,-0.9,0.32
0.31,-0.9,0.32
0.32,-0.91,0.33
0.31,-0.93,0.32
0.26,-0.92,0.31
0.24,-0.91,0.32
0.26,-0.92,0.34
0.28,-0.93,0.35
0.3,-0.92,0.34
0.3,-0.9,0.32
0.31,-0.91,0.34
0.32,-0.94,0.35
0.29,-0.92,0.33
0.28,-0.91,0.33
0.28,-0.91,0.32
0.27,-0.9,0.31
0.3,-0.92,0.34
0.31,-0.94,0.33
0.29,-0.93,0.32
0.3,-0.92,0.32
0.28,-0.91,0.31
0.27,-0.92,0.33
0.3,-0.94,0.34
0.3,-0.93,0.34
0.28,-0.92,0.32
0.29,-0.92,0.33
0.29,-0.93,0.33
0.28,-0.9,0.32
0.32,-0.92,0.34
0.31,-0.93,0.34
0.28,-0.92,0.3
0.27,-0.91,0.29
0.28,-0.92,0.32
0.29,-0.93,0.33
0.29,-0.93,0.33
0.29,-0.91,0.32
0.28,-0.9,0.3
0.3,-0.92,0.31
0.3,-0.93,0.32
0.3,-0.93,0.32
0.32,-0.94,0.34
0.3,-0.92,0.32
0.3,-0.91,0.31
0.3,-0.91,0.31
0.3,-0.92,0.31
0.29,-0.93,0.31
0.27,-0.91,0.31
0.3,-0.94,0.35
0.31,-0.93,0.33
0.31,-0.92,0.33
0.3,-0.91,0.3
0.28,-0.9,0.29
0.3,-0.91,0.33
0.32,-0.93,0.33
0.31,-0.93,0.32
0.3,-0.93,0.31
0.29,-0.91,0.31
0.29,-0.91,0.33
0.31,-0.93,0.34
0.29,-0.91,0.32
0.3,-0.91,0.33
0.31,-0.92,0.33
0.29,-0.91,0.32
0.3,-0.92,0.34
0.3,-0.93,0.34
0.29,-0.92,0.33
0.29,-0.91,0.32
0.28,-0.91,0.31
0.29,-0.91,0.31
0.31,-0.92,0.32
0.31,-0.94,0.33
0.29,-0.93,0.32
0.27,-0.92,0.31
0.28,-0.92,0.32
0.31,-0.93,0.31
0.29,-0.92,0.31
0.28,-0.92,0.31
0.27,-0.93,0.31
0.24,-0.91,0.32
0.27,-0.92,0.35
0.29,-0.94,0.35
0.29,-0.93,0.33
0.29,-0.92,0.32
0.27,-0.91,0.29
0.26,-0.92,0.29
0.29,-0.93,0.32
0.3,-0.93,0.31
0.29,-0.91,0.3
0.29,-0.91,0.31
0.3,-0.93,0.32
0.29,-0.94,0.34
0.28,-0.94,0.33
0.27,-0.93,0.32
0.26,-0.92,0.31
0.26,-0.92,0.31
0.27,-0.92,0.32
0.27,-0.92,0.32
0.27,-0.92,0.32
0.28,-0.93,0.32
0.28,-0.93,0.33
0.26,-0.93,0.32
0.25,-0.92,0.32
0.26,-0.91,0.31
0.27,-0.92,0.31
0.28,-0.94,0.32
0.28,-0.94,0.31
0.27,-0.94,0.29
0.26,-0.92,0.29
0.26,-0.93,0.31
0.26,-0.94,0.33
0.27,-0.93,0.34
0.29,-0.93,0.35
0.27,-0.93,0.33
0.26,-0.92,0.31
0.26,-0.93,0.32
0.27,-0.93,0.33
0.25,-0.92,0.32
0.25,-0.92,0.33
0.27,-0.93,0.34
0.25,-0.92,0.33
0.26,-0.92,0.33
0.27,-0.93,0.33
0.26,-0.93,0.32
0.25,-0.93,0.31
0.27,-0.93,0.33
0.27,-0.94,0.32
0.26,-0.92,0.33
0.26,-0.93,0.32
0.26,-0.92,0.32
0.27,-0.92,0.33
0.27,-0.93,0.33
0.27,-0.94,0.33
0.26,-0.93,0.33
0.25,-0.93,0.33
0.26,-0.93,0.34
0.25,-0.92,0.33
0.25,-0.91,0.34
0.26,-0.92,0.34
0.25,-0.92,0.33
0.25,-0.93,0.33
0.26,-0.92,0.33
0.27,-0.92,0.34
0.29,-0.93,0.34
0.28,-0.93,0.33
0.27,-0.93,0.32
0.25,-0.92,0.32
0.25,-0.91,0.32
0.27,-0.92,0.34
0.28,-0.92,0.35
0.27,-0.91,0.34
0.26,-0.91,0.34
0.27,-0.93,0.35
0.26,-0.92,0.36
0.28,-0.92,0.35
0.27,-0.92,0.33
0.27,-0.92,0.32
0.28,-0.92,0.32
0.28,-0.92,0.32
0.26,-0.92,0.33
0.27,-0.93,0.33
0.29,-0.94,0.34
0.28,-0.93,0.33
0.27,-0.91,0.31
0.27,-0.91,0.32
0.29,-0.93,0.34
0.28,-0.94,0.33
0.27,-0.92,0.34
0.27,-0.92,0.34
0.26,-0.92,0.34
0.26,-0.92,0.34
0.27,-0.92,0.34
0.28,-0.92,0.34
0.28,-0.93,0.34
0.27,-0.92,0.33
0.27,-0.92,0.33
0.27,-0.93,0.34
0.25,-0.92,0.33
0.26,-0.91,0.35
0.29,-0.92,0.34
0.28,-0.92,0.33
0.28,-0.92,0.33
0.27,-0.93,0.33
0.28,-0.93,0.34
0.28,-0.93,0.34
0.27,-0.92,0.33
0.27,-0.91,0.33
0.27,-0.91,0.33
0.29,-0.91,0.34
0.3,-0.91,0.34
0.29,-0.93,0.35
0.28,-0.93,0.34
0.28,-0.92,0.34
0.28,-0.92,0.35
0.27,-0.91,0.34
0.27,-0.91,0.34
0.29,-0.92,0.35
0.29,-0.93,0.35
0.29,-0.92,0.33
0.28,-0.9,0.33
0.29,-0.9,0.34
0.3,-0.93,0.35
0.27,-0.91,0.33
0.28,-0.9,0.34
0.3,-0.93,0.35
0.28,-0.91,0.35
0.28,-0.91,0.35
0.28,-0.91,0.34
0.29,-0.91,0.34
0.28,-0.91,0.35
0.29,-0.91,0.35
0.3,-0.9,0.35
0.31,-0.91,0.36
0.3,-0.92,0.36
0.29,-0.92,0.35
0.29,-0.91,0.36
0.3,-0.92,0.37
0.28,-0.91,0.36
0.28,-0.9,0.36
0.29,-0.91,0.36
0.29,-0.91,0.35
0.3,-0.91,0.36
0.29,-0.91,0.35
0.29,-0.91,0.35
0.29,-0.9,0.35
0.29,-0.91,0.36
0.3,-0.91,0.37
0.3,-0.91,0.36
0.28,-0.91,0.35
0.29,-0.91,0.35
0.29,-0.91,0.35
0.28,-0.91,0.35
0.3,-0.91,0.36
0.31,-0.91,0.36
0.29,-0.9,0.35
0.3,-0.9,0.35
0.3,-0.92,0.36
0.29,-0.92,0.36
0.28,-0.92,0.35
0.27,-0.9,0.35
0.28,-0.9,0.36
0.28,-0.91,0.36
0.28,-0.9,0.35
0.3,-0.9,0.36
0.31,-0.92,0.36
0.28,-0.91,0.34
0.27,-0.9,0.34
0.29,-0.91,0.37
0.29,-0.92,0.37
0.28,-0.91,0.36
0.29,-0.91,0.36
0.29,-0.9,0.35
0.29,-0.9,0.34
0.3,-0.91,0.35
0.29,-0.92,0.35
0.28,-0.91,0.34
0.28,-0.9,0.35
0.3,-0.91,0.36
0.3,-0.91,0.36
0.31,-0.91,0.36
0.3,-0.91,0.35
0.28,-0.91,0.34
0.28,-0.91,0.36
0.28,-0.92,0.37
0.28,-0.91,0.37
0.28,-0.9,0.36
0.29,-0.9,0.36
0.29,-0.9,0.35
0.28,-0.89,0.35
0.3,-0.91,0.37
0.3,-0.93,0.37
0.29,-0.91,0.36
0.28,-0.9,0.37
0.28,-0.92,0.37
0.27,-0.91,0.36
0.27,-0.9,0.34
0.28,-0.89,0.36
0.29,-0.9,0.37
0.29,-0.92,0.37
0.28,-0.91,0.36
0.28,-0.91,0.36
0.28,-0.91,0.36
0.27,-0.9,0.34
0.28,-0.9,0.36
0.3,-0.91,0.36
0.29,-0.91,0.36
0.29,-0.91,0.37
0.28,-0.92,0.37
0.26,-0.9,0.35
0.28,-0.9,0.36
0.3,-0.9,0.38
0.29,-0.9,0.37
0.3,-0.9,0.38
0.3,-0.92,0.38
0.29,-0.92,0.37
0.29,-0.91,0.37
0.29,-0.91,0.37
0.28,-0.91,0.37
0.28,-0.9,0.37
0.29,-0.9,0.37
0.28,-0.9,0.37
0.29,-0.9,0.38
0.28,-0.91,0.38
0.28,-0.9,0.38
0.29,-0.91,0.38
0.28,-0.9,0.37
0.28,-0.89,0.36
0.29,-0.88,0.36
0.3,-0.9,0.38
0.29,-0.92,0.38
0.29,-0.91,0.38
0.29,-0.91,0.37
0.28,-0.91,0.37
0.28,-0.9,0.36
0.27,-0.88,0.36
0.29,-0.88,0.38
0.29,-0.89,0.38
0.29,-0.89,0.38
0.3,-0.88,0.38
0.29,-0.88,0.39
0.3,-0.91,0.4
0.3,-0.93,0.42
0.3,-0.91,0.41
0.29,-0.9,0.4
0.28,-0.89,0.37
0.28,-0.87,0.37
0.29,-0.88,0.38
0.31,-0.89,0.39
0.32,-0.9,0.4
0.31,-0.9,0.39
0.29,-0.9,0.38
0.29,-0.89,0.38
0.29,-0.9,0.39
0.29,-0.9,0.39
0.28,-0.89,0.38
0.3,-0.89,0.38
0.29,-0.89,0.38
0.29,-0.88,0.38
0.31,-0.9,0.4
0.3,-0.9,0.39
0.3,-0.89,0.39
0.31,-0.89,0.39
0.3,-0.9,0.39
0.29,-0.89,0.39
0.29,-0.89,0.39
0.3,-0.89,0.39
0.29,-0.89,0.39
0.3,-0.89,0.39
0.31,-0.89,0.4
0.31,-0.89,0.39
0.3,-0.89,0.39
0.3,-0.9,0.39
0.29,-0.89,0.38
0.29,-0.89,0.39
0.31,-0.9,0.4
0.3,-0.91,0.39
0.29,-0.88,0.38
0.3,-0.88,0.39
0.31,-0.9,0.39
0.3,-0.9,0.38
0.3,-0.88,0.38
0.31,-0.89,0.39
0.3,-0.9,0.39
0.3,-0.9,0.4
0.29,-0.89,0.38
0.28,-0.88,0.38
0.3,-0.88,0.39
0.3,-0.9,0.39
0.29,-0.9,0.38
0.3,-0.9,0.38
0.3,-0.89,0.39
0.29,-0.88,0.38
0.29,-0.9,0.39
0.3,-0.91,0.39
0.28,-0.91,0.38
0.28,-0.9,0.38
0.28,-0.89,0.37
0.28,-0.9,0.37
0.29,-0.91,0.36
0.29,-0.91,0.36
0.28,-0.91,0.36
0.28,-0.91,0.36
0.27,-0.89,0.35
0.26,-0.88,0.34
0.27,-0.89,0.36
0.3,-0.92,0.39
0.29,-0.93,0.38
0.27,-0.88,0.37
0.3,-0.9,0.36
0.28,-0.9,0.35
0.3,-0.91,0.37
0.31,-0.9,0.37
0.3,-0.9,0.36
0.3,-0.91,0.37
0.29,-0.93,0.38
0.29,-0.92,0.37
0.28,-0.91,0.36
0.28,-0.91,0.36
0.28,-0.92,0.35
0.27,-0.91,0.35
0.28,-0.92,0.36
0.27,-0.92,0.34
0.25,-0.9,0.33
0.26,-0.9,0.33
0.23,-0.89,0.32
0.26,-0.91,0.34
0.31,-0.94,0.35
0.28,-0.94,0.33
0.26,-0.95,0.33
0.25,-0.95,0.3
0.22,-0.93,0.28
0.22,-0.94,0.28
0.22,-0.96,0.27
0.22,-0.95,0.25
0.27,-0.97,0.26
0.24,-0.97,0.24
0.22,-0.96,0.24
0.21,-0.96,0.25
0.19,-0.95,0.25
0.17,-0.95,0.25
0.17,-0.96,0.26
0.18,-0.97,0.28
0.19,-0.98,0.28
0.18,-1,0.27
0.18,-1,0.24
0.16,-0.98,0.21
0.14,-0.98,0.22
0.18,-0.99,0.21
0.18,-0.99,0.19
0.16,-0.98,0.21
0.19,-0.99,0.23
0.18,-1,0.21
0.13,-0.99,0.19
0.1,-0.98,0.17
0.08,-0.97,0.17
0.11,-0.96,0.19
0.15,-0.98,0.21
0.15,-0.99,0.21
0.15,-1.01,0.2
0.11,-1.01,0.18
0.11,-1,0.16
0.07,-0.98,0.14
0.08,-0.97,0.16
0.11,-0.99,0.18
0.12,-1.01,0.19
0.12,-1.03,0.17
0.11,-1.03,0.16
0.11,-1.03,0.13
0.05,-1,0.09
0.01,-0.97,0.1
0.11,-0.98,0.19
0.2,-1.02,0.23
0.15,-1.03,0.19
0.1,-1.03,0.17
0.1,-1.03,0.16
0.05,-1.02,0.13
0.03,-1,0.14
0.08,-1,0.19
0.13,-1.02,0.21
0.13,-1.03,0.2
0.11,-1.02,0.18
0.1,-1,0.18
0.12,-1.01,0.19
0.12,-1.02,0.19
0.09,-1.02,0.18
0.05,-1,0.16
0.05,-0.94,0.2
0.16,-0.97,0.22
0.16,-0.98,0.22
0.13,-0.99,0.22
0.14,-1,0.23
0.12,-1,0.21
0.09,-1,0.2
0.1,-1.01,0.2
0.11,-0.98,0.2
0.11,-0.94,0.2
0.12,-0.93,0.22
0.13,-0.96,0.23
0.14,-0.99,0.24
0.13,-1,0.25
0.11,-0.99,0.23
0.1,-0.97,0.22
0.12,-0.96,0.22
0.15,-0.97,0.22
0.16,-0.98,0.22
0.14,-0.98,0.22
0.14,-0.98,0.22
0.12,-0.97,0.23
0.11,-0.97,0.25
0.15,-0.99,0.27
0.17,-1.02,0.27
0.16,-1.02,0.25
0.15,-1.01,0.21
0.13,-1,0.21
0.18,-0.98,0.23
0.22,-0.97,0.24
0.2,-0.97,0.24
0.19,-0.95,0.25
0.17,-0.95,0.26
0.16,-0.97,0.27
0.15,-0.97,0.26
0.14,-0.96,0.27
0.15,-0.95,0.28
0.17,-0.96,0.29
0.18,-0.96,0.29
0.19,-0.95,0.29
0.19,-0.96,0.29
0.19,-0.96,0.29
0.19,-0.96,0.3
0.21,-0.95,0.31
0.22,-0.96,0.32
0.21,-0.96,0.31
0.2,-0.96,0.32
0.2,-0.95,0.32
0.2,-0.94,0.32
0.21,-0.95,0.33
0.23,-0.95,0.35
0.24,-0.94,0.36
0.24,-0.94,0.35
0.23,-0.94,0.36
0.22,-0.93,0.35
0.21,-0.92,0.35
0.21,-0.9,0.37
0.23,-0.9,0.38
0.23,-0.9,0.39
0.23,-0.91,0.4
0.24,-0.92,0.4
0.23,-0.91,0.4
0.25,-0.91,0.42
0.26,-0.92,0.43
0.27,-0.91,0.43
0.26,-0.92,0.44
0.26,-0.93,0.45
0.23,-0.91,0.47
0.23,-0.93,0.48
0.23,-0.93,0.48
0.24,-0.96,0.49
0.25,-0.99,0.53
0.27,-1.02,0.58
0.3,-1.08,0.66
0.3,-1.11,0.69
0.29,-1.12,0.71
0.31,-1.14,0.74
0.33,-1.21,0.76
0.23,-1.22,0.79
0.31,-1.29,0.82
0.31,-1.29,0.82
0.28,-1.16,0.76
0.23,-1.11,0.67
0.15,-1.11,0.59
0.09,-1.09,0.58
0.06,-1.04,0.57
0.05,-0.98,0.55
0.05,-0.94,0.52
0.07,-0.91,0.49
0.11,-0.9,0.48
0.15,-0.89,0.49
0.18,-0.89,0.49
0.18,-0.89,0.49
0.17,-0.87,0.5
0.16,-0.92,0.49
0.16,-0.96,0.44
0.17,-0.95,0.47
0.17,-0.93,0.53
0.15,-0.91,0.55
0.14,-0.9,0.47
0.12,-0.91,0.44
0.13,-0.91,0.45
0.1,-0.93,0.48
0.09,-0.92,0.51
0.1,-0.93,0.52
0.09,-0.93,0.56
0.09,-0.9,0.63
0.1,-0.89,0.68
0.11,-0.89,0.7
0.12,-0.88,0.72
0.13,-0.88,0.74
0.12,-0.88,0.75
0.14,-0.85,0.76
0.18,-0.85,0.74
0.16,-0.88,0.72
0.13,-0.88,0.72
0.16,-0.87,0.71
0.2,-0.87,0.67
0.21,-0.87,0.65
0.22,-0.87,0.65
0.23,-0.87,0.64
0.29,-0.86,0.59
0.41,-0.88,0.5
0.41,-0.91,0.43
0.31,-0.93,0.4
0.25,-0.9,0.35
0.32,-0.81,0.39
0.25,-0.83,0.43
0.21,-0.79,0.4
0.17,-0.72,0.38
0.08,-0.68,0.37
0.09,-0.64,0.36
0.18,-0.61,0.34
0.24,-0.6,0.32
0.24,-0.6,0.31
0.22,-0.61,0.3
0.21,-0.62,0.26
0.22,-0.58,0.21
0.31,-0.55,0.19
0.21,-0.66,0.17
0,-0.77,0.17
-0.01,-0.75,0.2
0.04,-0.78,0.24
0.1,-0.86,0.32
0.13,-0.91,0.44
0.12,-0.98,0.48
0.14,-1.11,0.44
0.16,-1.31,0.35
0.29,-1.18,0.28
0.34,-1.12,0.26
0.25,-1.34,0.26
0.28,-1.3,0.29
0.3,-1.35,0.33
0.32,-1.35,0.32
0.32,-1.37,0.28
0.34,-1.37,0.29
0.34,-1.37,0.32
0.33,-1.39,0.34
0.32,-1.39,0.38
0.31,-1.39,0.4
0.31,-1.37,0.39
0.31,-1.35,0.36
0.3,-1.31,0.33
0.28,-1.26,0.32
0.27,-1.23,0.3
0.27,-1.22,0.3
0.28,-1.2,0.29
0.27,-1.17,0.29
0.24,-1.13,0.29
0.22,-1.09,0.29
0.22,-1.06,0.29
0.2,-1.03,0.3
0.18,-1,0.31
0.15,-0.98,0.3
0.12,-0.96,0.3
0.11,-0.94,0.3
0.08,-0.92,0.31
0.05,-0.9,0.31
0.04,-0.85,0.32
0.03,-0.83,0.33
0.01,-0.82,0.35
0.01,-0.83,0.37
0.02,-0.82,0.37
0.03,-0.79,0.36
0.03,-0.77,0.36
0.03,-0.74,0.35
0.02,-0.72,0.35
-0.01,-0.7,0.36
-0.03,-0.68,0.36
0.03,-0.65,0.33
0.1,-0.64,0.32
0.06,-0.64,0.33
0.02,-0.66,0.35
0.01,-0.66,0.34
0.04,-0.66,0.32
0.06,-0.68,0.29
0.05,-0.71,0.28
0.04,-0.75,0.27
0.04,-0.8,0.26
0.05,-0.86,0.25
0.06,-0.9,0.23
0.07,-0.93,0.22
0.09,-0.95,0.22
0.11,-0.96,0.21
0.15,-0.98,0.22
0.18,-0.99,0.22
0.19,-0.99,0.2
0.19,-1,0.18
0.19,-0.99,0.15
0.18,-0.99,0.13
0.19,-0.99,0.11
0.19,-0.99,0.09
0.19,-0.98,0.09
0.19,-0.96,0.08
0.18,-0.95,0.07
0.19,-0.94,0.06
0.17,-0.93,0.05
0.16,-0.92,0.04
0.16,-0.91,0.03
0.19,-0.9,0.02
0.21,-0.89,0.02
0.21,-0.88,0.01
0.21,-0.89,0
0.21,-0.9,-0.01
0.23,-0.91,-0.02
0.23,-0.92,-0.03
0.22,-0.93,-0.04
0.2,-0.94,-0.06
0.19,-0.94,-0.08
0.18,-0.95,-0.09
0.17,-0.95,-0.1
0.14,-0.96,-0.1
0.14,-0.96,-0.12
0.14,-0.95,-0.13
0.14,-0.97,-0.15
0.12,-0.99,-0.16
0.09,-1.01,-0.18
0.07,-1.04,-0.2
0.06,-1.08,-0.2
0.06,-1.13,-0.18
0.06,-1.17,-0.17
0.05,-1.19,-0.16
0.05,-1.19,-0.17
0.06,-1.23,-0.19
0.08,-1.33,-0.21
0.11,-1.49,-0.22
0.14,-1.67,-0.2
0.15,-1.79,-0.16
0.14,-1.78,-0.1
0.12,-1.64,-0.06
0.14,-1.42,-0.04
0.17,-1.22,-0.03
0.19,-1.07,-0.03
0.2,-0.96,-0.03
0.2,-0.88,-0.02
0.22,-0.82,-0.01
0.24,-0.79,0.03
0.26,-0.8,0.05
0.26,-0.81,0.08
0.27,-0.81,0.11
0.27,-0.82,0.12
0.27,-0.82,0.12
0.25,-0.84,0.14
0.23,-0.85,0.16
0.22,-0.86,0.19
0.21,-0.86,0.21
0.2,-0.84,0.23
0.19,-0.83,0.24
0.17,-0.81,0.25
0.16,-0.8,0.25
0.14,-0.79,0.25
0.13,-0.79,0.24
0.13,-0.79,0.23
0.12,-0.79,0.23
0.1,-0.78,0.22
0.1,-0.78,0.21
0.1,-0.77,0.21
0.1,-0.77,0.21
0.1,-0.77,0.22
0.09,-0.76,0.21
0.1,-0.76,0.22
0.14,-0.78,0.24
0.17,-0.83,0.28
0.2,-0.98,0.28
0.21,-1.09,0.25
0.23,-1.2,0.24
0.25,-1.28,0.25
0.25,-1.33,0.28
0.23,-1.35,0.35
0.23,-1.36,0.42
0.22,-1.37,0.47
0.21,-1.38,0.52
0.18,-1.37,0.55
0.14,-1.35,0.54
0.09,-1.32,0.49
0.03,-1.31,0.44
-0.02,-1.29,0.41
-0.07,-1.29,0.4
-0.11,-1.29,0.4
-0.14,-1.27,0.41
-0.13,-1.22,0.42
-0.08,-1.16,0.43
-0.02,-1.1,0.43
0.03,-1.05,0.42
0.08,-0.99,0.41
0.12,-0.93,0.4
0.16,-0.88,0.37
0.21,-0.84,0.34
0.25,-0.81,0.29
0.3,-0.78,0.29
0.32,-0.77,0.28
0.35,-0.76,0.27
0.39,-0.75,0.27
0.38,-0.78,0.28
0.36,-0.8,0.3
0.4,-0.78,0.32
0.4,-0.76,0.34
0.38,-0.75,0.36
0.35,-0.75,0.37
0.35,-0.74,0.38
0.37,-0.72,0.39
0.39,-0.69,0.38
0.41,-0.69,0.39
0.44,-0.68,0.4
0.45,-0.67,0.39
0.48,-0.67,0.39
0.51,-0.7,0.38
0.55,-0.73,0.37
0.59,-0.77,0.37
0.63,-0.81,0.39
0.67,-0.87,0.41
0.69,-0.91,0.42
0.67,-0.92,0.43
0.64,-0.88,0.42
0.61,-0.83,0.39
0.58,-0.79,0.38
0.63,-0.81,0.39
0.67,-0.85,0.4
0.71,-0.91,0.42
0.74,-0.99,0.44
0.75,-1.06,0.45
0.73,-1.11,0.44
0.69,-1.11,0.42
0.64,-1.06,0.4
0.58,-1,0.39
0.53,-0.93,0.4
0.51,-0.87,0.41
0.5,-0.82,0.42
0.49,-0.77,0.42
0.49,-0.74,0.42
0.5,-0.72,0.41
0.52,-0.69,0.4
0.52,-0.66,0.4
0.51,-0.62,0.4
0.52,-0.58,0.41
0.51,-0.54,0.41
0.49,-0.5,0.42
0.48,-0.47,0.42
0.5,-0.43,0.44
0.54,-0.42,0.45
0.57,-0.41,0.47
0.62,-0.37,0.45
0.66,-0.34,0.45
0.68,-0.33,0.47
0.7,-0.31,0.5
0.68,-0.31,0.53
0.64,-0.3,0.56
0.61,-0.29,0.58
0.59,-0.27,0.6
0.58,-0.25,0.61
0.58,-0.23,0.61
0.59,-0.22,0.61
0.62,-0.21,0.61
0.64,-0.2,0.61
0.64,-0.19,0.64
0.62,-0.18,0.67
0.58,-0.17,0.69
0.54,-0.17,0.71
0.5,-0.16,0.72
0.48,-0.15,0.72
0.48,-0.15,0.71
0.5,-0.16,0.7
0.5,-0.17,0.69
0.5,-0.18,0.69
0.49,-0.19,0.71
0.49,-0.21,0.74
0.47,-0.23,0.8
0.42,-0.26,0.81
0.38,-0.26,0.79
0.36,-0.25,0.75
0.37,-0.23,0.71
0.42,-0.23,0.72
0.48,-0.26,0.78
0.52,-0.29,0.86
0.5,-0.33,0.94
0.44,-0.35,0.98
0.38,-0.37,0.97
0.35,-0.38,0.94
0.36,-0.37,0.92
0.39,-0.35,0.91
0.42,-0.35,0.91
0.43,-0.35,0.94
0.44,-0.34,0.97
0.44,-0.32,0.99
0.43,-0.3,0.99
0.4,-0.28,1
0.38,-0.26,1
0.39,-0.22,1
0.38,-0.19,1
0.38,-0.19,1.03
0.37,-0.2,1.05
0.37,-0.2,1.04
0.38,-0.17,1.03
0.36,-0.11,0.98
0.36,-0.06,0.97
0.38,-0.03,0.99
0.4,-0.02,1.04
0.4,0,1.07
0.36,0.02,1.08
0.31,0.04,1.07
0.28,0.06,1.04
0.29,0.09,1.03
0.29,0.13,1.03
0.28,0.18,1.05
0.27,0.21,1.07
0.26,0.2,1.08
0.25,0.21,1.07
0.2,0.22,1.07
0.15,0.24,1.05
0.12,0.26,1.02
0.11,0.27,1
0.11,0.28,0.98
0.1,0.3,0.96
0.08,0.3,0.94
0.06,0.29,0.94
0.04,0.28,0.96
0.04,0.29,0.97
0.04,0.3,0.99
0.05,0.31,0.99
0.03,0.31,0.98
-0.02,0.3,0.97
-0.03,0.29,0.97
-0.03,0.27,0.99
0.01,0.23,1.04
0.06,0.17,1.11
0.08,0.13,1.14
0.07,0.14,1.14
0.03,0.18,1.1
0,0.24,1.06
-0.03,0.27,1.02
-0.04,0.28,1.01
-0.02,0.28,1.03
-0.01,0.27,1.04
0,0.25,1.05
0,0.21,1.03
-0.01,0.17,1.02
-0.02,0.14,1
0,0.11,0.97
0.02,0.1,0.95
0.04,0.09,0.94
0.06,0.09,0.94
0.06,0.11,0.96
0.07,0.13,0.98
0.08,0.15,1
0.08,0.16,1.01
0.06,0.21,0.97
-0.02,0.25,0.93
-0.04,0.27,0.92
-0.03,0.28,0.92
-0.02,0.28,0.94
0,0.26,0.96
0.02,0.25,0.98
0.04,0.22,0.97
0.05,0.2,0.96
0.05,0.18,0.94
0.02,0.18,0.91
0.03,0.19,0.9
0.05,0.2,0.9
0.07,0.2,0.9
0.08,0.2,0.91
0.1,0.19,0.93
0.12,0.18,0.95
0.12,0.18,0.96
0.13,0.18,0.96
0.14,0.2,0.94
0.15,0.23,0.92
0.16,0.24,0.89
0.14,0.24,0.9
0.14,0.26,0.92
0.14,0.28,0.94
0.15,0.29,0.95
0.15,0.29,0.94
0.11,0.3,0.94
0.09,0.29,0.95
0.09,0.28,0.97
0.13,0.27,0.98
0.18,0.27,1.01
0.24,0.28,1.02
0.24,0.31,0.99
0.21,0.32,0.95
0.19,0.33,0.94
0.17,0.39,0.93
0.2,0.55,1.05
0.25,0.54,1.18
0.14,0.35,1.17
-0.05,0.27,1.1
-0.04,0.28,1
0.06,0.3,0.92
0.16,0.34,0.86
0.24,0.35,0.84
0.3,0.36,0.85
0.29,0.39,0.85
0.24,0.41,0.83
0.23,0.42,0.83
0.27,0.41,0.84
0.3,0.39,0.82
0.3,0.39,0.81
0.28,0.39,0.86
0.21,0.38,0.88
0.2,0.38,0.9
0.19,0.37,0.92
0.19,0.37,0.94
0.2,0.36,0.96
0.19,0.36,0.96
0.16,0.36,0.95
0.15,0.37,0.93
0.17,0.36,0.91
0.18,0.36,0.89
0.19,0.36,0.88
0.2,0.37,0.88
0.22,0.37,0.89
0.23,0.37,0.9
0.23,0.38,0.91
0.22,0.39,0.94
0.22,0.39,0.94
0.22,0.39,0.93
0.21,0.39,0.92
0.21,0.39,0.91
0.2,0.39,0.91
0.19,0.39,0.92
0.18,0.38,0.92
0.18,0.37,0.91
0.2,0.38,0.9
0.24,0.39,0.9
0.22,0.38,0.89
0.22,0.39,0.86
0.23,0.39,0.85
0.25,0.39,0.86
0.25,0.39,0.87
0.25,0.38,0.88
0.25,0.37,0.89
0.26,0.37,0.9
0.26,0.37,0.9
0.25,0.37,0.89
0.23,0.36,0.9
0.22,0.36,0.91
0.22,0.36,0.91
0.22,0.36,0.91
0.22,0.37,0.9
0.22,0.37,0.9
0.23,0.37,0.9
0.23,0.37,0.89
0.24,0.37,0.9
0.24,0.37,0.9
0.24,0.38,0.9
0.24,0.39,0.89
0.23,0.39,0.89
0.24,0.39,0.89
0.24,0.39,0.89
