Acc_x,Acc_y,Acc_z
0.05,-0.96,0.11
0.04,-0.96,0.12
0.03,-0.96,0.13
0.03,-0.96,0.13
0.04,-0.96,0.12
0.05,-0.95,0.1
0.07,-0.94,0.1
0.08,-0.93,0.1
0.08,-0.92,0.12
0.09,-0.9,0.15
0.1,-0.89,0.19
0.11,-0.87,0.23
0.11,-0.86,0.26
0.12,-0.83,0.29
0.15,-0.8,0.41
0.18,-0.77,0.46
0.15,-0.77,0.5
0.11,-0.79,0.5
0.05,-0.78,0.46
0.04,-0.75,0.43
0.01,-0.69,0.46
0.31,-0.17,2.04
0.84,0.06,3.4
0.82,-0.76,2.39
0.49,-1.28,1.46
0.03,-0.96,1.2
-0.25,-0.59,0.8
-0.19,-0.5,0.39
-0.04,-0.58,0.1
0.19,-0.77,-0.01
0.24,-0.9,0.12
0.2,-0.85,0.34
0.21,-0.76,0.53
0.26,-0.78,0.67
0.29,-0.84,0.74
0.29,-0.81,0.78
0.24,-0.76,0.77
0.2,-0.77,0.7
0.16,-0.78,0.62
0.1,-0.79,0.56
0.06,-0.78,0.53
0.11,-0.78,0.55
0.14,-0.79,0.59
0.15,-0.79,0.63
0.14,-0.78,0.66
0.14,-0.78,0.68
0.14,-0.79,0.67
0.13,-0.78,0.66
0.14,-0.77,0.65
0.16,-0.77,0.63
0.17,-0.77,0.62
0.16,-0.76,0.62
0.16,-0.78,0.63
0.16,-0.78,0.64
0.15,-0.77,0.64
0.16,-0.78,0.66
0.17,-0.78,0.67
0.18,-0.78,0.67
0.17,-0.78,0.67
0.17,-0.78,0.66
0.17,-0.78,0.65
0.17,-0.78,0.64
0.17,-0.79,0.64
0.17,-0.78,0.63
0.17,-0.78,0.63
0.18,-0.78,0.63
0.18,-0.77,0.63
0.17,-0.77,0.64
0.18,-0.77,0.64
0.17,-0.77,0.64
0.18,-0.77,0.63
0.18,-0.78,0.63
0.16,-0.77,0.64
0.16,-0.78,0.64
0.17,-0.79,0.64
0.17,-0.79,0.64
0.17,-0.78,0.64
0.17,-0.78,0.64
0.17,-0.79,0.64
0.18,-0.79,0.63
0.17,-0.78,0.63
0.17,-0.79,0.63
0.18,-0.79,0.62
0.18,-0.78,0.62
0.17,-0.78,0.62
0.18,-0.79,0.63
0.17,-0.79,0.63
0.17,-0.78,0.62
0.16,-0.79,0.62
0.17,-0.79,0.61
0.17,-0.79,0.61
0.16,-0.79,0.6
0.16,-0.79,0.59
0.17,-0.79,0.6
0.17,-0.79,0.6
0.17,-0.8,0.6
0.17,-0.8,0.59
0.17,-0.79,0.6
0.17,-0.79,0.6
0.17,-0.79,0.6
0.17,-0.79,0.6
0.17,-0.79,0.6
0.18,-0.79,0.6
0.17,-0.79,0.59
0.17,-0.79,0.59
0.17,-0.8,0.59
0.17,-0.8,0.59
0.17,-0.8,0.6
0.17,-0.8,0.61
0.17,-0.79,0.62
0.17,-0.79,0.63
0.17,-0.78,0.63
0.16,-0.78,0.63
0.16,-0.78,0.63
0.16,-0.79,0.62
0.16,-0.79,0.62
0.17,-0.79,0.62
0.17,-0.78,0.62
0.16,-0.78,0.63
0.16,-0.79,0.64
0.16,-0.78,0.63
0.15,-0.79,0.63
0.15,-0.79,0.63
0.15,-0.79,0.63
0.15,-0.79,0.62
0.15,-0.79,0.62
0.16,-0.79,0.62
0.16,-0.79,0.62
0.16,-0.79,0.62
0.16,-0.79,0.63
0.16,-0.78,0.63
0.15,-0.78,0.64
0.14,-0.78,0.64
0.13,-0.78,0.64
0.13,-0.78,0.63
0.13,-0.78,0.63
0.13,-0.78,0.63
0.12,-0.78,0.64
0.12,-0.78,0.64
0.12,-0.78,0.65
0.13,-0.78,0.66
0.12,-0.78,0.66
0.12,-0.78,0.65
0.11,-0.77,0.65
0.1,-0.77,0.65
0.1,-0.78,0.64
0.1,-0.78,0.64
0.1,-0.78,0.64
0.1,-0.79,0.64
0.11,-0.79,0.65
0.1,-0.78,0.65
0.1,-0.78,0.65
0.1,-0.78,0.65
0.1,-0.78,0.65
0.09,-0.78,0.65
0.09,-0.78,0.65
0.09,-0.78,0.64
0.08,-0.78,0.64
0.08,-0.78,0.64
0.08,-0.78,0.64
0.07,-0.78,0.64
0.07,-0.77,0.65
0.06,-0.77,0.65
0.06,-0.78,0.65
0.06,-0.78,0.65
0.06,-0.78,0.65
0.06,-0.78,0.65
0.06,-0.79,0.65
0.07,-0.79,0.65
0.07,-0.79,0.64
0.07,-0.79,0.64
0.07,-0.79,0.64
0.05,-0.78,0.64
0.05,-0.78,0.64
0.06,-0.78,0.65
0.05,-0.78,0.65
0.06,-0.77,0.65
0.06,-0.77,0.66
0.07,-0.78,0.66
0.07,-0.78,0.66
0.07,-0.78,0.65
0.07,-0.78,0.65
0.07,-0.78,0.65
0.07,-0.78,0.64
0.07,-0.78,0.64
0.06,-0.78,0.65
0.06,-0.78,0.65
0.06,-0.78,0.65
0.05,-0.78,0.65
0.04,-0.79,0.65
0.04,-0.78,0.65
0.04,-0.78,0.65
0.04,-0.78,0.65
0.03,-0.78,0.65
0.02,-0.78,0.64
0.02,-0.78,0.65
0.02,-0.78,0.65
0.02,-0.78,0.65
0.01,-0.78,0.65
0.01,-0.78,0.64
0.01,-0.77,0.65
0.01,-0.77,0.65
0.01,-0.77,0.66
0.01,-0.77,0.66
0.01,-0.77,0.66
0.02,-0.77,0.66
0.02,-0.77,0.66
0.01,-0.78,0.66
0.01,-0.78,0.66
0.01,-0.77,0.66
0.02,-0.77,0.65
0.02,-0.78,0.66
0.02,-0.77,0.66
0.02,-0.77,0.66
0.02,-0.77,0.66
0.02,-0.77,0.66
0.02,-0.78,0.66
0.02,-0.77,0.66
0.03,-0.77,0.65
0.03,-0.77,0.66
0.03,-0.77,0.66
0.03,-0.77,0.66
0.03,-0.77,0.66
0.03,-0.77,0.66
0.03,-0.77,0.66
0.03,-0.77,0.66
0.03,-0.77,0.66
0.03,-0.78,0.66
0.02,-0.78,0.66
0.02,-0.77,0.66
0.02,-0.77,0.66
0.03,-0.77,0.67
0.03,-0.77,0.67
0.03,-0.77,0.67
0.04,-0.77,0.66
0.03,-0.78,0.66
0.03,-0.77,0.66
0.03,-0.77,0.65
0.02,-0.78,0.65
0.02,-0.78,0.65
0.02,-0.78,0.66
0.03,-0.78,0.66
0.03,-0.78,0.67
0.03,-0.78,0.67
0.03,-0.79,0.67
0.03,-0.78,0.66
0.03,-0.78,0.66
0.02,-0.77,0.67
0.01,-0.77,0.68
0,-0.76,0.7
0,-0.76,0.71
0,-0.76,0.71
0.01,-0.76,0.71
0.02,-0.76,0.72
0.03,-0.76,0.72
0.03,-0.77,0.73
0.02,-0.76,0.74
0.01,-0.77,0.74
-0.01,-0.77,0.73
-0.01,-0.76,0.71
-0.01,-0.76,0.69
0,-0.76,0.68
0.02,-0.77,0.69
0.03,-0.76,0.7
0.03,-0.77,0.75
0.03,-0.79,0.79
0.04,-0.79,0.79
0.03,-0.78,0.78
0.02,-0.77,0.74
0.02,-0.78,0.7
0.02,-0.78,0.66
0.02,-0.78,0.64
0.03,-0.79,0.63
0.02,-0.8,0.63
0.02,-0.82,0.63
0.03,-0.82,0.6
0.03,-0.84,0.58
0.03,-0.84,0.55
0.03,-0.85,0.52
0.04,-0.85,0.5
0.05,-0.86,0.48
0.05,-0.87,0.46
0.06,-0.88,0.44
0.05,-0.89,0.42
0.05,-0.9,0.4
0.05,-0.9,0.38
0.05,-0.91,0.36
0.05,-0.91,0.34
0.05,-0.91,0.31
0.06,-0.92,0.3
0.05,-0.92,0.3
0.03,-0.92,0.29
0.03,-0.93,0.29
0.03,-0.93,0.29
0.03,-0.94,0.3
0.04,-0.94,0.31
0.05,-0.94,0.31
0.05,-0.93,0.31
0.06,-0.94,0.3
0.06,-0.94,0.3
0.06,-0.94,0.3
0.06,-0.93,0.32
0.06,-0.93,0.32
0.06,-0.93,0.32
0.04,-0.93,0.32
0.03,-0.93,0.31
0.02,-0.93,0.3
0.01,-0.93,0.29
0,-0.92,0.29
0.02,-0.91,0.29
0.04,-0.9,0.29
0.06,-0.9,0.3
0.07,-0.89,0.32
0.07,-0.88,0.33
0.06,-0.89,0.33
0.04,-0.88,0.31
0.01,-0.88,0.29
0.01,-0.86,0.28
0.02,-0.85,0.29
0.05,-0.83,0.31
0.07,-0.81,0.35
0.1,-0.79,0.41
0.11,-0.78,0.46
0.09,-0.77,0.49
0.08,-0.75,0.51
0.03,-0.77,0.5
-0.03,-0.63,0.3
0.78,-0.23,3.1
0.5,-1.02,2.05
0.31,-1.17,1.31
-0.13,-0.8,0.98
-0.16,-0.62,0.58
-0.11,-0.59,0.32
-0.07,-0.71,0.14
0.04,-0.81,0.1
0.07,-0.85,0.22
0.09,-0.84,0.4
0.08,-0.84,0.56
0.12,-0.84,0.68
0.21,-0.8,0.75
0.24,-0.74,0.79
0.18,-0.72,0.8
0.13,-0.73,0.76
0.07,-0.75,0.71
0.01,-0.75,0.67
0.01,-0.76,0.63
0.06,-0.78,0.61
0.12,-0.79,0.59
0.16,-0.8,0.6
0.16,-0.79,0.61
0.15,-0.79,0.63
0.13,-0.78,0.65
0.11,-0.77,0.67
0.1,-0.75,0.68
0.09,-0.75,0.69
0.09,-0.75,0.68
0.09,-0.76,0.67
0.09,-0.77,0.67
0.09,-0.78,0.65
0.1,-0.78,0.64
0.1,-0.78,0.64
0.1,-0.78,0.65
0.1,-0.78,0.66
0.09,-0.77,0.66
0.09,-0.77,0.66
0.08,-0.77,0.66
0.08,-0.77,0.65
0.07,-0.78,0.64
0.08,-0.78,0.64
0.09,-0.77,0.64
0.09,-0.78,0.64
0.09,-0.78,0.64
0.09,-0.78,0.65
0.09,-0.77,0.64
0.1,-0.77,0.65
0.1,-0.77,0.66
0.11,-0.77,0.67
0.1,-0.77,0.67
0.1,-0.77,0.67
0.1,-0.77,0.66
0.09,-0.77,0.64
0.09,-0.78,0.64
0.09,-0.78,0.64
0.09,-0.78,0.64
0.09,-0.78,0.65
0.09,-0.78,0.65
0.08,-0.78,0.65
0.08,-0.78,0.65
0.08,-0.78,0.65
0.07,-0.78,0.64
0.07,-0.78,0.65
0.08,-0.78,0.65
0.08,-0.78,0.65
0.08,-0.78,0.65
0.08,-0.78,0.65
0.08,-0.78,0.65
0.09,-0.78,0.65
0.09,-0.77,0.65
0.09,-0.78,0.65
0.09,-0.78,0.65
0.09,-0.78,0.65
0.09,-0.78,0.64
0.09,-0.78,0.64
0.09,-0.78,0.64
0.09,-0.78,0.64
0.09,-0.78,0.64
0.09,-0.77,0.65
0.09,-0.78,0.66
0.09,-0.78,0.66
0.09,-0.78,0.65
0.08,-0.78,0.65
0.08,-0.78,0.64
0.09,-0.78,0.64
0.09,-0.78,0.64
0.09,-0.78,0.64
0.08,-0.78,0.65
0.08,-0.78,0.65
0.09,-0.78,0.65
0.09,-0.78,0.65
0.09,-0.77,0.65
0.09,-0.77,0.65
0.09,-0.77,0.65
0.09,-0.78,0.65
0.08,-0.78,0.64
0.09,-0.78,0.65
0.1,-0.78,0.65
0.1,-0.78,0.65
0.09,-0.78,0.65
0.09,-0.78,0.65
0.09,-0.78,0.65
0.09,-0.78,0.65
0.09,-0.78,0.64
0.08,-0.78,0.64
0.08,-0.78,0.64
0.08,-0.78,0.64
0.08,-0.78,0.64
0.08,-0.78,0.64
0.08,-0.78,0.65
0.08,-0.77,0.65
0.08,-0.77,0.65
0.08,-0.78,0.65
0.09,-0.78,0.66
0.09,-0.78,0.66
0.09,-0.78,0.65
0.09,-0.78,0.65
0.09,-0.78,0.64
0.08,-0.78,0.64
0.09,-0.78,0.64
0.09,-0.78,0.64
0.09,-0.78,0.64
0.09,-0.78,0.65
0.1,-0.78,0.65
0.09,-0.78,0.65
0.09,-0.78,0.65
0.09,-0.78,0.65
0.09,-0.78,0.65
0.09,-0.78,0.64
0.09,-0.78,0.64
0.09,-0.78,0.64
0.08,-0.78,0.65
0.08,-0.78,0.65
0.08,-0.78,0.65
0.08,-0.78,0.65
0.09,-0.78,0.65
0.09,-0.78,0.65
0.09,-0.78,0.65
0.09,-0.78,0.64
0.1,-0.78,0.64
0.1,-0.78,0.64
0.1,-0.78,0.64
0.1,-0.78,0.64
0.09,-0.78,0.65
0.09,-0.78,0.65
0.09,-0.78,0.65
0.09,-0.78,0.65
0.09,-0.78,0.65
0.09,-0.78,0.65
0.09,-0.78,0.65
0.09,-0.78,0.64
0.09,-0.78,0.64
0.09,-0.78,0.64
0.09,-0.78,0.64
0.09,-0.78,0.64
0.09,-0.78,0.64
0.09,-0.78,0.66
0.09,-0.78,0.66
0.09,-0.78,0.65
0.09,-0.77,0.65
0.09,-0.78,0.64
0.09,-0.78,0.64
0.09,-0.78,0.63
0.09,-0.78,0.64
0.09,-0.78,0.64
0.09,-0.78,0.64
0.09,-0.78,0.65
0.09,-0.78,0.65
0.09,-0.78,0.65
0.09,-0.78,0.65
0.09,-0.78,0.65
0.09,-0.78,0.65
0.08,-0.78,0.65
0.08,-0.78,0.65
0.08,-0.78,0.64
0.08,-0.78,0.64
0.08,-0.78,0.63
0.08,-0.78,0.63
0.09,-0.78,0.64
0.09,-0.78,0.65
0.09,-0.78,0.65
0.09,-0.78,0.66
0.1,-0.78,0.65
0.09,-0.78,0.64
0.09,-0.78,0.63
0.09,-0.78,0.63
0.09,-0.78,0.63
0.1,-0.78,0.64
0.1,-0.78,0.65
0.09,-0.78,0.65
0.09,-0.78,0.65
0.09,-0.78,0.65
0.09,-0.78,0.65
0.08,-0.78,0.64
0.08,-0.78,0.64
0.09,-0.78,0.64
0.08,-0.78,0.64
0.08,-0.78,0.64
0.09,-0.78,0.65
0.09,-0.78,0.65
0.09,-0.78,0.65
0.09,-0.78,0.65
0.09,-0.78,0.64
0.09,-0.78,0.64
0.09,-0.78,0.64
0.09,-0.78,0.64
0.08,-0.78,0.64
0.08,-0.78,0.64
0.09,-0.78,0.65
0.09,-0.78,0.65
0.09,-0.78,0.65
0.09,-0.78,0.65
0.09,-0.78,0.65
0.09,-0.78,0.65
0.09,-0.78,0.64
0.09,-0.78,0.64
0.08,-0.78,0.64
0.09,-0.78,0.64
0.09,-0.78,0.64
0.09,-0.78,0.64
0.09,-0.78,0.64
0.09,-0.78,0.64
0.09,-0.78,0.65
0.09,-0.78,0.65
0.09,-0.78,0.65
0.09,-0.78,0.65
0.09,-0.78,0.65
0.09,-0.78,0.64
0.09,-0.78,0.64
0.09,-0.78,0.63
0.09,-0.78,0.64
0.09,-0.78,0.64
0.09,-0.78,0.65
0.09,-0.78,0.66
0.09,-0.78,0.65
0.08,-0.78,0.65
0.08,-0.78,0.64
0.09,-0.78,0.64
0.08,-0.78,0.64
0.08,-0.78,0.65
0.07,-0.78,0.66
0.06,-0.78,0.67
0.05,-0.78,0.69
0.04,-0.78,0.69
0.05,-0.78,0.69
0.07,-0.77,0.69
0.07,-0.77,0.69
0.08,-0.77,0.69
0.07,-0.76,0.7
0.06,-0.76,0.73
0.06,-0.77,0.76
0.06,-0.77,0.76
0.06,-0.77,0.74
0.06,-0.76,0.72
0.09,-0.76,0.72
0.11,-0.76,0.73
0.12,-0.76,0.75
0.12,-0.78,0.76
0.09,-0.78,0.78
0.07,-0.78,0.79
0.07,-0.79,0.7
0.08,-0.79,0.66
0.08,-0.8,0.62
0.07,-0.8,0.6
0.07,-0.81,0.57
0.07,-0.82,0.56
0.08,-0.82,0.55
0.09,-0.83,0.55
0.09,-0.84,0.55
0.09,-0.85,0.53
0.08,-0.85,0.51
0.07,-0.85,0.47
0.06,-0.86,0.43
0.06,-0.87,0.4
0.06,-0.88,0.38
0.07,-0.89,0.36
0.07,-0.9,0.35
0.06,-0.9,0.35
0.06,-0.91,0.36
0.05,-0.91,0.36
0.04,-0.92,0.36
0.03,-0.92,0.35
0.03,-0.92,0.34
0.03,-0.91,0.33
0.02,-0.92,0.33
0.01,-0.92,0.33
0,-0.91,0.32
0.01,-0.92,0.32
0.02,-0.92,0.32
0.03,-0.92,0.32
0.03,-0.92,0.32
0.03,-0.92,0.32
0.03,-0.91,0.32
0.04,-0.91,0.33
0.05,-0.9,0.34
0.06,-0.9,0.35
0.06,-0.89,0.36
0.07,-0.88,0.36
0.07,-0.88,0.36
0.06,-0.88,0.36
0.05,-0.87,0.35
0.04,-0.86,0.34
0.04,-0.85,0.33
0.04,-0.84,0.33
0.04,-0.83,0.35
0.04,-0.81,0.38
0.04,-0.8,0.42
0.03,-0.79,0.45
0.04,-0.78,0.48
0.05,-0.76,0.51
0.04,-0.73,0.53
0.05,-0.62,0.75
0.6,-0.23,2.23
0.29,-1.22,1.66
-0.14,-1.01,1.23
-0.41,-0.69,0.9
-0.25,-0.59,0.47
-0.11,-0.65,0.16
-0.02,-0.76,0.05
-0.01,-0.83,0.16
0,-0.84,0.35
0.06,-0.83,0.53
0.13,-0.82,0.68
0.21,-0.8,0.78
0.22,-0.77,0.83
0.16,-0.73,0.83
0.11,-0.73,0.77
0.07,-0.75,0.69
0.01,-0.75,0.63
-0.01,-0.75,0.61
0.03,-0.76,0.6
0.09,-0.78,0.61
0.13,-0.8,0.63
0.15,-0.8,0.65
0.14,-0.79,0.67
0.11,-0.78,0.67
0.09,-0.76,0.66
0.08,-0.75,0.66
0.07,-0.74,0.66
0.08,-0.75,0.67
0.08,-0.76,0.68
0.08,-0.77,0.67
0.07,-0.78,0.67
0.07,-0.78,0.66
0.07,-0.78,0.65
0.06,-0.78,0.65
0.06,-0.77,0.65
0.07,-0.77,0.66
0.06,-0.77,0.67
0.06,-0.77,0.66
0.07,-0.77,0.66
0.07,-0.77,0.65
0.07,-0.78,0.65
0.08,-0.77,0.65
0.08,-0.77,0.65
0.08,-0.77,0.65
0.08,-0.77,0.66
0.08,-0.77,0.66
0.08,-0.77,0.66
0.08,-0.77,0.66
0.08,-0.77,0.66
0.08,-0.77,0.66
0.08,-0.77,0.66
0.08,-0.77,0.66
0.08,-0.78,0.66
0.08,-0.78,0.65
0.08,-0.78,0.65
0.07,-0.78,0.64
0.07,-0.78,0.64
0.07,-0.78,0.64
0.07,-0.77,0.65
0.08,-0.77,0.65
0.08,-0.78,0.65
0.07,-0.78,0.66
0.07,-0.78,0.66
0.07,-0.77,0.65
0.07,-0.77,0.65
0.06,-0.77,0.65
0.06,-0.77,0.65
0.06,-0.78,0.65
0.06,-0.78,0.65
0.06,-0.78,0.64
0.07,-0.77,0.65
0.07,-0.77,0.65
0.07,-0.78,0.66
0.07,-0.78,0.66
0.07,-0.77,0.65
0.06,-0.78,0.65
0.07,-0.78,0.65
0.07,-0.78,0.65
0.07,-0.78,0.65
0.07,-0.77,0.65
0.07,-0.78,0.65
0.07,-0.78,0.65
0.07,-0.78,0.65
0.07,-0.78,0.65
0.07,-0.78,0.65
0.07,-0.78,0.65
0.07,-0.78,0.65
0.06,-0.77,0.65
0.07,-0.77,0.65
0.07,-0.77,0.65
0.08,-0.77,0.66
0.07,-0.77,0.66
0.07,-0.77,0.66
0.07,-0.78,0.65
0.07,-0.78,0.65
0.07,-0.78,0.65
0.07,-0.78,0.65
0.07,-0.78,0.65
0.07,-0.78,0.65
0.07,-0.77,0.65
0.07,-0.77,0.66
0.07,-0.77,0.66
0.07,-0.77,0.65
0.07,-0.77,0.66
0.07,-0.77,0.66
0.07,-0.77,0.65
0.07,-0.77,0.65
0.07,-0.77,0.65
0.07,-0.78,0.65
0.07,-0.78,0.65
0.07,-0.78,0.65
0.07,-0.78,0.65
0.07,-0.78,0.65
0.07,-0.78,0.65
0.07,-0.78,0.65
0.07,-0.78,0.65
0.07,-0.77,0.65
0.07,-0.77,0.66
0.07,-0.77,0.65
0.07,-0.77,0.65
0.07,-0.77,0.65
0.07,-0.77,0.65
0.07,-0.77,0.65
0.07,-0.78,0.65
0.07,-0.78,0.65
0.08,-0.78,0.65
0.07,-0.78,0.65
0.07,-0.78,0.65
0.07,-0.78,0.65
0.07,-0.78,0.65
0.07,-0.78,0.65
0.07,-0.77,0.65
0.07,-0.78,0.65
0.07,-0.78,0.65
0.07,-0.78,0.65
0.07,-0.78,0.65
0.07,-0.77,0.65
0.07,-0.78,0.65
0.07,-0.78,0.65
0.08,-0.78,0.66
0.07,-0.77,0.66
0.07,-0.78,0.65
0.07,-0.78,0.65
0.08,-0.78,0.65
0.08,-0.77,0.65
0.07,-0.77,0.65
0.08,-0.78,0.65
0.08,-0.78,0.65
0.07,-0.78,0.65
0.07,-0.78,0.65
0.07,-0.78,0.65
0.07,-0.77,0.65
0.07,-0.77,0.65
0.07,-0.78,0.65
0.07,-0.78,0.65
0.06,-0.77,0.65
0.06,-0.77,0.65
0.06,-0.78,0.65
0.07,-0.77,0.64
0.07,-0.77,0.64
0.07,-0.78,0.65
0.08,-0.78,0.66
0.08,-0.77,0.66
0.07,-0.77,0.66
0.07,-0.77,0.66
0.07,-0.77,0.65
0.07,-0.77,0.64
0.07,-0.78,0.64
0.07,-0.78,0.63
0.07,-0.78,0.64
0.07,-0.78,0.65
0.07,-0.78,0.65
0.07,-0.78,0.65
0.07,-0.78,0.66
0.07,-0.78,0.66
0.07,-0.77,0.66
0.08,-0.77,0.66
0.08,-0.78,0.65
0.07,-0.78,0.65
0.07,-0.78,0.65
0.07,-0.78,0.65
0.07,-0.78,0.64
0.07,-0.78,0.64
0.07,-0.78,0.65
0.07,-0.78,0.66
0.07,-0.78,0.66
0.07,-0.78,0.66
0.08,-0.78,0.66
0.08,-0.78,0.66
0.07,-0.78,0.65
0.07,-0.78,0.64
0.07,-0.78,0.64
0.07,-0.78,0.64
0.07,-0.78,0.64
0.07,-0.78,0.65
0.07,-0.77,0.65
0.08,-0.77,0.66
0.08,-0.77,0.66
0.08,-0.77,0.66
0.07,-0.78,0.66
0.07,-0.78,0.65
0.07,-0.78,0.64
0.07,-0.78,0.64
0.07,-0.78,0.64
0.07,-0.78,0.64
0.07,-0.78,0.64
0.08,-0.78,0.65
0.08,-0.78,0.66
0.08,-0.78,0.66
0.08,-0.77,0.66
0.07,-0.78,0.66
0.07,-0.77,0.65
0.07,-0.78,0.64
0.07,-0.78,0.64
0.07,-0.78,0.64
0.07,-0.78,0.64
0.07,-0.78,0.65
0.07,-0.78,0.65
0.08,-0.78,0.66
0.07,-0.77,0.66
0.07,-0.78,0.66
0.07,-0.78,0.66
0.07,-0.78,0.65
0.07,-0.77,0.65
0.07,-0.78,0.64
0.07,-0.78,0.64
0.07,-0.78,0.64
0.07,-0.78,0.64
0.07,-0.78,0.65
0.08,-0.78,0.66
0.08,-0.78,0.66
0.07,-0.78,0.66
0.08,-0.77,0.66
0.08,-0.77,0.65
0.08,-0.78,0.65
0.07,-0.78,0.64
0.08,-0.78,0.64
0.08,-0.78,0.65
0.08,-0.78,0.65
0.08,-0.78,0.65
0.07,-0.78,0.65
0.08,-0.77,0.66
0.08,-0.78,0.65
0.08,-0.78,0.66
0.08,-0.77,0.66
0.07,-0.77,0.65
0.07,-0.78,0.65
0.07,-0.78,0.64
0.08,-0.78,0.64
0.08,-0.78,0.64
0.08,-0.78,0.65
0.08,-0.78,0.65
0.08,-0.77,0.66
0.08,-0.78,0.66
0.08,-0.78,0.66
0.07,-0.77,0.66
0.07,-0.77,0.65
0.07,-0.78,0.65
0.06,-0.78,0.65
0.05,-0.78,0.66
0.04,-0.78,0.66
0.04,-0.77,0.69
0.03,-0.76,0.73
0.04,-0.75,0.77
0.03,-0.75,0.8
0.02,-0.75,0.81
0.01,-0.76,0.81
-0.03,-0.76,0.81
-0.06,-0.76,0.79
-0.06,-0.75,0.79
-0.04,-0.74,0.78
0.01,-0.75,0.77
0.1,-0.77,0.75
0.07,-0.75,0.82
0.04,-0.76,0.89
0.08,-0.79,0.85
0.08,-0.78,0.81
0.09,-0.78,0.74
0.1,-0.79,0.67
0.11,-0.79,0.61
0.12,-0.8,0.58
0.14,-0.81,0.54
0.13,-0.82,0.51
0.13,-0.83,0.5
0.12,-0.83,0.48
0.11,-0.84,0.46
0.11,-0.86,0.43
0.1,-0.87,0.36
0.1,-0.89,0.33
0.11,-0.89,0.31
0.12,-0.91,0.29
0.11,-0.92,0.28
0.1,-0.92,0.28
0.08,-0.93,0.29
0.06,-0.94,0.28
0.04,-0.94,0.28
0.03,-0.94,0.28
0.02,-0.94,0.28
0.01,-0.94,0.28
0.01,-0.94,0.27
0,-0.93,0.27
0,-0.93,0.26
0,-0.94,0.26
0,-0.94,0.25
0,-0.94,0.26
0.01,-0.93,0.26
0.01,-0.93,0.26
0.01,-0.93,0.27
0.02,-0.92,0.27
0.03,-0.92,0.28
0.04,-0.92,0.29
0.05,-0.91,0.3
0.07,-0.91,0.3
0.07,-0.9,0.3
0.06,-0.88,0.29
0.05,-0.87,0.3
0.05,-0.85,0.32
0.05,-0.85,0.34
0.04,-0.83,0.36
0.02,-0.82,0.38
0,-0.82,0.38
0,-0.82,0.37
0.04,-0.79,0.37
0.06,-0.75,0.39
0.04,-0.72,0.4
0,-0.37,0.94
0.7,0.08,2.66
0.43,-0.6,3.22
-0.13,-1.26,2.11
-0.03,-0.94,1.34
-0.32,-0.7,0.89
-0.24,-0.62,0.52
-0.16,-0.65,0.2
0.02,-0.72,0.05
0.12,-0.79,0.1
0.11,-0.84,0.23
0.11,-0.84,0.39
0.11,-0.84,0.58
0.13,-0.85,0.7
0.16,-0.8,0.77
0.14,-0.73,0.8
0.06,-0.75,0.75
0.02,-0.77,0.7
0.01,-0.76,0.66
0.06,-0.78,0.63
0.11,-0.79,0.6
0.15,-0.8,0.59
0.15,-0.8,0.6
0.13,-0.79,0.62
0.09,-0.78,0.64
0.06,-0.78,0.66
0.05,-0.76,0.68
0.04,-0.75,0.68
0.04,-0.75,0.68
0.04,-0.76,0.67
0.04,-0.77,0.67
0.05,-0.77,0.66
0.05,-0.78,0.66
0.07,-0.79,0.65
0.07,-0.79,0.64
0.06,-0.79,0.64
0.06,-0.78,0.65
0.05,-0.78,0.65
0.05,-0.78,0.65
0.06,-0.78,0.65
0.06,-0.78,0.65
0.06,-0.78,0.64
0.06,-0.78,0.64
0.07,-0.78,0.64
0.08,-0.77,0.65
0.07,-0.77,0.65
0.07,-0.77,0.65
0.07,-0.77,0.66
0.07,-0.77,0.66
0.07,-0.77,0.67
0.07,-0.78,0.67
0.07,-0.78,0.66
0.07,-0.78,0.65
0.07,-0.78,0.64
0.07,-0.78,0.64
0.06,-0.78,0.64
0.06,-0.78,0.64
0.06,-0.78,0.64
0.06,-0.78,0.64
0.06,-0.78,0.64
0.05,-0.78,0.64
0.05,-0.78,0.64
0.05,-0.78,0.64
0.05,-0.78,0.64
0.07,-0.77,0.65
0.07,-0.78,0.66
0.06,-0.78,0.66
0.06,-0.78,0.65
0.06,-0.78,0.64
0.06,-0.78,0.64
0.06,-0.78,0.64
0.06,-0.78,0.64
0.06,-0.78,0.65
0.07,-0.78,0.65
0.07,-0.78,0.65
0.06,-0.78,0.65
0.06,-0.78,0.64
0.06,-0.78,0.64
0.06,-0.78,0.64
0.06,-0.78,0.64
0.05,-0.78,0.64
0.05,-0.78,0.64
0.06,-0.78,0.65
0.06,-0.78,0.65
0.06,-0.78,0.65
0.06,-0.78,0.65
0.07,-0.78,0.65
0.07,-0.78,0.65
0.06,-0.78,0.65
0.06,-0.78,0.64
0.06,-0.78,0.64
0.06,-0.78,0.64
0.07,-0.79,0.64
0.07,-0.78,0.64
0.06,-0.78,0.64
0.06,-0.78,0.65
0.07,-0.78,0.65
0.07,-0.78,0.65
0.06,-0.78,0.66
0.06,-0.78,0.65
0.05,-0.78,0.65
0.05,-0.78,0.65
0.06,-0.78,0.64
0.06,-0.78,0.64
0.06,-0.78,0.64
0.06,-0.78,0.64
0.06,-0.78,0.65
0.06,-0.78,0.66
0.06,-0.78,0.65
0.06,-0.78,0.65
0.06,-0.78,0.65
0.06,-0.78,0.65
0.06,-0.78,0.64
0.06,-0.78,0.64
0.06,-0.78,0.64
0.06,-0.78,0.64
0.06,-0.78,0.64
0.06,-0.78,0.65
0.06,-0.78,0.65
0.06,-0.78,0.65
0.06,-0.78,0.65
0.06,-0.78,0.65
0.06,-0.78,0.64
0.06,-0.78,0.64
0.06,-0.78,0.63
0.05,-0.78,0.63
0.05,-0.79,0.63
0.05,-0.78,0.64
0.06,-0.78,0.64
0.06,-0.78,0.65
0.07,-0.78,0.66
0.07,-0.78,0.66
0.07,-0.78,0.65
0.06,-0.78,0.65
0.05,-0.78,0.65
0.06,-0.78,0.64
0.06,-0.78,0.64
0.06,-0.78,0.64
0.06,-0.78,0.64
0.06,-0.79,0.64
0.07,-0.78,0.64
0.07,-0.78,0.65
0.07,-0.78,0.65
0.06,-0.78,0.65
0.06,-0.78,0.65
0.06,-0.78,0.64
0.06,-0.78,0.64
0.06,-0.78,0.64
0.06,-0.78,0.64
0.06,-0.78,0.64
0.06,-0.79,0.64
0.06,-0.78,0.64
0.06,-0.78,0.65
0.07,-0.78,0.65
0.07,-0.78,0.66
0.06,-0.78,0.65
0.06,-0.78,0.65
0.06,-0.78,0.65
0.06,-0.78,0.64
0.06,-0.78,0.64
0.06,-0.79,0.64
0.05,-0.79,0.64
0.05,-0.79,0.64
0.05,-0.79,0.64
0.05,-0.78,0.64
0.06,-0.78,0.65
0.06,-0.78,0.65
0.06,-0.78,0.65
0.05,-0.78,0.64
0.05,-0.78,0.64
0.05,-0.78,0.64
0.05,-0.78,0.63
0.05,-0.78,0.63
0.05,-0.79,0.64
0.06,-0.78,0.64
0.06,-0.78,0.65
0.06,-0.78,0.65
0.07,-0.78,0.65
0.07,-0.78,0.65
0.07,-0.78,0.65
0.07,-0.79,0.65
0.07,-0.79,0.64
0.07,-0.78,0.63
0.06,-0.78,0.63
0.06,-0.78,0.63
0.06,-0.78,0.64
0.06,-0.78,0.65
0.06,-0.78,0.65
0.06,-0.78,0.65
0.06,-0.78,0.65
0.05,-0.78,0.65
0.05,-0.78,0.64
0.06,-0.78,0.63
0.06,-0.78,0.63
0.06,-0.78,0.64
0.06,-0.78,0.64
0.06,-0.78,0.65
0.06,-0.78,0.65
0.06,-0.78,0.65
0.06,-0.78,0.65
0.06,-0.78,0.64
0.06,-0.78,0.64
0.06,-0.78,0.64
0.06,-0.78,0.64
0.06,-0.78,0.64
0.06,-0.78,0.64
0.06,-0.78,0.64
0.06,-0.78,0.65
0.06,-0.78,0.65
0.06,-0.78,0.65
0.06,-0.78,0.65
0.06,-0.78,0.65
0.06,-0.78,0.64
0.06,-0.78,0.64
0.06,-0.78,0.64
0.06,-0.79,0.64
0.05,-0.79,0.64
0.06,-0.78,0.64
0.06,-0.78,0.65
0.06,-0.78,0.65
0.06,-0.78,0.65
0.06,-0.78,0.65
0.06,-0.78,0.64
0.06,-0.78,0.64
0.05,-0.78,0.64
0.06,-0.78,0.64
0.06,-0.78,0.64
0.06,-0.78,0.64
0.06,-0.78,0.64
0.06,-0.78,0.64
0.06,-0.79,0.65
0.06,-0.79,0.65
0.06,-0.78,0.64
0.07,-0.78,0.64
0.07,-0.78,0.64
0.07,-0.79,0.65
0.06,-0.79,0.65
0.05,-0.78,0.65
0.04,-0.78,0.66
0.04,-0.78,0.66
0.04,-0.78,0.66
0.04,-0.78,0.67
0.03,-0.78,0.68
0.02,-0.78,0.7
0,-0.78,0.71
0,-0.78,0.72
-0.01,-0.78,0.72
-0.01,-0.78,0.7
0.01,-0.78,0.67
0.03,-0.77,0.61
0.06,-0.76,0.59
0.09,-0.77,0.6
0.09,-0.79,0.63
0.09,-0.78,0.66
0.11,-0.78,0.71
0.11,-0.79,0.73
0.09,-0.79,0.74
0.06,-0.78,0.75
0.07,-0.78,0.75
0.07,-0.78,0.74
0.07,-0.78,0.72
0.07,-0.78,0.71
0.07,-0.78,0.7
0.06,-0.79,0.69
0.06,-0.8,0.68
0.06,-0.8,0.67
0.06,-0.8,0.66
0.07,-0.8,0.66
0.07,-0.8,0.66
0.07,-0.81,0.65
0.07,-0.82,0.63
0.07,-0.83,0.6
0.07,-0.83,0.57
0.08,-0.83,0.54
0.09,-0.84,0.51
0.1,-0.84,0.5
0.09,-0.86,0.49
0.09,-0.87,0.48
0.08,-0.88,0.45
0.07,-0.89,0.41
0.06,-0.89,0.38
0.06,-0.9,0.35
0.07,-0.9,0.34
0.07,-0.9,0.33
0.07,-0.91,0.34
0.06,-0.91,0.34
0.06,-0.91,0.35
0.06,-0.92,0.34
0.06,-0.92,0.33
0.06,-0.92,0.31
0.06,-0.92,0.3
0.06,-0.92,0.28
0.06,-0.93,0.28
0.05,-0.93,0.28
0.05,-0.93,0.28
0.05,-0.92,0.28
0.05,-0.91,0.29
0.05,-0.91,0.29
0.06,-0.9,0.3
0.07,-0.9,0.3
0.08,-0.89,0.29
0.08,-0.88,0.28
0.07,-0.85,0.29
0.02,-0.85,0.33
0,-0.85,0.36
0,-0.84,0.38
-0.01,-0.84,0.37
0,-0.81,0.36
0.01,-0.79,0.35
0,-0.78,0.36
0,-0.76,0.37
0.03,-0.73,0.4
0.19,-0.65,0.06
1.03,-0.16,1.54
0.91,-0.34,3.07
-0.03,-1.1,2.32
-0.2,-1.07,1.67
-0.29,-0.8,1.17
-0.28,-0.63,0.67
-0.21,-0.6,0.32
-0.09,-0.71,0.08
0.03,-0.78,0.06
0.04,-0.81,0.21
0.04,-0.8,0.39
0.07,-0.79,0.56
0.12,-0.8,0.74
0.15,-0.8,0.87
0.12,-0.76,0.9
0.06,-0.76,0.75
-0.04,-0.76,0.66
-0.06,-0.75,0.59
-0.05,-0.76,0.56
0.01,-0.78,0.57
0.07,-0.79,0.59
0.11,-0.79,0.63
0.11,-0.78,0.68
0.09,-0.77,0.7
0.06,-0.76,0.71
0.06,-0.75,0.7
0.06,-0.74,0.69
0.07,-0.74,0.68
0.07,-0.74,0.67
0.06,-0.75,0.67
0.07,-0.76,0.67
0.07,-0.77,0.67
0.07,-0.78,0.66
0.07,-0.78,0.66
0.06,-0.78,0.66
0.04,-0.77,0.66
0.04,-0.77,0.66
0.04,-0.77,0.66
0.04,-0.77,0.66
0.05,-0.77,0.66
0.05,-0.77,0.65
0.05,-0.77,0.64
0.05,-0.76,0.65
0.05,-0.76,0.66
0.05,-0.76,0.67
0.05,-0.76,0.68
0.06,-0.76,0.69
0.06,-0.76,0.69
0.06,-0.77,0.69
0.06,-0.77,0.67
0.06,-0.77,0.66
0.06,-0.78,0.65
0.06,-0.77,0.64
0.06,-0.77,0.64
0.06,-0.77,0.65
0.05,-0.77,0.65
0.05,-0.77,0.65
0.05,-0.77,0.66
0.05,-0.77,0.66
0.04,-0.77,0.66
0.04,-0.77,0.66
0.04,-0.77,0.66
0.05,-0.77,0.66
0.05,-0.77,0.66
0.06,-0.77,0.66
0.05,-0.77,0.66
0.05,-0.77,0.66
0.05,-0.77,0.66
0.05,-0.77,0.65
0.05,-0.77,0.66
0.04,-0.77,0.66
0.05,-0.78,0.66
0.05,-0.78,0.65
0.05,-0.77,0.65
0.05,-0.77,0.65
0.05,-0.77,0.65
0.05,-0.77,0.66
0.05,-0.77,0.66
0.05,-0.77,0.66
0.05,-0.77,0.66
0.05,-0.77,0.66
0.05,-0.77,0.66
0.05,-0.77,0.66
0.05,-0.77,0.66
0.05,-0.77,0.66
0.05,-0.77,0.66
0.05,-0.77,0.66
0.05,-0.77,0.66
0.05,-0.77,0.66
0.05,-0.77,0.66
0.05,-0.77,0.66
0.05,-0.77,0.66
0.05,-0.77,0.66
0.05,-0.77,0.65
0.05,-0.77,0.66
0.05,-0.77,0.66
0.05,-0.77,0.65
0.05,-0.77,0.65
0.05,-0.77,0.66
0.05,-0.77,0.66
0.05,-0.77,0.66
0.05,-0.77,0.66
0.05,-0.77,0.66
0.05,-0.77,0.66
0.05,-0.77,0.66
0.05,-0.77,0.65
0.05,-0.77,0.65
0.05,-0.77,0.65
0.05,-0.77,0.66
0.05,-0.78,0.66
0.05,-0.77,0.66
0.05,-0.78,0.66
0.05,-0.77,0.66
0.05,-0.77,0.66
0.05,-0.77,0.66
0.05,-0.77,0.66
0.05,-0.77,0.66
0.05,-0.77,0.66
0.05,-0.77,0.66
0.05,-0.77,0.66
0.05,-0.77,0.66
0.05,-0.77,0.66
0.05,-0.77,0.66
0.06,-0.77,0.66
0.05,-0.77,0.66
0.05,-0.77,0.66
0.05,-0.77,0.66
0.05,-0.77,0.66
0.05,-0.77,0.65
0.05,-0.77,0.66
0.05,-0.77,0.66
0.05,-0.77,0.66
0.05,-0.77,0.66
0.05,-0.77,0.66
0.05,-0.77,0.66
0.05,-0.77,0.66
0.05,-0.77,0.66
0.05,-0.77,0.66
0.05,-0.77,0.66
0.05,-0.77,0.66
0.05,-0.77,0.65
0.05,-0.77,0.65
0.05,-0.77,0.65
0.05,-0.77,0.65
0.05,-0.77,0.66
0.05,-0.77,0.67
0.05,-0.77,0.67
0.05,-0.77,0.66
0.05,-0.77,0.66
0.05,-0.77,0.65
0.05,-0.77,0.65
0.05,-0.77,0.65
0.05,-0.77,0.65
0.05,-0.77,0.66
0.05,-0.77,0.66
0.05,-0.77,0.66
0.05,-0.77,0.66
0.05,-0.78,0.66
0.05,-0.77,0.65
0.05,-0.77,0.65
0.05,-0.77,0.66
0.05,-0.77,0.66
0.05,-0.77,0.65
0.05,-0.77,0.66
0.05,-0.77,0.66
0.05,-0.77,0.66
0.05,-0.77,0.66
0.05,-0.77,0.66
0.05,-0.77,0.66
0.05,-0.77,0.66
0.05,-0.77,0.66
0.05,-0.77,0.66
0.05,-0.77,0.66
0.05,-0.77,0.66
0.05,-0.77,0.65
0.05,-0.77,0.65
0.05,-0.78,0.65
0.05,-0.78,0.65
0.05,-0.78,0.65
0.05,-0.77,0.66
0.05,-0.77,0.66
0.05,-0.77,0.66
0.05,-0.77,0.66
0.05,-0.77,0.66
0.05,-0.77,0.66
0.05,-0.77,0.66
0.05,-0.77,0.66
0.05,-0.77,0.66
0.05,-0.77,0.66
0.05,-0.77,0.66
0.05,-0.77,0.66
0.05,-0.77,0.66
0.05,-0.77,0.66
0.05,-0.77,0.66
0.05,-0.77,0.66
0.05,-0.78,0.66
0.05,-0.78,0.66
0.05,-0.77,0.65
0.04,-0.77,0.66
0.05,-0.78,0.66
0.05,-0.78,0.66
0.05,-0.77,0.66
0.05,-0.77,0.65
0.05,-0.77,0.65
0.05,-0.78,0.65
0.05,-0.78,0.66
0.05,-0.77,0.66
0.05,-0.78,0.66
0.05,-0.78,0.65
0.05,-0.77,0.65
0.05,-0.77,0.65
0.05,-0.77,0.65
0.05,-0.77,0.66
0.05,-0.77,0.66
0.05,-0.77,0.66
0.05,-0.77,0.66
0.05,-0.77,0.66
0.05,-0.77,0.66
0.05,-0.78,0.66
0.05,-0.78,0.66
0.05,-0.78,0.65
0.05,-0.78,0.65
0.05,-0.77,0.65
0.05,-0.77,0.66
0.05,-0.77,0.66
0.05,-0.77,0.66
0.05,-0.77,0.66
0.05,-0.77,0.66
0.05,-0.77,0.66
0.05,-0.77,0.66
0.05,-0.77,0.65
0.05,-0.77,0.65
0.05,-0.77,0.65
0.05,-0.77,0.65
0.05,-0.77,0.66
0.05,-0.77,0.66
0.05,-0.77,0.66
0.05,-0.77,0.67
0.04,-0.77,0.67
0.04,-0.77,0.67
0.04,-0.78,0.67
0.04,-0.78,0.66
0.04,-0.77,0.66
0.03,-0.77,0.66
0.03,-0.78,0.67
0.02,-0.78,0.68
0.03,-0.77,0.69
0.04,-0.77,0.7
0.05,-0.77,0.7
0.06,-0.77,0.68
0.08,-0.77,0.66
0.07,-0.78,0.64
0.05,-0.78,0.64
0.03,-0.78,0.66
0.03,-0.77,0.68
0.03,-0.76,0.7
0.04,-0.76,0.71
0.03,-0.76,0.72
0.01,-0.75,0.75
0.03,-0.75,0.76
0.05,-0.77,0.75
0.05,-0.77,0.76
0.08,-0.76,0.77
0.1,-0.76,0.76
0.07,-0.76,0.76
0.05,-0.77,0.77
0.06,-0.77,0.76
0.06,-0.78,0.74
0.05,-0.78,0.72
0.04,-0.78,0.69
0.03,-0.79,0.66
0.03,-0.8,0.64
0.03,-0.81,0.61
0.02,-0.81,0.59
0.02,-0.82,0.57
0.03,-0.82,0.56
0.03,-0.83,0.55
0.02,-0.84,0.54
0.02,-0.85,0.53
0.02,-0.85,0.5
0.01,-0.86,0.47
0.01,-0.87,0.43
0.02,-0.87,0.4
0.03,-0.87,0.38
0.03,-0.89,0.37
0.03,-0.9,0.36
0.03,-0.9,0.35
0.02,-0.91,0.34
0.02,-0.91,0.33
0.02,-0.92,0.32
0.02,-0.92,0.3
0.02,-0.92,0.3
0.02,-0.91,0.31
0.02,-0.9,0.32
0.02,-0.9,0.34
0.02,-0.89,0.36
0.01,-0.89,0.37
0.01,-0.89,0.37
0.01,-0.89,0.36
0.02,-0.88,0.36
0.04,-0.88,0.35
0.04,-0.88,0.34
0.05,-0.87,0.34
0.06,-0.86,0.34
0.06,-0.86,0.33
0.06,-0.84,0.34
0.08,-0.83,0.37
0.07,-0.85,0.39
0.06,-0.85,0.38
0.08,-0.82,0.36
0.1,-0.8,0.36
0.11,-0.76,0.4
0.11,-0.72,0.46
0.06,-0.66,0.82
0.59,-0.07,2.28
0.93,-0.12,2.73
0.54,-1.07,1.74
0.04,-1.19,1.37
-0.42,-0.71,1.08
-0.29,-0.51,0.65
-0.1,-0.57,0.33
-0.04,-0.71,0.17
0.06,-0.82,0.2
0.07,-0.83,0.35
0.1,-0.8,0.48
0.21,-0.79,0.6
0.31,-0.8,0.69
0.34,-0.81,0.73
0.3,-0.73,0.71
0.13,-0.74,0.67
0.07,-0.75,0.64
0.03,-0.76,0.63
0.03,-0.77,0.64
0.08,-0.78,0.65
0.13,-0.79,0.65
0.16,-0.79,0.66
0.16,-0.77,0.66
0.16,-0.76,0.66
0.14,-0.75,0.66
0.14,-0.74,0.66
0.13,-0.73,0.66
0.13,-0.74,0.67
0.13,-0.75,0.67
0.14,-0.75,0.67
0.14,-0.76,0.67
0.15,-0.76,0.68
0.15,-0.77,0.68
0.15,-0.78,0.67
0.14,-0.77,0.66
0.13,-0.77,0.66
0.12,-0.77,0.66
0.12,-0.77,0.65
0.12,-0.77,0.65
0.11,-0.77,0.64
0.11,-0.76,0.65
0.11,-0.76,0.65
0.11,-0.77,0.65
0.12,-0.76,0.66
0.13,-0.76,0.67
0.13,-0.76,0.67
0.13,-0.76,0.68
0.13,-0.76,0.68
0.13,-0.76,0.67
0.13,-0.76,0.67
0.13,-0.76,0.65
0.13,-0.77,0.65
0.13,-0.77,0.64
0.12,-0.77,0.64
0.12,-0.77,0.64
0.12,-0.77,0.64
0.11,-0.77,0.65
0.11,-0.77,0.65
0.12,-0.77,0.66
0.12,-0.77,0.66
0.12,-0.77,0.66
0.11,-0.77,0.66
0.11,-0.77,0.65
0.12,-0.77,0.65
0.12,-0.76,0.65
0.11,-0.76,0.65
0.11,-0.76,0.66
0.11,-0.76,0.66
0.12,-0.76,0.66
0.12,-0.77,0.66
0.12,-0.77,0.65
0.11,-0.77,0.65
0.12,-0.77,0.65
0.12,-0.77,0.65
0.12,-0.77,0.65
0.12,-0.77,0.65
0.12,-0.77,0.66
0.11,-0.77,0.66
0.12,-0.77,0.65
0.12,-0.76,0.65
0.12,-0.77,0.66
0.12,-0.77,0.66
0.11,-0.77,0.65
0.11,-0.76,0.65
0.11,-0.76,0.65
0.11,-0.76,0.66
0.11,-0.77,0.66
0.12,-0.77,0.66
0.12,-0.77,0.66
0.12,-0.77,0.66
0.11,-0.77,0.66
0.11,-0.77,0.65
0.11,-0.77,0.65
0.12,-0.77,0.65
0.11,-0.77,0.65
0.11,-0.77,0.66
0.11,-0.77,0.66
0.12,-0.77,0.66
0.12,-0.77,0.66
0.12,-0.76,0.66
0.11,-0.77,0.66
0.11,-0.77,0.65
0.11,-0.77,0.65
0.11,-0.77,0.65
0.11,-0.77,0.65
0.11,-0.77,0.65
0.11,-0.77,0.65
0.11,-0.77,0.65
0.11,-0.77,0.65
0.11,-0.77,0.65
0.11,-0.77,0.66
0.11,-0.77,0.66
0.12,-0.77,0.66
0.12,-0.77,0.66
0.12,-0.77,0.66
0.12,-0.77,0.66
0.12,-0.77,0.65
0.12,-0.77,0.65
0.12,-0.76,0.65
0.12,-0.77,0.65
0.11,-0.77,0.66
0.12,-0.77,0.66
0.12,-0.77,0.66
0.12,-0.77,0.66
0.12,-0.77,0.65
0.11,-0.77,0.65
0.11,-0.77,0.65
0.11,-0.77,0.65
0.11,-0.77,0.65
0.11,-0.77,0.65
0.11,-0.77,0.65
0.11,-0.77,0.66
0.11,-0.77,0.66
0.11,-0.77,0.66
0.12,-0.77,0.66
0.12,-0.77,0.66
0.11,-0.77,0.66
0.11,-0.77,0.65
0.11,-0.77,0.65
0.11,-0.77,0.65
0.11,-0.77,0.65
0.11,-0.77,0.65
0.11,-0.77,0.65
0.11,-0.77,0.66
0.11,-0.77,0.66
0.11,-0.77,0.66
0.11,-0.77,0.66
0.11,-0.77,0.66
0.11,-0.77,0.65
0.11,-0.77,0.64
0.11,-0.77,0.64
0.11,-0.77,0.65
0.11,-0.77,0.65
0.11,-0.77,0.66
0.11,-0.77,0.66
0.11,-0.77,0.66
0.11,-0.77,0.66
0.11,-0.77,0.66
0.11,-0.77,0.66
0.11,-0.77,0.65
0.11,-0.77,0.65
0.11,-0.77,0.65
0.11,-0.77,0.65
0.11,-0.77,0.65
0.11,-0.77,0.65
0.11,-0.77,0.65
0.1,-0.77,0.65
0.1,-0.77,0.66
0.11,-0.77,0.66
0.11,-0.77,0.66
0.11,-0.77,0.66
0.11,-0.77,0.66
0.11,-0.77,0.65
0.12,-0.77,0.65
0.11,-0.77,0.64
0.11,-0.77,0.64
0.11,-0.77,0.65
0.11,-0.77,0.65
0.11,-0.77,0.66
0.11,-0.77,0.66
0.12,-0.77,0.66
0.11,-0.77,0.66
0.11,-0.77,0.65
0.11,-0.77,0.65
0.11,-0.77,0.65
0.11,-0.77,0.65
0.11,-0.77,0.64
0.1,-0.77,0.65
0.11,-0.77,0.65
0.11,-0.77,0.65
0.11,-0.77,0.66
0.12,-0.77,0.66
0.11,-0.77,0.66
0.11,-0.77,0.66
0.11,-0.77,0.66
0.11,-0.77,0.65
0.11,-0.77,0.65
0.11,-0.77,0.66
0.1,-0.77,0.67
0.1,-0.77,0.68
0.1,-0.77,0.68
0.1,-0.77,0.68
0.1,-0.77,0.67
0.1,-0.77,0.67
0.09,-0.77,0.68
0.07,-0.77,0.7
0.05,-0.77,0.72
0.05,-0.76,0.76
0.05,-0.76,0.77
0.05,-0.76,0.76
0.06,-0.76,0.73
0.08,-0.76,0.69
0.1,-0.76,0.67
0.11,-0.76,0.66
0.12,-0.76,0.67
0.13,-0.77,0.67
0.15,-0.76,0.7
0.16,-0.76,0.75
0.14,-0.75,0.81
0.15,-0.75,0.82
0.19,-0.76,0.81
0.17,-0.76,0.79
0.15,-0.77,0.71
0.14,-0.77,0.67
0.13,-0.78,0.62
0.12,-0.79,0.6
0.11,-0.8,0.58
0.1,-0.81,0.57
0.1,-0.82,0.56
0.1,-0.82,0.55
0.09,-0.83,0.54
0.08,-0.84,0.52
0.07,-0.84,0.5
0.07,-0.85,0.49
0.07,-0.86,0.47
0.07,-0.87,0.45
0.06,-0.88,0.43
0.06,-0.89,0.42
0.05,-0.89,0.42
0.04,-0.9,0.41
0.04,-0.9,0.39
0.04,-0.9,0.38
0.05,-0.91,0.37
0.05,-0.91,0.36
0.04,-0.91,0.35
0.03,-0.92,0.34
0.03,-0.92,0.32
0.02,-0.93,0.31
0.02,-0.92,0.29
0.02,-0.92,0.29
0.03,-0.93,0.29
0.03,-0.92,0.29
0.03,-0.92,0.3
0.03,-0.92,0.3
0.02,-0.91,0.3
0.03,-0.91,0.3
0.03,-0.9,0.3
0.04,-0.9,0.31
0.05,-0.9,0.31
0.06,-0.89,0.32
0.08,-0.88,0.34
0.09,-0.87,0.35
0.07,-0.87,0.35
0.04,-0.85,0.34
0,-0.83,0.36
-0.04,-0.83,0.4
-0.05,-0.82,0.42
-0.07,-0.83,0.44
-0.06,-0.83,0.44
-0.03,-0.82,0.41
0,-0.8,0.35
0.02,-0.75,0.32
0.09,-0.54,0.72
0.88,0.04,2.46
0.66,-0.41,1.84
0.01,-1.05,1.24
-0.23,-0.73,0.88
-0.1,-0.56,0.48
-0.07,-0.6,0.2
0.04,-0.75,0.06
0.09,-0.84,0.12
0.02,-0.86,0.31
0.02,-0.83,0.53
0.08,-0.83,0.67
0.18,-0.81,0.76
0.18,-0.77,0.83
0.1,-0.74,0.85
0.04,-0.73,0.79
0,-0.76,0.7
-0.05,-0.76,0.64
-0.06,-0.76,0.62
-0.01,-0.77,0.6
0.06,-0.79,0.6
0.1,-0.8,0.61
0.11,-0.8,0.63
0.1,-0.79,0.65
0.09,-0.78,0.67
0.08,-0.77,0.67
0.07,-0.76,0.67
0.07,-0.75,0.67
0.07,-0.75,0.67
0.08,-0.77,0.67
0.1,-0.77,0.66
0.1,-0.78,0.66
0.09,-0.79,0.66
0.08,-0.79,0.65
0.08,-0.79,0.64
0.08,-0.78,0.64
0.07,-0.77,0.64
0.06,-0.77,0.64
0.06,-0.78,0.64
0.06,-0.78,0.64
0.06,-0.78,0.64
0.06,-0.78,0.64
0.06,-0.78,0.64
0.07,-0.77,0.65
0.07,-0.77,0.65
0.07,-0.77,0.66
0.07,-0.77,0.66
0.07,-0.77,0.66
0.07,-0.77,0.66
0.07,-0.78,0.65
0.07,-0.78,0.65
0.07,-0.77,0.65
0.08,-0.78,0.65
0.08,-0.78,0.65
0.08,-0.78,0.65
0.08,-0.78,0.65
0.07,-0.78,0.65
0.07,-0.78,0.65
0.07,-0.78,0.64
0.07,-0.78,0.64
0.07,-0.78,0.65
0.06,-0.78,0.65
0.07,-0.78,0.64
0.07,-0.77,0.65
0.07,-0.77,0.65
0.06,-0.77,0.65
0.06,-0.78,0.65
0.07,-0.77,0.65
0.07,-0.78,0.66
0.07,-0.78,0.66
0.06,-0.78,0.66
0.06,-0.78,0.65
0.07,-0.78,0.65
0.07,-0.78,0.65
0.07,-0.78,0.64
0.07,-0.78,0.64
0.08,-0.78,0.64
0.08,-0.78,0.64
0.07,-0.78,0.64
0.07,-0.78,0.65
0.07,-0.78,0.65
0.07,-0.78,0.65
0.06,-0.78,0.65
0.06,-0.78,0.65
0.06,-0.78,0.65
0.06,-0.78,0.65
0.06,-0.78,0.65
0.06,-0.78,0.65
0.07,-0.78,0.65
0.07,-0.78,0.65
0.07,-0.78,0.65
0.07,-0.78,0.65
0.07,-0.78,0.65
0.07,-0.78,0.65
0.07,-0.78,0.65
0.07,-0.78,0.65
0.07,-0.78,0.64
0.07,-0.78,0.64
0.07,-0.78,0.63
0.07,-0.78,0.64
0.07,-0.78,0.64
0.07,-0.78,0.64
0.07,-0.78,0.65
0.07,-0.78,0.65
0.08,-0.78,0.66
0.07,-0.78,0.65
0.07,-0.78,0.65
0.07,-0.78,0.65
0.07,-0.78,0.64
0.07,-0.78,0.64
0.07,-0.78,0.64
0.07,-0.78,0.64
0.07,-0.78,0.64
0.07,-0.78,0.64
0.07,-0.78,0.65
0.07,-0.78,0.65
0.07,-0.78,0.65
0.07,-0.78,0.65
0.07,-0.78,0.65
0.07,-0.78,0.64
0.07,-0.78,0.64
0.07,-0.78,0.64
0.07,-0.78,0.64
0.06,-0.78,0.64
0.06,-0.78,0.64
0.06,-0.78,0.65
0.07,-0.78,0.66
0.06,-0.78,0.66
0.06,-0.78,0.66
0.06,-0.78,0.65
0.06,-0.78,0.64
0.07,-0.78,0.64
0.07,-0.78,0.64
0.06,-0.79,0.63
0.07,-0.78,0.64
0.07,-0.78,0.64
0.07,-0.78,0.65
0.08,-0.78,0.65
0.07,-0.78,0.66
0.07,-0.78,0.66
0.07,-0.78,0.65
0.07,-0.78,0.65
0.07,-0.78,0.64
0.07,-0.79,0.64
0.07,-0.78,0.64
0.07,-0.79,0.64
0.07,-0.79,0.64
0.07,-0.78,0.64
0.07,-0.78,0.64
0.08,-0.78,0.65
0.08,-0.78,0.65
0.07,-0.78,0.65
0.07,-0.78,0.65
0.06,-0.78,0.64
0.06,-0.78,0.64
0.06,-0.78,0.64
0.06,-0.79,0.64
0.06,-0.78,0.64
0.06,-0.78,0.64
0.06,-0.78,0.65
0.06,-0.78,0.65
0.06,-0.77,0.65
0.05,-0.78,0.66
0.05,-0.78,0.65
0.05,-0.78,0.65
0.05,-0.78,0.65
0.05,-0.78,0.64
0.06,-0.78,0.64
0.06,-0.78,0.64
0.05,-0.78,0.65
0.05,-0.78,0.64
0.06,-0.78,0.64
0.06,-0.78,0.65
0.06,-0.78,0.65
0.06,-0.78,0.65
0.06,-0.78,0.64
0.06,-0.78,0.64
0.06,-0.79,0.64
0.07,-0.78,0.63
0.07,-0.78,0.63
0.07,-0.78,0.64
0.07,-0.78,0.65
0.07,-0.78,0.65
0.07,-0.78,0.65
0.07,-0.78,0.66
0.07,-0.79,0.65
0.07,-0.79,0.64
0.07,-0.79,0.63
0.07,-0.79,0.63
0.07,-0.79,0.63
0.07,-0.79,0.63
0.07,-0.79,0.63
0.07,-0.79,0.64
0.07,-0.79,0.65
0.08,-0.78,0.65
0.08,-0.78,0.65
0.08,-0.78,0.64
0.07,-0.79,0.64
0.07,-0.78,0.63
0.06,-0.78,0.63
0.06,-0.79,0.63
0.07,-0.79,0.63
0.07,-0.79,0.64
0.07,-0.79,0.64
0.07,-0.79,0.65
0.07,-0.78,0.65
0.07,-0.78,0.65
0.07,-0.78,0.64
0.06,-0.78,0.64
0.06,-0.79,0.64
0.06,-0.78,0.64
0.06,-0.78,0.63
0.06,-0.79,0.64
0.05,-0.79,0.64
0.06,-0.78,0.65
0.06,-0.79,0.65
0.05,-0.79,0.65
0.05,-0.78,0.65
0.05,-0.78,0.65
0.05,-0.78,0.65
0.05,-0.78,0.65
0.05,-0.78,0.65
0.05,-0.78,0.66
0.04,-0.78,0.66
0.04,-0.78,0.68
0.02,-0.77,0.7
0,-0.78,0.72
-0.01,-0.78,0.74
-0.02,-0.79,0.74
-0.01,-0.78,0.73
0,-0.77,0.7
0.01,-0.77,0.67
0.02,-0.77,0.65
0.04,-0.77,0.64
0.05,-0.77,0.64
0.06,-0.77,0.65
0.06,-0.77,0.69
0.05,-0.78,0.76
0.08,-0.8,0.75
0.08,-0.79,0.75
0.09,-0.79,0.75
0.11,-0.79,0.73
0.12,-0.79,0.69
0.13,-0.79,0.67
0.12,-0.79,0.65
0.1,-0.8,0.64
0.09,-0.81,0.63
0.09,-0.82,0.61
0.09,-0.82,0.59
0.09,-0.83,0.56
0.09,-0.83,0.54
0.09,-0.83,0.53
0.09,-0.83,0.52
0.1,-0.84,0.54
0.12,-0.84,0.55
0.11,-0.85,0.53
0.1,-0.87,0.49
0.1,-0.87,0.44
0.1,-0.88,0.39
0.09,-0.89,0.33
0.08,-0.9,0.29
0.08,-0.91,0.27
0.09,-0.92,0.25
0.09,-0.93,0.25
0.08,-0.93,0.25
0.08,-0.92,0.25
0.07,-0.91,0.25
0.05,-0.91,0.26
0.04,-0.9,0.27
0.02,-0.91,0.27
0.02,-0.9,0.26
0.02,-0.89,0.25
0.03,-0.88,0.26
0.04,-0.87,0.28
0.06,-0.85,0.31
0.09,-0.84,0.35
0.1,-0.83,0.4
0.09,-0.81,0.43
0.07,-0.8,0.45
0.05,-0.79,0.46
0.04,-0.8,0.44
0.03,-0.8,0.41
0.04,-0.78,0.36
0.07,-0.77,0.31
0.23,-0.71,-0.08
0.85,-0.26,1.05
0.75,-0.26,3.02
0.2,-0.91,2.92
0.26,-1.09,1.93
0.06,-0.93,1.3
-0.14,-0.54,0.48
-0.08,-0.68,0.11
0.01,-0.77,-0.04
0.04,-0.81,0.03
0.02,-0.81,0.18
0.03,-0.81,0.34
0.07,-0.83,0.52
0.13,-0.83,0.68
0.17,-0.77,0.82
0.16,-0.72,0.91
0.13,-0.72,0.9
0.08,-0.74,0.84
0.03,-0.75,0.77
0,-0.75,0.7
0.04,-0.76,0.63
0.1,-0.77,0.58
0.14,-0.78,0.57
0.15,-0.78,0.59
0.14,-0.77,0.63
0.12,-0.77,0.66
0.12,-0.76,0.69
0.11,-0.74,0.71
0.09,-0.73,0.72
0.09,-0.73,0.71
0.09,-0.74,0.7
0.08,-0.75,0.69
0.08,-0.76,0.67
0.08,-0.77,0.66
0.09,-0.77,0.66
0.09,-0.77,0.67
0.08,-0.77,0.67
0.07,-0.77,0.67
0.08,-0.77,0.65
0.08,-0.76,0.65
0.08,-0.76,0.65
0.09,-0.76,0.65
0.1,-0.76,0.66
0.1,-0.76,0.66
0.1,-0.76,0.67
0.1,-0.76,0.67
0.1,-0.76,0.67
0.09,-0.75,0.68
0.09,-0.76,0.68
0.09,-0.76,0.68
0.1,-0.76,0.67
0.11,-0.76,0.66
0.11,-0.76,0.66
0.1,-0.77,0.66
0.1,-0.77,0.65
0.1,-0.77,0.65
0.1,-0.77,0.65
0.09,-0.77,0.65
0.08,-0.76,0.66
0.08,-0.76,0.67
0.07,-0.76,0.67
0.07,-0.76,0.67
0.07,-0.76,0.67
0.08,-0.77,0.67
0.08,-0.76,0.66
0.08,-0.76,0.66
0.08,-0.76,0.66
0.08,-0.76,0.66
0.09,-0.77,0.66
0.09,-0.77,0.67
0.09,-0.76,0.67
0.09,-0.76,0.67
0.09,-0.76,0.67
0.09,-0.77,0.66
0.09,-0.77,0.66
0.09,-0.77,0.66
0.08,-0.77,0.66
0.08,-0.77,0.65
0.08,-0.77,0.66
0.07,-0.77,0.66
0.07,-0.76,0.66
0.07,-0.76,0.66
0.08,-0.76,0.66
0.08,-0.76,0.66
0.08,-0.76,0.67
0.08,-0.77,0.67
0.08,-0.77,0.66
0.09,-0.77,0.66
0.08,-0.77,0.66
0.08,-0.77,0.66
0.08,-0.77,0.65
0.08,-0.77,0.65
0.09,-0.77,0.65
0.08,-0.77,0.65
0.08,-0.77,0.65
0.09,-0.77,0.66
0.09,-0.77,0.66
0.09,-0.77,0.66
0.08,-0.77,0.66
0.08,-0.77,0.66
0.08,-0.77,0.66
0.08,-0.77,0.66
0.08,-0.77,0.65
0.08,-0.77,0.65
0.08,-0.77,0.64
0.09,-0.77,0.65
0.08,-0.77,0.66
0.08,-0.77,0.66
0.08,-0.77,0.66
0.07,-0.77,0.67
0.07,-0.77,0.66
0.07,-0.77,0.66
0.07,-0.77,0.65
0.07,-0.77,0.65
0.08,-0.77,0.64
0.08,-0.77,0.64
0.08,-0.77,0.65
0.08,-0.77,0.66
0.08,-0.77,0.66
0.08,-0.77,0.66
0.08,-0.77,0.66
0.08,-0.77,0.66
0.08,-0.77,0.66
0.08,-0.77,0.66
0.08,-0.77,0.66
0.07,-0.77,0.65
0.08,-0.77,0.66
0.08,-0.77,0.66
0.08,-0.77,0.66
0.08,-0.77,0.66
0.08,-0.76,0.67
0.08,-0.76,0.67
0.08,-0.76,0.67
0.08,-0.77,0.67
0.07,-0.77,0.66
0.08,-0.77,0.66
0.07,-0.76,0.66
0.07,-0.77,0.65
0.07,-0.77,0.65
0.07,-0.77,0.66
0.07,-0.77,0.66
0.07,-0.77,0.66
0.07,-0.77,0.66
0.07,-0.77,0.66
0.07,-0.77,0.66
0.07,-0.77,0.66
0.07,-0.77,0.65
0.06,-0.77,0.65
0.07,-0.77,0.66
0.07,-0.77,0.66
0.07,-0.77,0.66
0.07,-0.77,0.66
0.07,-0.77,0.66
0.07,-0.77,0.66
0.07,-0.77,0.66
0.07,-0.77,0.66
0.07,-0.77,0.66
0.07,-0.77,0.66
0.07,-0.77,0.65
0.07,-0.77,0.65
0.07,-0.77,0.65
0.07,-0.77,0.66
0.07,-0.77,0.66
0.07,-0.77,0.66
0.07,-0.77,0.66
0.07,-0.77,0.67
0.07,-0.77,0.67
0.06,-0.77,0.66
0.06,-0.77,0.66
0.06,-0.77,0.65
0.06,-0.77,0.65
0.06,-0.77,0.65
0.06,-0.77,0.65
0.06,-0.77,0.65
0.06,-0.77,0.66
0.07,-0.77,0.66
0.07,-0.77,0.66
0.07,-0.77,0.66
0.07,-0.77,0.66
0.07,-0.77,0.66
0.07,-0.77,0.66
0.07,-0.77,0.65
0.07,-0.77,0.65
0.06,-0.77,0.65
0.07,-0.77,0.65
0.07,-0.77,0.65
0.07,-0.77,0.66
0.07,-0.77,0.67
0.07,-0.77,0.67
0.07,-0.77,0.67
0.06,-0.77,0.66
0.06,-0.77,0.66
0.06,-0.77,0.65
0.06,-0.77,0.64
0.06,-0.78,0.64
0.06,-0.78,0.65
0.07,-0.77,0.66
0.08,-0.77,0.66
0.08,-0.77,0.66
0.08,-0.77,0.67
0.07,-0.77,0.67
0.07,-0.77,0.66
0.07,-0.77,0.66
0.07,-0.77,0.65
0.07,-0.77,0.65
0.07,-0.77,0.65
0.07,-0.78,0.65
0.07,-0.78,0.65
0.08,-0.77,0.66
0.08,-0.77,0.66
0.08,-0.77,0.66
0.08,-0.77,0.66
0.07,-0.77,0.66
0.07,-0.77,0.65
0.07,-0.77,0.65
0.07,-0.77,0.64
0.07,-0.77,0.64
0.07,-0.77,0.65
0.08,-0.77,0.65
0.08,-0.77,0.66
0.07,-0.77,0.66
0.07,-0.77,0.66
0.07,-0.77,0.66
0.07,-0.77,0.66
0.07,-0.77,0.65
0.07,-0.77,0.65
0.07,-0.77,0.65
0.07,-0.77,0.65
0.07,-0.77,0.66
0.07,-0.77,0.67
0.06,-0.77,0.67
0.06,-0.77,0.68
0.06,-0.77,0.69
0.05,-0.77,0.7
0.05,-0.77,0.71
0.05,-0.77,0.71
0.05,-0.77,0.71
0.05,-0.77,0.71
0.06,-0.77,0.71
0.06,-0.76,0.71
0.05,-0.76,0.72
0.04,-0.76,0.73
0.03,-0.76,0.73
0.02,-0.76,0.73
0.02,-0.76,0.7
0.07,-0.76,0.68
0.1,-0.76,0.7
0.1,-0.77,0.74
0.14,-0.77,0.78
0.12,-0.77,0.82
0.09,-0.79,0.83
0.07,-0.79,0.79
0.05,-0.77,0.74
0.05,-0.77,0.7
0.05,-0.77,0.68
0.05,-0.78,0.65
0.05,-0.79,0.63
0.05,-0.8,0.62
0.04,-0.8,0.61
0.03,-0.81,0.6
0.02,-0.81,0.59
0.02,-0.82,0.56
0.01,-0.83,0.53
0.01,-0.83,0.5
0.01,-0.84,0.48
0.02,-0.86,0.46
0.03,-0.87,0.42
0.02,-0.89,0.41
0.02,-0.89,0.39
0.02,-0.9,0.38
0.02,-0.91,0.37
0.03,-0.91,0.37
0.04,-0.92,0.36
0.03,-0.92,0.35
0.03,-0.92,0.34
0.02,-0.92,0.32
0.01,-0.92,0.3
0.01,-0.92,0.29
0.01,-0.93,0.29
0.01,-0.93,0.29
0.01,-0.93,0.28
0,-0.93,0.27
0.01,-0.93,0.27
0.01,-0.92,0.27
0.01,-0.92,0.27
0.01,-0.92,0.26
0.01,-0.92,0.26
0,-0.91,0.26
0.01,-0.9,0.26
0.02,-0.9,0.26
0.03,-0.89,0.27
0.04,-0.88,0.28
0.04,-0.87,0.3
0.04,-0.85,0.32
0.04,-0.83,0.34
0.03,-0.8,0.39
0.02,-0.79,0.45
-0.01,-0.81,0.46
-0.03,-0.8,0.43
-0.02,-0.76,0.39
0.02,-0.72,0.4
0.06,-0.69,0.44
0.1,-0.4,0.88
1.08,0.05,2.55
0.91,-0.46,3.14
0.01,-1.14,2.2
-0.02,-1.01,1.61
-0.21,-0.74,1.05
-0.17,-0.57,0.62
-0.17,-0.6,0.29
-0.04,-0.74,0.11
0.06,-0.81,0.13
0.08,-0.81,0.24
0.09,-0.8,0.37
0.14,-0.79,0.55
0.23,-0.81,0.68
0.28,-0.81,0.75
0.23,-0.75,0.82
0.14,-0.72,0.83
0.01,-0.75,0.71
-0.04,-0.74,0.68
-0.02,-0.74,0.65
0.05,-0.77,0.62
0.11,-0.79,0.61
0.15,-0.79,0.62
0.14,-0.78,0.64
0.12,-0.77,0.65
0.1,-0.76,0.66
0.08,-0.75,0.68
0.07,-0.73,0.69
0.07,-0.73,0.69
0.07,-0.74,0.7
0.08,-0.74,0.7
0.08,-0.75,0.7
0.09,-0.77,0.69
0.09,-0.77,0.68
0.09,-0.77,0.67
0.09,-0.77,0.66
0.08,-0.77,0.66
0.08,-0.77,0.66
0.08,-0.77,0.66
0.07,-0.77,0.66
0.07,-0.76,0.66
0.08,-0.76,0.66
0.08,-0.76,0.65
0.07,-0.76,0.66
0.08,-0.76,0.67
0.08,-0.76,0.68
0.08,-0.76,0.69
0.07,-0.76,0.68
0.07,-0.76,0.68
0.07,-0.76,0.68
0.07,-0.76,0.68
0.08,-0.76,0.67
0.08,-0.76,0.67
0.08,-0.76,0.66
0.07,-0.77,0.66
0.07,-0.77,0.65
0.06,-0.77,0.65
0.06,-0.77,0.65
0.07,-0.77,0.65
0.07,-0.77,0.66
0.06,-0.77,0.67
0.06,-0.76,0.67
0.06,-0.76,0.68
0.05,-0.76,0.68
0.05,-0.76,0.67
0.06,-0.76,0.67
0.05,-0.76,0.67
0.05,-0.76,0.66
0.05,-0.76,0.65
0.05,-0.77,0.66
0.06,-0.77,0.66
0.06,-0.77,0.66
0.06,-0.77,0.66
0.05,-0.77,0.65
0.06,-0.77,0.66
0.06,-0.77,0.66
0.06,-0.77,0.66
0.06,-0.76,0.66
0.06,-0.77,0.67
0.06,-0.77,0.67
0.07,-0.76,0.68
0.07,-0.76,0.67
0.07,-0.76,0.67
0.07,-0.77,0.67
0.07,-0.77,0.66
0.07,-0.76,0.66
0.07,-0.76,0.66
0.07,-0.76,0.66
0.07,-0.77,0.66
0.07,-0.77,0.67
0.07,-0.77,0.67
0.06,-0.77,0.67
0.06,-0.77,0.67
0.06,-0.77,0.66
0.06,-0.77,0.66
0.06,-0.77,0.65
0.05,-0.77,0.65
0.05,-0.76,0.66
0.06,-0.77,0.67
0.06,-0.77,0.67
0.06,-0.77,0.67
0.06,-0.77,0.67
0.06,-0.77,0.67
0.06,-0.77,0.66
0.06,-0.77,0.66
0.06,-0.77,0.66
0.06,-0.77,0.66
0.06,-0.77,0.65
0.06,-0.77,0.65
0.07,-0.77,0.65
0.07,-0.77,0.65
0.07,-0.78,0.65
0.07,-0.78,0.66
0.07,-0.78,0.66
0.07,-0.78,0.66
0.07,-0.78,0.65
0.06,-0.77,0.65
0.06,-0.78,0.65
0.06,-0.78,0.65
0.06,-0.77,0.65
0.06,-0.77,0.65
0.07,-0.77,0.66
0.07,-0.77,0.66
0.07,-0.77,0.66
0.07,-0.77,0.66
0.06,-0.77,0.66
0.06,-0.77,0.66
0.06,-0.77,0.65
0.06,-0.77,0.65
0.07,-0.77,0.65
0.06,-0.78,0.65
0.06,-0.78,0.65
0.06,-0.77,0.65
0.06,-0.77,0.66
0.06,-0.78,0.66
0.05,-0.78,0.66
0.05,-0.78,0.65
0.06,-0.78,0.65
0.05,-0.78,0.65
0.05,-0.78,0.64
0.05,-0.78,0.64
0.05,-0.78,0.65
0.06,-0.78,0.65
0.06,-0.78,0.65
0.06,-0.77,0.66
0.06,-0.77,0.66
0.05,-0.77,0.66
0.06,-0.77,0.66
0.06,-0.77,0.66
0.06,-0.77,0.66
0.06,-0.77,0.66
0.05,-0.77,0.65
0.05,-0.78,0.65
0.04,-0.78,0.65
0.05,-0.77,0.65
0.05,-0.77,0.65
0.05,-0.77,0.65
0.05,-0.77,0.65
0.05,-0.78,0.65
0.05,-0.77,0.65
0.05,-0.77,0.65
0.05,-0.78,0.65
0.05,-0.77,0.65
0.05,-0.77,0.65
0.05,-0.77,0.66
0.05,-0.77,0.65
0.05,-0.78,0.65
0.05,-0.78,0.65
0.05,-0.77,0.65
0.05,-0.77,0.65
0.06,-0.77,0.66
0.06,-0.78,0.66
0.06,-0.78,0.67
0.06,-0.77,0.66
0.06,-0.78,0.65
0.05,-0.78,0.65
0.05,-0.77,0.64
0.05,-0.78,0.64
0.05,-0.78,0.64
0.06,-0.78,0.64
0.06,-0.78,0.65
0.07,-0.78,0.65
0.07,-0.78,0.65
0.07,-0.78,0.65
0.07,-0.78,0.65
0.07,-0.78,0.65
0.06,-0.78,0.65
0.06,-0.78,0.64
0.06,-0.78,0.64
0.06,-0.78,0.64
0.07,-0.78,0.64
0.07,-0.78,0.65
0.07,-0.78,0.65
0.07,-0.78,0.65
0.07,-0.78,0.65
0.07,-0.78,0.65
0.07,-0.78,0.66
0.06,-0.77,0.66
0.06,-0.78,0.67
0.06,-0.78,0.68
0.06,-0.78,0.68
0.06,-0.78,0.69
0.05,-0.78,0.69
0.04,-0.78,0.7
0.03,-0.78,0.72
0.02,-0.78,0.73
0.02,-0.77,0.74
0.01,-0.77,0.74
0,-0.76,0.73
0.01,-0.76,0.71
0.02,-0.76,0.68
0.05,-0.75,0.66
0.09,-0.75,0.65
0.11,-0.76,0.68
0.11,-0.77,0.72
0.09,-0.77,0.77
0.08,-0.78,0.82
0.07,-0.79,0.81
0.07,-0.78,0.77
0.06,-0.77,0.74
0.05,-0.77,0.7
0.05,-0.78,0.68
0.04,-0.79,0.65
0.03,-0.8,0.63
0.03,-0.81,0.61
0.03,-0.81,0.59
0.03,-0.83,0.58
0.04,-0.83,0.57
0.04,-0.84,0.56
0.05,-0.84,0.55
0.05,-0.84,0.53
0.04,-0.85,0.52
0.04,-0.85,0.49
0.05,-0.86,0.47
0.06,-0.87,0.43
0.06,-0.87,0.41
0.06,-0.87,0.39
0.05,-0.88,0.37
0.05,-0.9,0.35
0.05,-0.91,0.34
0.04,-0.91,0.33
0.04,-0.92,0.31
0.04,-0.92,0.31
0.03,-0.92,0.3
0.03,-0.92,0.3
0.03,-0.92,0.29
0.02,-0.92,0.28
0.02,-0.92,0.29
0.01,-0.92,0.29
0,-0.91,0.3
0.01,-0.9,0.31
0,-0.9,0.35
0.01,-0.89,0.36
0.02,-0.9,0.36
0.02,-0.89,0.35
0.02,-0.88,0.34
0.02,-0.88,0.31
0.01,-0.88,0.3
0.04,-0.86,0.31
0.09,-0.83,0.35
0.13,-0.82,0.4
0.16,-0.81,0.46
0.18,-0.8,0.5
0.19,-0.79,0.55
0.17,-0.77,0.59
0.14,-0.77,0.61
0.1,-0.77,0.62
0.06,-0.79,0.59
0.02,-0.82,0.53
0,-0.81,0.44
-0.03,-0.65,-0.04
0.39,-0.28,0.62
1.07,0,2.42
0.54,-0.7,2.65
0.2,-1.19,1.85
0.31,-0.92,1.38
-0.07,-0.75,1.04
-0.18,-0.56,0.36
-0.17,-0.79,0.16
-0.06,-0.83,0.13
-0.02,-0.81,0.22
0.04,-0.8,0.35
0.15,-0.8,0.46
0.26,-0.79,0.57
0.32,-0.76,0.68
0.32,-0.72,0.79
0.28,-0.71,0.85
0.2,-0.72,0.85
0.1,-0.72,0.84
0.02,-0.72,0.8
0.01,-0.73,0.75
0.04,-0.74,0.69
0.09,-0.75,0.65
0.15,-0.75,0.64
0.18,-0.75,0.64
0.19,-0.75,0.64
0.19,-0.75,0.66
0.17,-0.74,0.68
0.16,-0.73,0.68
0.14,-0.73,0.69
0.12,-0.74,0.69
0.11,-0.75,0.68
0.11,-0.75,0.67
0.12,-0.75,0.67
0.12,-0.76,0.67
0.12,-0.76,0.68
0.11,-0.76,0.68
0.11,-0.75,0.68
0.1,-0.75,0.68
0.1,-0.75,0.67
0.1,-0.75,0.66
0.11,-0.75,0.66
0.11,-0.74,0.66
0.11,-0.75,0.67
0.11,-0.75,0.68
0.11,-0.75,0.68
0.11,-0.75,0.68
0.12,-0.74,0.68
0.11,-0.74,0.69
0.11,-0.74,0.69
0.11,-0.75,0.69
0.11,-0.75,0.68
0.11,-0.75,0.68
0.1,-0.75,0.68
0.1,-0.76,0.67
0.1,-0.76,0.66
0.11,-0.75,0.65
0.12,-0.75,0.66
0.12,-0.75,0.67
0.11,-0.75,0.68
0.11,-0.75,0.69
0.11,-0.75,0.69
0.1,-0.75,0.69
0.1,-0.75,0.68
0.11,-0.75,0.67
0.11,-0.75,0.67
0.11,-0.75,0.66
0.11,-0.75,0.66
0.11,-0.75,0.66
0.11,-0.75,0.67
0.11,-0.75,0.68
0.11,-0.75,0.68
0.11,-0.75,0.69
0.11,-0.75,0.69
0.11,-0.75,0.68
0.11,-0.75,0.68
0.11,-0.75,0.67
0.11,-0.75,0.67
0.11,-0.75,0.67
0.11,-0.75,0.67
0.11,-0.75,0.67
0.11,-0.75,0.67
0.1,-0.75,0.67
0.1,-0.75,0.67
0.11,-0.76,0.67
0.11,-0.75,0.67
0.11,-0.75,0.68
0.11,-0.75,0.68
0.11,-0.75,0.68
0.11,-0.75,0.68
0.1,-0.75,0.67
0.1,-0.75,0.67
0.1,-0.75,0.67
0.1,-0.75,0.67
0.11,-0.75,0.67
0.11,-0.75,0.68
0.11,-0.75,0.68
0.11,-0.75,0.68
0.11,-0.75,0.69
0.11,-0.75,0.68
0.1,-0.75,0.68
0.1,-0.75,0.68
0.1,-0.75,0.67
0.11,-0.75,0.67
0.11,-0.75,0.67
0.11,-0.75,0.67
0.11,-0.75,0.67
0.11,-0.75,0.67
0.11,-0.75,0.67
0.11,-0.75,0.67
0.11,-0.75,0.67
0.11,-0.75,0.67
0.11,-0.75,0.68
0.1,-0.75,0.67
0.11,-0.75,0.67
0.11,-0.75,0.67
0.11,-0.75,0.68
0.11,-0.75,0.68
0.11,-0.75,0.68
0.11,-0.75,0.68
0.1,-0.75,0.68
0.1,-0.75,0.67
0.1,-0.75,0.67
0.11,-0.75,0.67
0.1,-0.75,0.67
0.1,-0.75,0.68
0.11,-0.75,0.68
0.11,-0.75,0.67
0.11,-0.75,0.67
0.11,-0.75,0.67
0.11,-0.75,0.67
0.11,-0.75,0.68
0.11,-0.75,0.68
0.11,-0.75,0.68
0.11,-0.76,0.68
0.11,-0.76,0.67
0.11,-0.75,0.67
0.11,-0.75,0.67
0.11,-0.76,0.67
0.11,-0.75,0.67
0.11,-0.75,0.68
0.11,-0.75,0.68
0.11,-0.75,0.68
0.11,-0.75,0.68
0.11,-0.75,0.67
0.11,-0.75,0.67
0.1,-0.75,0.67
0.11,-0.75,0.67
0.11,-0.75,0.67
0.11,-0.75,0.67
0.11,-0.75,0.68
0.11,-0.75,0.68
0.11,-0.75,0.68
0.1,-0.75,0.68
0.1,-0.75,0.68
0.1,-0.75,0.67
0.11,-0.76,0.67
0.1,-0.76,0.67
0.11,-0.75,0.67
0.11,-0.75,0.67
0.11,-0.75,0.67
0.11,-0.75,0.68
0.1,-0.75,0.68
0.11,-0.75,0.69
0.1,-0.75,0.69
0.11,-0.74,0.69
0.1,-0.74,0.7
0.1,-0.74,0.71
0.09,-0.74,0.72
0.09,-0.73,0.72
0.09,-0.73,0.73
0.08,-0.73,0.74
0.07,-0.72,0.76
0.05,-0.71,0.79
0,-0.71,0.82
-0.04,-0.69,0.84
-0.03,-0.66,0.83
-0.01,-0.64,0.82
0,-0.62,0.81
-0.01,-0.61,0.8
0.01,-0.59,0.79
0.06,-0.59,0.79
0.08,-0.58,0.8
0.03,-0.58,0.82
0,-0.57,0.83
-0.04,-0.57,0.86
-0.1,-0.58,0.89
-0.11,-0.59,0.91
-0.09,-0.59,0.9
-0.1,-0.59,0.88
-0.1,-0.59,0.83
-0.1,-0.6,0.8
-0.12,-0.61,0.77
-0.13,-0.6,0.74
-0.11,-0.59,0.72
-0.1,-0.58,0.7
-0.08,-0.59,0.68
-0.07,-0.58,0.66
-0.06,-0.56,0.64
-0.07,-0.56,0.62
-0.07,-0.55,0.59
-0.05,-0.53,0.56
-0.01,-0.51,0.53
0.04,-0.5,0.53
0.09,-0.48,0.54
0.14,-0.46,0.55
0.21,-0.46,0.55
0.28,-0.46,0.54
0.36,-0.42,0.53
0.41,-0.34,0.5
0.47,-0.29,0.46
0.5,-0.33,0.45
0.49,-0.42,0.45
0.49,-0.44,0.48
0.54,-0.42,0.53
0.6,-0.4,0.58
0.67,-0.4,0.67
0.77,-0.38,0.68
0.79,-0.36,0.69
0.86,-0.34,0.69
0.91,-0.32,0.69
0.92,-0.32,0.7
0.89,-0.33,0.72
0.85,-0.34,0.74
0.83,-0.33,0.76
0.83,-0.29,0.8
0.81,-0.26,0.86
0.79,-0.24,0.94
0.79,-0.22,1.01
0.78,-0.25,1.06
0.76,-0.29,1.09
0.74,-0.26,1.12
0.7,-0.26,1.14
0.75,-0.3,1.14
0.85,-0.29,1.1
0.85,-0.25,1.04
0.78,-0.23,1.01
0.71,-0.21,1.02
0.65,-0.18,1.04
0.64,-0.14,1.03
0.62,-0.13,0.99
0.58,-0.13,0.95
0.52,-0.11,0.92
0.43,-0.05,0.9
0.41,-0.05,0.88
0.42,-0.02,0.86
0.42,-0.01,0.88
0.4,0,0.9
0.44,0.07,0.96
0.45,0.05,1.03
0.45,0.02,1.03
0.46,0.02,0.98
0.44,-0.01,0.92
0.47,0.02,0.93
0.52,0.08,0.97
0.52,0.1,0.99
0.47,0.08,1.03
0.4,0.04,1.01
0.38,0.03,0.98
0.36,0.02,0.96
0.33,0.02,0.91
0.35,0.01,0.91
0.34,0,0.89
0.35,0.02,0.91
0.37,0.03,0.93
0.33,0.01,0.94
0.32,0.03,0.95
0.36,0.07,0.95
0.36,0.05,0.95
0.37,0.06,0.94
0.41,0.08,0.92
0.43,0.09,0.9
0.46,0.07,0.92
0.47,0.07,0.95
0.46,0.08,0.91
0.44,0.08,0.89
0.41,0.08,0.89
0.43,0.09,0.91
0.45,0.1,0.89
0.46,0.08,0.86
