Acc_x,Acc_y,Acc_z
0.55,0.04,1.05
0.56,0.02,1.04
0.58,-0.01,1.03
0.6,-0.04,1.03
0.64,-0.07,1.04
0.73,-0.09,1.04
0.82,-0.1,1.04
0.87,-0.12,1.03
0.89,-0.14,1.01
0.9,-0.17,0.99
0.92,-0.21,0.96
0.93,-0.26,0.93
0.91,-0.3,0.91
0.87,-0.33,0.9
0.84,-0.35,0.87
0.82,-0.36,0.85
0.81,-0.37,0.83
0.8,-0.38,0.8
0.78,-0.39,0.77
0.75,-0.41,0.72
0.71,-0.45,0.67
0.67,-0.49,0.62
0.62,-0.51,0.59
0.56,-0.53,0.57
0.47,-0.54,0.55
0.43,-0.55,0.53
0.4,-0.56,0.49
0.36,-0.58,0.46
0.32,-0.6,0.43
0.27,-0.62,0.38
0.23,-0.64,0.33
0.19,-0.65,0.3
0.15,-0.67,0.27
0.1,-0.69,0.25
0.07,-0.7,0.26
0.05,-0.7,0.24
0.02,-0.71,0.22
-0.01,-0.72,0.19
-0.03,-0.74,0.16
-0.05,-0.75,0.12
-0.07,-0.77,0.09
-0.08,-0.79,0.06
-0.06,-0.8,0.05
-0.04,-0.78,0.05
-0.03,-0.77,0.05
-0.04,-0.77,0.04
-0.05,-0.77,0.03
-0.06,-0.77,0.01
-0.07,-0.79,-0.01
-0.08,-0.79,-0.04
-0.05,-0.78,-0.04
-0.01,-0.77,-0.02
0.04,-0.74,0.02
0.08,-0.72,0.08
0.1,-0.7,0.16
0.11,-0.68,0.25
0.07,-0.69,0.31
0.05,-0.7,0.33
0.06,-0.7,0.33
0.1,-0.67,0.36
0.19,-0.6,0.44
0.49,-0.55,0.57
1.36,0.16,2.32
-0.09,1.12,3.99
-0.81,0.65,2.63
0.6,-0.6,1.23
0.4,-1.22,1.1
0.27,-1.26,0.69
0.29,-1.13,0.21
-0.02,-0.97,0.13
-0.13,-0.79,0.32
0.01,-0.67,0.48
0.12,-0.69,0.58
0.22,-0.78,0.67
0.22,-0.88,0.79
0.16,-0.93,0.96
0.21,-0.88,0.91
0.26,-0.85,0.82
0.29,-0.86,0.72
0.3,-0.86,0.65
0.32,-0.84,0.64
0.36,-0.82,0.67
0.39,-0.8,0.72
0.42,-0.8,0.78
0.43,-0.8,0.81
0.43,-0.8,0.81
0.42,-0.79,0.8
0.41,-0.79,0.78
0.42,-0.79,0.77
0.44,-0.78,0.76
0.46,-0.77,0.76
0.49,-0.77,0.76
0.52,-0.76,0.76
0.55,-0.76,0.77
0.58,-0.75,0.79
0.59,-0.75,0.81
0.59,-0.75,0.83
0.6,-0.76,0.83
0.63,-0.77,0.83
0.64,-0.77,0.85
0.65,-0.77,0.85
0.65,-0.77,0.85
0.66,-0.74,0.85
0.67,-0.73,0.84
0.69,-0.71,0.84
0.73,-0.7,0.83
0.74,-0.7,0.83
0.74,-0.7,0.82
0.74,-0.68,0.82
0.73,-0.67,0.83
0.71,-0.65,0.84
0.68,-0.62,0.85
0.64,-0.6,0.85
0.61,-0.57,0.83
0.59,-0.55,0.81
0.57,-0.52,0.79
0.55,-0.51,0.76
0.53,-0.5,0.74
0.52,-0.48,0.73
0.52,-0.45,0.71
0.51,-0.43,0.7
0.51,-0.41,0.7
0.5,-0.39,0.69
0.48,-0.37,0.68
0.45,-0.36,0.64
0.42,-0.35,0.6
0.39,-0.32,0.56
0.38,-0.3,0.55
0.38,-0.3,0.56
0.39,-0.3,0.59
0.39,-0.29,0.62
0.38,-0.29,0.62
0.37,-0.3,0.6
0.35,-0.3,0.57
0.33,-0.3,0.53
0.31,-0.31,0.5
0.31,-0.32,0.5
0.31,-0.33,0.51
0.33,-0.33,0.55
0.34,-0.33,0.59
0.35,-0.34,0.62
0.35,-0.34,0.63
0.35,-0.34,0.62
0.35,-0.34,0.61
0.35,-0.34,0.6
0.36,-0.34,0.59
0.37,-0.34,0.6
0.38,-0.34,0.61
0.39,-0.34,0.63
0.4,-0.34,0.64
0.41,-0.35,0.65
0.42,-0.36,0.66
0.42,-0.38,0.65
0.42,-0.4,0.64
0.43,-0.44,0.64
0.44,-0.46,0.66
0.46,-0.48,0.67
0.47,-0.5,0.69
0.48,-0.51,0.71
0.48,-0.52,0.73
0.47,-0.53,0.75
0.46,-0.53,0.75
0.45,-0.53,0.76
0.44,-0.54,0.76
0.44,-0.54,0.77
0.44,-0.54,0.78
0.44,-0.53,0.8
0.44,-0.53,0.81
0.44,-0.53,0.82
0.44,-0.52,0.84
0.43,-0.51,0.84
0.42,-0.51,0.85
0.4,-0.5,0.84
0.4,-0.5,0.84
0.4,-0.5,0.83
0.41,-0.49,0.83
0.42,-0.49,0.84
0.44,-0.49,0.84
0.46,-0.49,0.83
0.47,-0.49,0.81
0.5,-0.47,0.82
0.5,-0.46,0.84
0.5,-0.45,0.85
0.51,-0.46,0.84
0.52,-0.47,0.84
0.54,-0.49,0.85
0.57,-0.5,0.86
0.59,-0.5,0.87
0.61,-0.5,0.86
0.63,-0.51,0.83
0.64,-0.52,0.79
0.65,-0.53,0.76
0.65,-0.54,0.72
0.65,-0.55,0.69
0.65,-0.55,0.65
0.66,-0.56,0.63
0.65,-0.56,0.6
0.65,-0.57,0.58
0.64,-0.59,0.57
0.62,-0.6,0.57
0.59,-0.61,0.57
0.57,-0.62,0.56
0.56,-0.63,0.56
0.56,-0.64,0.56
0.57,-0.64,0.57
0.57,-0.63,0.59
0.59,-0.62,0.6
0.59,-0.61,0.6
0.59,-0.6,0.61
0.59,-0.58,0.61
0.58,-0.57,0.61
0.57,-0.55,0.61
0.55,-0.53,0.6
0.54,-0.52,0.59
0.53,-0.51,0.58
0.51,-0.52,0.58
0.5,-0.52,0.58
0.5,-0.52,0.58
0.49,-0.52,0.59
0.49,-0.52,0.6
0.48,-0.53,0.61
0.47,-0.53,0.61
0.47,-0.53,0.61
0.47,-0.53,0.62
0.47,-0.53,0.62
0.49,-0.54,0.62
0.5,-0.55,0.63
0.51,-0.55,0.64
0.52,-0.55,0.65
0.54,-0.55,0.67
0.55,-0.54,0.68
0.55,-0.54,0.7
0.54,-0.54,0.69
0.53,-0.55,0.68
0.53,-0.55,0.66
0.53,-0.56,0.65
0.52,-0.55,0.65
0.52,-0.55,0.67
0.52,-0.56,0.69
0.53,-0.57,0.71
0.53,-0.58,0.72
0.53,-0.6,0.72
0.52,-0.61,0.7
0.51,-0.62,0.69
0.51,-0.63,0.67
0.51,-0.64,0.66
0.51,-0.64,0.66
0.51,-0.63,0.66
0.51,-0.63,0.67
0.52,-0.63,0.67
0.52,-0.62,0.67
0.52,-0.62,0.67
0.52,-0.61,0.66
0.52,-0.6,0.65
0.51,-0.6,0.64
0.5,-0.59,0.63
0.49,-0.59,0.63
0.5,-0.58,0.63
0.52,-0.56,0.64
0.52,-0.56,0.64
0.52,-0.56,0.63
0.52,-0.56,0.63
0.51,-0.56,0.63
0.51,-0.56,0.62
0.5,-0.56,0.62
0.49,-0.57,0.62
0.49,-0.58,0.62
0.5,-0.59,0.62
0.5,-0.6,0.61
0.5,-0.61,0.61
0.51,-0.62,0.6
0.51,-0.64,0.59
0.51,-0.65,0.59
0.51,-0.66,0.59
0.51,-0.68,0.59
0.52,-0.7,0.59
0.53,-0.72,0.59
0.54,-0.73,0.62
0.56,-0.69,0.67
0.59,-0.64,0.72
0.62,-0.58,0.74
0.63,-0.52,0.72
0.62,-0.48,0.67
0.58,-0.45,0.6
0.54,-0.41,0.52
0.46,-0.41,0.54
0.43,-0.41,0.58
0.41,-0.41,0.64
0.41,-0.42,0.71
0.41,-0.42,0.78
0.43,-0.43,0.84
0.46,-0.44,0.87
0.49,-0.44,0.88
0.52,-0.44,0.87
0.54,-0.45,0.84
0.56,-0.46,0.81
0.58,-0.48,0.79
0.6,-0.48,0.78
0.62,-0.49,0.78
0.64,-0.5,0.78
0.65,-0.51,0.78
0.65,-0.51,0.78
0.64,-0.5,0.79
0.62,-0.5,0.8
0.58,-0.49,0.81
0.56,-0.49,0.82
0.52,-0.46,0.77
0.52,-0.46,0.77
0.5,-0.42,0.8
0.53,-0.41,0.87
0.6,-0.42,0.87
0.57,-0.44,0.9
0.42,-0.44,0.99
0.38,-0.4,1.04
0.44,-0.36,1.02
0.53,-0.35,0.96
0.6,-0.37,0.91
0.59,-0.37,0.89
0.6,-0.36,0.88
0.65,-0.36,0.85
0.69,-0.37,0.82
0.72,-0.38,0.78
0.73,-0.38,0.73
0.77,-0.38,0.7
0.78,-0.38,0.66
0.78,-0.39,0.61
0.79,-0.39,0.55
0.84,-0.41,0.48
0.84,-0.39,0.44
0.83,-0.39,0.4
0.8,-0.38,0.35
0.76,-0.37,0.34
0.86,-0.42,0.42
0.96,-0.42,0.39
0.89,-0.44,0.31
0.81,-0.44,0.35
0.84,-0.46,0.27
0.82,-0.44,0.24
0.81,-0.45,0.18
0.79,-0.51,0.09
0.78,-0.51,0.09
0.79,-0.51,0.11
0.75,-0.52,0.1
0.71,-0.53,0.11
0.72,-0.55,0.06
0.73,-0.57,0.02
0.73,-0.6,-0.01
0.71,-0.63,-0.03
0.7,-0.65,-0.08
0.76,-0.66,-0.11
0.77,-0.68,-0.09
0.72,-0.7,-0.08
0.71,-0.7,-0.08
0.73,-0.7,-0.11
0.72,-0.73,-0.14
0.68,-0.77,-0.16
0.66,-0.78,-0.17
0.72,-0.82,-0.21
0.72,-0.84,-0.24
0.65,-0.85,-0.24
0.68,-0.87,-0.28
0.72,-0.9,-0.31
0.65,-0.93,-0.34
0.69,-0.95,-0.41
0.63,-0.96,-0.43
0.6,-0.95,-0.45
0.61,-0.95,-0.48
0.6,-0.95,-0.51
0.58,-0.93,-0.54
0.56,-0.92,-0.57
0.56,-0.9,-0.58
0.58,-0.88,-0.57
0.58,-0.85,-0.54
0.57,-0.83,-0.52
0.58,-0.8,-0.5
0.59,-0.77,-0.46
0.59,-0.75,-0.41
0.6,-0.71,-0.35
0.63,-0.68,-0.28
0.67,-0.1,1.47
2.34,1.46,3.59
1.56,0.9,2.34
-0.77,-0.61,0.94
-0.3,-0.68,0.98
0.25,-0.69,0.66
0.32,-0.56,0.48
0.3,-0.66,0.2
0.49,-0.76,-0.16
1.07,-0.8,-0.14
1.06,-0.91,-0.2
0.87,-0.98,-0.26
0.74,-0.96,-0.21
0.72,-0.91,-0.12
0.72,-0.85,-0.02
0.72,-0.81,0.05
0.72,-0.78,0.09
0.71,-0.76,0.1
0.73,-0.75,0.08
0.75,-0.73,0.05
0.77,-0.73,0
0.78,-0.74,-0.02
0.78,-0.74,-0.03
0.78,-0.73,-0.03
0.79,-0.72,-0.01
0.78,-0.7,0.01
0.76,-0.67,0.03
0.75,-0.65,0.03
0.75,-0.63,0.04
0.76,-0.6,0.04
0.77,-0.59,0.03
0.78,-0.58,0.02
0.78,-0.59,0.01
0.79,-0.6,0
0.8,-0.61,-0.02
0.81,-0.64,-0.01
0.82,-0.64,0
0.83,-0.63,0.02
0.84,-0.62,0.05
0.86,-0.61,0.06
0.87,-0.6,0.08
0.88,-0.58,0.08
0.87,-0.57,0.09
0.86,-0.57,0.09
0.85,-0.57,0.1
0.85,-0.57,0.1
0.85,-0.58,0.1
0.85,-0.59,0.09
0.86,-0.59,0.08
0.86,-0.6,0.08
0.85,-0.6,0.07
0.84,-0.6,0.07
0.83,-0.59,0.06
0.82,-0.58,0.06
0.82,-0.58,0.06
0.81,-0.57,0.06
0.8,-0.56,0.06
0.8,-0.57,0.06
0.8,-0.57,0.06
0.81,-0.58,0.07
0.82,-0.59,0.07
0.82,-0.6,0.07
0.82,-0.61,0.07
0.82,-0.62,0.07
0.82,-0.63,0.07
0.82,-0.63,0.06
0.83,-0.62,0.05
0.83,-0.62,0.05
0.84,-0.61,0.04
0.84,-0.61,0.03
0.85,-0.6,0.03
0.86,-0.6,0.03
0.86,-0.6,0.04
0.86,-0.6,0.04
0.86,-0.6,0.05
0.85,-0.6,0.06
0.84,-0.6,0.07
0.84,-0.61,0.07
0.83,-0.61,0.07
0.83,-0.62,0.07
0.83,-0.63,0.07
0.84,-0.63,0.07
0.84,-0.63,0.08
0.84,-0.62,0.08
0.85,-0.62,0.09
0.85,-0.62,0.09
0.85,-0.62,0.08
0.85,-0.63,0.07
0.85,-0.64,0.05
0.84,-0.64,0.04
0.83,-0.64,0.04
0.83,-0.64,0.04
0.83,-0.64,0.03
0.82,-0.64,0.03
0.82,-0.63,0.03
0.81,-0.62,0.03
0.81,-0.62,0.03
0.81,-0.62,0.04
0.81,-0.61,0.04
0.81,-0.6,0.05
0.81,-0.59,0.06
0.81,-0.58,0.06
0.82,-0.57,0.07
0.82,-0.57,0.07
0.82,-0.57,0.07
0.82,-0.57,0.07
0.83,-0.57,0.07
0.83,-0.57,0.06
0.84,-0.57,0.06
0.84,-0.56,0.06
0.84,-0.56,0.06
0.84,-0.55,0.07
0.85,-0.56,0.08
0.86,-0.55,0.09
0.86,-0.56,0.09
0.86,-0.56,0.09
0.86,-0.56,0.09
0.85,-0.56,0.1
0.85,-0.57,0.1
0.85,-0.57,0.1
0.84,-0.58,0.1
0.84,-0.58,0.1
0.85,-0.59,0.09
0.85,-0.59,0.08
0.84,-0.59,0.08
0.84,-0.6,0.07
0.84,-0.6,0.07
0.83,-0.6,0.07
0.83,-0.6,0.07
0.82,-0.61,0.07
0.82,-0.61,0.07
0.82,-0.6,0.07
0.81,-0.6,0.07
0.81,-0.6,0.07
0.81,-0.6,0.07
0.8,-0.6,0.08
0.8,-0.61,0.08
0.81,-0.6,0.08
0.81,-0.61,0.08
0.81,-0.61,0.08
0.81,-0.61,0.08
0.81,-0.6,0.08
0.81,-0.6,0.09
0.81,-0.6,0.09
0.81,-0.59,0.09
0.81,-0.59,0.09
0.81,-0.59,0.09
0.81,-0.59,0.1
0.82,-0.59,0.1
0.82,-0.59,0.1
0.83,-0.59,0.12
0.84,-0.59,0.14
0.85,-0.58,0.17
0.85,-0.58,0.21
0.86,-0.59,0.24
0.87,-0.6,0.24
0.88,-0.62,0.24
0.91,-0.62,0.23
0.94,-0.62,0.21
0.95,-0.61,0.2
0.98,-0.58,0.21
1.02,-0.56,0.22
1.04,-0.55,0.19
1.07,-0.55,0.17
1.07,-0.55,0.15
1.08,-0.57,0.15
1.07,-0.58,0.18
1.02,-0.57,0.22
0.99,-0.59,0.25
0.98,-0.62,0.27
0.95,-0.66,0.3
0.87,-0.66,0.36
0.75,-0.59,0.38
0.7,-0.63,0.35
0.83,-0.75,0.3
0.73,-0.72,0.38
0.6,-0.64,0.41
0.58,-0.71,0.32
0.58,-0.78,0.32
0.57,-0.72,0.37
0.46,-0.72,0.36
0.43,-0.82,0.3
0.45,-0.78,0.31
0.44,-0.73,0.32
0.37,-0.82,0.3
0.37,-0.83,0.28
0.34,-0.8,0.27
0.29,-0.83,0.23
0.28,-0.84,0.2
0.25,-0.83,0.19
0.22,-0.82,0.18
0.21,-0.8,0.16
0.19,-0.81,0.18
0.21,-0.81,0.18
0.2,-0.81,0.17
0.18,-0.81,0.14
0.09,-0.84,0.12
0.04,-0.83,0.14
0.16,-0.81,0.14
0.21,-0.8,0.16
0.22,-0.79,0.19
0.27,-0.77,0.23
0.32,-0.73,0.26
0.38,-0.76,0.24
0.38,-0.77,0.24
0.36,-0.76,0.22
0.36,-0.75,0.19
0.36,-0.75,0.15
0.37,-0.75,0.12
0.37,-0.72,0.13
0.36,-0.69,0.19
0.31,-0.65,0.25
0.27,-0.62,0.29
0.23,-0.58,0.31
0.22,-0.55,0.35
0.22,-0.51,0.41
1.39,-0.14,2.21
2.47,0.46,2.4
0.04,-0.74,0.71
0.4,-0.97,0.71
0.16,-0.89,0.66
-0.1,-0.73,0.35
0.02,-0.52,0.3
0.18,-0.49,0.55
0.4,-0.53,0.67
0.62,-0.59,0.65
0.65,-0.66,0.65
0.59,-0.7,0.68
0.53,-0.74,0.68
0.5,-0.74,0.67
0.51,-0.72,0.66
0.5,-0.68,0.65
0.46,-0.65,0.63
0.42,-0.64,0.63
0.39,-0.62,0.63
0.37,-0.62,0.65
0.38,-0.62,0.68
0.4,-0.62,0.7
0.42,-0.63,0.71
0.44,-0.64,0.73
0.47,-0.64,0.73
0.5,-0.65,0.74
0.51,-0.66,0.73
0.52,-0.65,0.73
0.5,-0.64,0.73
0.49,-0.63,0.72
0.48,-0.63,0.72
0.46,-0.62,0.71
0.45,-0.62,0.71
0.44,-0.61,0.71
0.43,-0.61,0.7
0.43,-0.61,0.7
0.43,-0.59,0.69
0.42,-0.59,0.68
0.42,-0.59,0.66
0.44,-0.58,0.65
0.43,-0.58,0.65
0.42,-0.59,0.65
0.41,-0.59,0.64
0.41,-0.6,0.64
0.41,-0.6,0.64
0.42,-0.6,0.64
0.41,-0.61,0.64
0.41,-0.62,0.64
0.42,-0.62,0.65
0.44,-0.63,0.66
0.44,-0.63,0.67
0.44,-0.64,0.67
0.44,-0.66,0.66
0.45,-0.66,0.66
0.47,-0.66,0.66
0.47,-0.66,0.66
0.46,-0.66,0.66
0.46,-0.66,0.65
0.46,-0.65,0.65
0.47,-0.64,0.65
0.48,-0.64,0.65
0.48,-0.64,0.65
0.48,-0.63,0.65
0.48,-0.62,0.65
0.47,-0.61,0.65
0.46,-0.61,0.66
0.45,-0.6,0.66
0.45,-0.59,0.67
0.46,-0.58,0.69
0.47,-0.58,0.69
0.47,-0.58,0.69
0.47,-0.57,0.69
0.47,-0.57,0.68
0.46,-0.57,0.68
0.46,-0.57,0.67
0.47,-0.58,0.67
0.48,-0.58,0.66
0.49,-0.58,0.66
0.5,-0.59,0.66
0.5,-0.6,0.66
0.51,-0.6,0.67
0.52,-0.6,0.67
0.52,-0.6,0.67
0.51,-0.61,0.67
0.51,-0.61,0.66
0.51,-0.61,0.66
0.51,-0.61,0.66
0.5,-0.61,0.66
0.5,-0.6,0.66
0.5,-0.6,0.67
0.49,-0.59,0.68
0.49,-0.59,0.68
0.49,-0.6,0.68
0.49,-0.6,0.68
0.49,-0.6,0.68
0.49,-0.6,0.68
0.48,-0.6,0.68
0.48,-0.6,0.68
0.48,-0.6,0.69
0.48,-0.61,0.68
0.47,-0.61,0.68
0.47,-0.62,0.68
0.47,-0.63,0.68
0.47,-0.63,0.68
0.47,-0.64,0.67
0.47,-0.64,0.67
0.47,-0.64,0.68
0.47,-0.64,0.68
0.48,-0.64,0.69
0.49,-0.64,0.7
0.5,-0.63,0.7
0.51,-0.61,0.72
0.51,-0.58,0.72
0.5,-0.56,0.72
0.5,-0.54,0.71
0.48,-0.53,0.68
0.47,-0.52,0.67
0.45,-0.51,0.65
0.44,-0.52,0.63
0.43,-0.53,0.62
0.42,-0.55,0.62
0.43,-0.56,0.62
0.43,-0.58,0.62
0.44,-0.6,0.62
0.44,-0.61,0.63
0.45,-0.61,0.64
0.46,-0.62,0.64
0.46,-0.63,0.65
0.46,-0.64,0.65
0.47,-0.64,0.65
0.48,-0.64,0.66
0.49,-0.64,0.68
0.5,-0.64,0.69
0.5,-0.64,0.69
0.51,-0.64,0.69
0.51,-0.64,0.68
0.5,-0.63,0.68
0.5,-0.63,0.67
0.49,-0.62,0.68
0.49,-0.61,0.68
0.49,-0.61,0.67
0.49,-0.61,0.67
0.48,-0.61,0.66
0.47,-0.6,0.66
0.46,-0.6,0.65
0.46,-0.59,0.65
0.46,-0.59,0.65
0.46,-0.6,0.65
0.46,-0.6,0.65
0.47,-0.6,0.66
0.47,-0.6,0.66
0.47,-0.6,0.65
0.46,-0.6,0.65
0.46,-0.61,0.65
0.47,-0.61,0.65
0.47,-0.61,0.66
0.48,-0.61,0.66
0.48,-0.61,0.67
0.49,-0.61,0.67
0.49,-0.61,0.67
0.49,-0.61,0.68
0.49,-0.61,0.67
0.49,-0.61,0.67
0.49,-0.61,0.67
0.48,-0.61,0.67
0.48,-0.61,0.68
0.49,-0.6,0.68
0.49,-0.6,0.68
0.49,-0.6,0.68
0.49,-0.6,0.68
0.48,-0.6,0.68
0.48,-0.6,0.67
0.47,-0.6,0.67
0.47,-0.6,0.67
0.47,-0.6,0.67
0.47,-0.6,0.67
0.47,-0.6,0.67
0.48,-0.59,0.67
0.48,-0.59,0.68
0.48,-0.59,0.67
0.48,-0.59,0.68
0.48,-0.59,0.68
0.48,-0.59,0.68
0.47,-0.59,0.67
0.47,-0.59,0.66
0.46,-0.59,0.66
0.47,-0.59,0.66
0.47,-0.59,0.67
0.48,-0.58,0.67
0.48,-0.59,0.68
0.48,-0.59,0.68
0.48,-0.59,0.67
0.48,-0.59,0.67
0.48,-0.59,0.66
0.48,-0.59,0.66
0.48,-0.59,0.66
0.48,-0.59,0.66
0.48,-0.59,0.66
0.47,-0.59,0.67
0.47,-0.6,0.67
0.48,-0.6,0.67
0.48,-0.6,0.67
0.48,-0.6,0.67
0.48,-0.6,0.67
0.48,-0.6,0.67
0.48,-0.61,0.67
0.47,-0.61,0.66
0.47,-0.61,0.66
0.47,-0.61,0.66
0.48,-0.62,0.66
0.48,-0.61,0.67
0.48,-0.61,0.67
0.49,-0.61,0.67
0.48,-0.61,0.67
0.48,-0.61,0.66
0.49,-0.61,0.65
0.49,-0.62,0.64
0.49,-0.62,0.64
0.49,-0.63,0.64
0.5,-0.62,0.65
0.5,-0.62,0.66
0.5,-0.62,0.67
0.5,-0.62,0.68
0.49,-0.62,0.68
0.49,-0.62,0.68
0.48,-0.62,0.68
0.48,-0.62,0.68
0.48,-0.62,0.68
0.47,-0.62,0.68
0.47,-0.62,0.68
0.47,-0.62,0.69
0.49,-0.63,0.69
0.49,-0.62,0.69
0.48,-0.63,0.68
0.47,-0.64,0.68
0.45,-0.64,0.7
0.43,-0.63,0.72
0.41,-0.62,0.72
0.41,-0.63,0.7
0.41,-0.64,0.7
0.41,-0.64,0.7
0.42,-0.64,0.71
0.4,-0.63,0.69
0.33,-0.6,0.73
0.25,-0.59,0.82
0.23,-0.61,0.83
0.22,-0.64,0.82
0.23,-0.66,0.82
0.28,-0.67,0.82
0.32,-0.68,0.81
0.35,-0.67,0.8
0.39,-0.64,0.8
0.4,-0.62,0.79
0.41,-0.59,0.8
0.43,-0.56,0.8
0.44,-0.56,0.78
0.45,-0.57,0.74
0.46,-0.57,0.67
0.49,-0.57,0.61
0.54,-0.58,0.58
0.6,-0.59,0.56
0.65,-0.6,0.55
0.68,-0.65,0.51
0.7,-0.66,0.47
0.73,-0.67,0.45
0.73,-0.69,0.41
0.67,-0.71,0.4
0.67,-0.71,0.35
0.66,-0.71,0.27
0.6,-0.73,0.2
0.69,-0.73,0.18
0.67,-0.69,0.23
0.63,-0.68,0.12
0.65,-0.69,0.1
0.58,-0.68,0.19
0.56,-0.69,0.16
0.58,-0.71,0.09
0.55,-0.73,0.03
0.51,-0.7,0
0.47,-0.69,-0.15
0.47,-0.7,-0.28
0.49,-0.69,-0.29
0.49,-0.72,-0.27
0.48,-0.74,-0.29
0.44,-0.78,-0.32
0.49,-0.8,-0.35
0.56,-0.82,-0.45
0.54,-0.82,-0.48
0.59,-0.82,-0.55
0.66,-0.8,-0.57
0.66,-0.79,-0.6
0.66,-0.79,-0.65
0.64,-0.77,-0.67
0.63,-0.75,-0.69
0.6,-0.73,-0.69
0.62,-0.72,-0.69
0.65,-0.7,-0.68
0.64,-0.69,-0.67
0.64,-0.68,-0.67
0.67,-0.67,-0.64
0.74,-0.63,-0.56
0.78,-0.58,-0.51
1.31,-0.44,-0.34
2.91,0.52,0.98
2.04,0.78,2.38
-0.6,-0.17,1.87
-0.37,-0.69,0.64
0.47,-0.75,0.21
0.36,-0.54,0.21
0.56,-0.5,0.13
0.74,-0.63,0.05
0.82,-0.67,-0.05
1.01,-0.69,-0.16
1.06,-0.73,-0.23
0.98,-0.73,-0.2
0.77,-0.71,-0.14
0.75,-0.67,-0.09
0.77,-0.65,-0.04
0.79,-0.64,-0.01
0.8,-0.62,0.02
0.82,-0.61,0.02
0.85,-0.61,0
0.87,-0.61,-0.01
0.87,-0.62,-0.02
0.87,-0.62,-0.02
0.86,-0.62,-0.02
0.85,-0.62,-0.01
0.83,-0.62,-0.02
0.81,-0.62,-0.02
0.8,-0.62,-0.03
0.8,-0.63,-0.04
0.8,-0.63,-0.04
0.81,-0.64,-0.04
0.82,-0.64,-0.04
0.82,-0.64,-0.03
0.82,-0.64,-0.02
0.81,-0.63,-0.01
0.8,-0.63,-0.01
0.79,-0.62,-0.01
0.79,-0.62,-0.01
0.79,-0.62,-0.03
0.81,-0.63,-0.05
0.81,-0.63,-0.05
0.82,-0.62,-0.05
0.82,-0.61,-0.04
0.82,-0.61,-0.03
0.82,-0.6,-0.02
0.82,-0.6,-0.01
0.82,-0.6,0
0.82,-0.6,0
0.81,-0.61,0
0.81,-0.61,0
0.82,-0.62,-0.01
0.82,-0.62,-0.01
0.82,-0.63,0
0.81,-0.63,0
0.8,-0.63,0
0.79,-0.63,0
0.79,-0.64,0
0.79,-0.64,-0.01
0.79,-0.64,-0.02
0.79,-0.64,-0.03
0.79,-0.64,-0.03
0.79,-0.63,-0.04
0.79,-0.62,-0.04
0.79,-0.61,-0.04
0.79,-0.61,-0.04
0.8,-0.61,-0.03
0.79,-0.61,-0.03
0.79,-0.62,-0.03
0.8,-0.62,-0.03
0.81,-0.63,-0.03
0.81,-0.63,-0.03
0.81,-0.62,-0.02
0.83,-0.62,-0.02
0.84,-0.61,-0.01
0.84,-0.6,0
0.84,-0.59,0
0.85,-0.59,0
0.85,-0.59,-0.01
0.85,-0.59,-0.01
0.85,-0.6,-0.02
0.85,-0.61,-0.03
0.85,-0.61,-0.04
0.84,-0.61,-0.04
0.84,-0.61,-0.05
0.84,-0.61,-0.05
0.84,-0.61,-0.04
0.83,-0.61,-0.04
0.83,-0.61,-0.04
0.83,-0.61,-0.04
0.83,-0.61,-0.05
0.83,-0.6,-0.05
0.82,-0.6,-0.05
0.83,-0.6,-0.05
0.83,-0.59,-0.04
0.82,-0.59,-0.04
0.82,-0.6,-0.04
0.82,-0.6,-0.04
0.81,-0.6,-0.04
0.81,-0.6,-0.04
0.81,-0.6,-0.04
0.81,-0.6,-0.04
0.81,-0.6,-0.04
0.81,-0.6,-0.04
0.81,-0.6,-0.04
0.81,-0.61,-0.04
0.81,-0.61,-0.04
0.81,-0.61,-0.04
0.82,-0.61,-0.05
0.82,-0.61,-0.05
0.82,-0.61,-0.04
0.82,-0.62,-0.04
0.82,-0.62,-0.04
0.82,-0.62,-0.04
0.82,-0.62,-0.04
0.81,-0.62,-0.04
0.81,-0.63,-0.03
0.8,-0.63,-0.04
0.8,-0.64,-0.04
0.8,-0.65,-0.04
0.8,-0.66,-0.05
0.79,-0.66,-0.05
0.78,-0.66,-0.05
0.77,-0.66,-0.05
0.77,-0.66,-0.04
0.76,-0.66,-0.04
0.77,-0.66,-0.04
0.77,-0.66,-0.04
0.77,-0.66,-0.05
0.78,-0.66,-0.06
0.78,-0.66,-0.06
0.78,-0.65,-0.06
0.78,-0.65,-0.07
0.78,-0.65,-0.07
0.78,-0.64,-0.07
0.79,-0.64,-0.07
0.79,-0.63,-0.06
0.79,-0.63,-0.06
0.79,-0.63,-0.05
0.79,-0.63,-0.04
0.79,-0.63,-0.04
0.8,-0.63,-0.04
0.8,-0.63,-0.04
0.8,-0.63,-0.05
0.81,-0.62,-0.06
0.81,-0.62,-0.06
0.82,-0.62,-0.06
0.83,-0.61,-0.06
0.84,-0.61,-0.06
0.84,-0.62,-0.07
0.85,-0.62,-0.07
0.85,-0.62,-0.06
0.86,-0.62,-0.06
0.86,-0.62,-0.06
0.86,-0.62,-0.06
0.86,-0.62,-0.06
0.85,-0.62,-0.06
0.85,-0.62,-0.05
0.85,-0.62,-0.04
0.84,-0.62,-0.03
0.84,-0.62,-0.03
0.83,-0.62,-0.03
0.83,-0.62,-0.03
0.82,-0.61,-0.03
0.81,-0.61,-0.03
0.8,-0.61,-0.03
0.8,-0.61,-0.03
0.79,-0.6,-0.03
0.79,-0.6,-0.03
0.78,-0.61,-0.03
0.78,-0.61,-0.03
0.77,-0.61,-0.04
0.76,-0.61,-0.04
0.76,-0.62,-0.04
0.77,-0.62,-0.04
0.78,-0.62,-0.05
0.78,-0.62,-0.05
0.79,-0.61,-0.05
0.79,-0.61,-0.05
0.8,-0.6,-0.06
0.8,-0.6,-0.07
0.8,-0.59,-0.07
0.8,-0.59,-0.07
0.81,-0.59,-0.06
0.81,-0.59,-0.05
0.81,-0.59,-0.04
0.82,-0.59,-0.04
0.82,-0.59,-0.04
0.82,-0.59,-0.04
0.83,-0.59,-0.05
0.84,-0.59,-0.05
0.84,-0.59,-0.05
0.85,-0.6,-0.05
0.86,-0.6,-0.05
0.86,-0.61,-0.06
0.87,-0.62,-0.08
0.88,-0.62,-0.09
0.89,-0.62,-0.08
0.89,-0.62,-0.08
0.89,-0.61,-0.08
0.89,-0.61,-0.08
0.88,-0.62,-0.07
0.87,-0.61,-0.06
0.86,-0.61,-0.05
0.85,-0.61,-0.05
0.84,-0.61,-0.05
0.83,-0.6,-0.05
0.81,-0.6,-0.04
0.8,-0.6,-0.04
0.79,-0.6,-0.03
0.78,-0.61,-0.03
0.77,-0.61,-0.03
0.76,-0.61,-0.02
0.75,-0.62,-0.03
0.75,-0.63,-0.03
0.76,-0.63,-0.03
0.76,-0.63,-0.03
0.77,-0.63,-0.04
0.77,-0.63,-0.04
0.78,-0.63,-0.05
0.78,-0.62,-0.05
0.79,-0.62,-0.07
0.8,-0.6,-0.08
0.81,-0.6,-0.08
0.81,-0.6,-0.08
0.81,-0.6,-0.08
0.81,-0.59,-0.08
0.82,-0.6,-0.08
0.82,-0.6,-0.07
0.83,-0.6,-0.06
0.84,-0.6,-0.05
0.85,-0.6,-0.03
0.86,-0.6,-0.03
0.87,-0.6,-0.03
0.87,-0.6,-0.02
0.87,-0.6,-0.02
0.87,-0.61,-0.03
0.88,-0.61,-0.03
0.89,-0.61,-0.04
0.9,-0.61,-0.04
0.91,-0.61,-0.05
0.94,-0.61,-0.06
0.97,-0.6,-0.04
0.99,-0.58,-0.02
1.05,-0.55,0.04
1.08,-0.56,0.06
1.03,-0.57,0.01
1.06,-0.58,-0.05
1.1,-0.61,-0.06
1.06,-0.61,-0.03
1,-0.61,0.02
0.94,-0.61,0.07
0.9,-0.62,0.1
0.89,-0.62,0.11
0.89,-0.64,0.12
0.87,-0.68,0.1
0.86,-0.67,0.11
0.78,-0.61,0.13
0.61,-0.71,0.06
0.55,-0.78,0.03
0.62,-0.69,0.18
0.69,-0.8,0.24
0.54,-0.81,0.2
0.44,-0.67,0.21
0.46,-0.78,0.17
0.44,-0.81,0.17
0.47,-0.72,0.23
0.48,-0.76,0.2
0.43,-0.84,0.12
0.4,-0.82,0.14
0.48,-0.79,0.16
0.47,-0.79,0.12
0.37,-0.81,0.11
0.33,-0.82,0.1
0.26,-0.81,0.08
0.21,-0.81,0.07
0.25,-0.78,0.06
0.3,-0.78,0.04
0.34,-0.79,0
0.32,-0.78,-0.05
0.37,-0.75,-0.05
0.53,-0.72,-0.02
0.59,-0.7,0.04
0.57,-0.65,0.1
0.51,-0.64,0.12
0.37,-0.64,0.17
0.33,-0.6,0.26
0.41,-0.56,0.37
0.46,-0.54,0.45
0.8,-0.38,0.63
1.85,0,2.37
1.37,0.09,2.84
0.33,-0.46,1.14
0.43,-0.96,0.66
0.16,-0.96,0.65
0.1,-0.76,0.39
0.25,-0.65,0.17
0.4,-0.65,0.2
0.59,-0.64,0.41
0.61,-0.65,0.62
0.59,-0.64,0.76
0.67,-0.69,0.74
0.67,-0.71,0.69
0.63,-0.67,0.63
0.58,-0.62,0.57
0.55,-0.6,0.54
0.51,-0.58,0.53
0.49,-0.58,0.55
0.48,-0.58,0.58
0.48,-0.58,0.62
0.48,-0.58,0.64
0.47,-0.59,0.65
0.46,-0.61,0.65
0.48,-0.62,0.63
0.49,-0.62,0.61
0.49,-0.62,0.6
0.48,-0.62,0.58
0.48,-0.62,0.57
0.48,-0.62,0.57
0.48,-0.62,0.58
0.48,-0.62,0.59
0.49,-0.61,0.6
0.49,-0.61,0.61
0.49,-0.62,0.63
0.49,-0.62,0.63
0.51,-0.62,0.64
0.52,-0.62,0.62
0.53,-0.62,0.62
0.53,-0.62,0.61
0.53,-0.61,0.61
0.55,-0.61,0.62
0.56,-0.62,0.62
0.55,-0.62,0.62
0.55,-0.63,0.62
0.55,-0.63,0.62
0.55,-0.63,0.62
0.55,-0.63,0.63
0.55,-0.62,0.64
0.55,-0.62,0.65
0.54,-0.62,0.66
0.55,-0.62,0.66
0.56,-0.62,0.66
0.55,-0.62,0.66
0.54,-0.63,0.65
0.53,-0.62,0.65
0.53,-0.62,0.64
0.53,-0.62,0.63
0.52,-0.61,0.63
0.53,-0.61,0.63
0.53,-0.61,0.63
0.52,-0.61,0.63
0.51,-0.61,0.63
0.49,-0.61,0.62
0.46,-0.61,0.61
0.46,-0.61,0.6
0.47,-0.61,0.59
0.47,-0.61,0.58
0.47,-0.61,0.58
0.47,-0.62,0.58
0.47,-0.62,0.59
0.49,-0.63,0.59
0.5,-0.63,0.6
0.51,-0.63,0.6
0.52,-0.63,0.6
0.52,-0.63,0.6
0.52,-0.63,0.59
0.53,-0.62,0.59
0.53,-0.62,0.59
0.53,-0.62,0.6
0.54,-0.62,0.61
0.54,-0.62,0.62
0.53,-0.62,0.62
0.53,-0.62,0.62
0.53,-0.62,0.62
0.53,-0.63,0.62
0.54,-0.63,0.62
0.54,-0.63,0.62
0.54,-0.63,0.63
0.55,-0.62,0.63
0.57,-0.62,0.64
0.58,-0.62,0.65
0.58,-0.62,0.64
0.58,-0.62,0.64
0.58,-0.62,0.64
0.58,-0.62,0.63
0.57,-0.62,0.64
0.57,-0.62,0.64
0.56,-0.62,0.65
0.56,-0.61,0.65
0.55,-0.61,0.65
0.54,-0.61,0.65
0.54,-0.6,0.64
0.52,-0.6,0.63
0.51,-0.6,0.62
0.5,-0.6,0.61
0.49,-0.6,0.6
0.48,-0.61,0.59
0.47,-0.61,0.59
0.47,-0.6,0.58
0.47,-0.6,0.58
0.47,-0.6,0.58
0.46,-0.61,0.57
0.46,-0.63,0.57
0.46,-0.64,0.57
0.46,-0.65,0.59
0.48,-0.66,0.6
0.49,-0.65,0.61
0.5,-0.64,0.6
0.51,-0.64,0.6
0.51,-0.62,0.59
0.52,-0.62,0.59
0.52,-0.61,0.6
0.52,-0.61,0.6
0.53,-0.62,0.61
0.54,-0.61,0.62
0.53,-0.61,0.63
0.53,-0.62,0.63
0.53,-0.61,0.63
0.54,-0.61,0.63
0.54,-0.6,0.63
0.54,-0.6,0.62
0.55,-0.6,0.62
0.57,-0.59,0.63
0.58,-0.6,0.63
0.59,-0.6,0.63
0.6,-0.6,0.63
0.6,-0.6,0.63
0.61,-0.6,0.62
0.61,-0.61,0.62
0.6,-0.61,0.63
0.6,-0.61,0.65
0.59,-0.61,0.65
0.58,-0.61,0.66
0.58,-0.61,0.66
0.58,-0.61,0.65
0.57,-0.61,0.64
0.56,-0.61,0.63
0.55,-0.6,0.63
0.54,-0.6,0.63
0.53,-0.6,0.62
0.52,-0.59,0.62
0.51,-0.59,0.61
0.5,-0.59,0.6
0.49,-0.59,0.59
0.49,-0.6,0.58
0.49,-0.6,0.58
0.48,-0.61,0.58
0.48,-0.62,0.59
0.48,-0.62,0.6
0.48,-0.63,0.6
0.49,-0.64,0.59
0.49,-0.64,0.59
0.5,-0.64,0.59
0.51,-0.64,0.59
0.52,-0.64,0.59
0.53,-0.64,0.59
0.53,-0.64,0.59
0.54,-0.62,0.59
0.53,-0.62,0.59
0.53,-0.61,0.6
0.52,-0.61,0.6
0.52,-0.61,0.61
0.51,-0.62,0.61
0.51,-0.62,0.61
0.52,-0.62,0.61
0.52,-0.62,0.61
0.53,-0.63,0.61
0.53,-0.63,0.61
0.54,-0.62,0.61
0.55,-0.62,0.62
0.56,-0.62,0.62
0.57,-0.62,0.62
0.58,-0.62,0.63
0.59,-0.62,0.63
0.59,-0.62,0.64
0.59,-0.62,0.64
0.58,-0.62,0.64
0.57,-0.62,0.65
0.56,-0.62,0.65
0.55,-0.62,0.65
0.55,-0.61,0.65
0.54,-0.61,0.65
0.53,-0.61,0.64
0.52,-0.61,0.63
0.52,-0.61,0.61
0.51,-0.61,0.6
0.5,-0.61,0.6
0.49,-0.61,0.59
0.48,-0.61,0.58
0.47,-0.61,0.58
0.46,-0.61,0.58
0.47,-0.62,0.58
0.47,-0.62,0.58
0.49,-0.63,0.58
0.5,-0.64,0.58
0.5,-0.64,0.57
0.51,-0.64,0.57
0.52,-0.64,0.56
0.53,-0.63,0.57
0.55,-0.63,0.57
0.56,-0.62,0.58
0.57,-0.61,0.59
0.58,-0.6,0.59
0.57,-0.59,0.59
0.56,-0.59,0.59
0.55,-0.59,0.59
0.54,-0.59,0.59
0.54,-0.6,0.6
0.54,-0.6,0.61
0.55,-0.61,0.62
0.56,-0.61,0.62
0.57,-0.61,0.62
0.57,-0.61,0.62
0.58,-0.61,0.62
0.59,-0.61,0.61
0.59,-0.61,0.62
0.6,-0.61,0.62
0.6,-0.61,0.62
0.6,-0.61,0.62
0.6,-0.62,0.62
0.6,-0.62,0.62
0.61,-0.62,0.63
0.6,-0.62,0.63
0.59,-0.62,0.64
0.58,-0.62,0.64
0.57,-0.62,0.64
0.56,-0.61,0.64
0.55,-0.61,0.63
0.55,-0.61,0.63
0.54,-0.61,0.63
0.54,-0.61,0.63
0.53,-0.61,0.62
0.53,-0.61,0.62
0.52,-0.6,0.62
0.52,-0.6,0.61
0.5,-0.6,0.61
0.49,-0.6,0.61
0.48,-0.6,0.62
0.47,-0.59,0.64
0.46,-0.59,0.65
0.46,-0.59,0.67
0.45,-0.6,0.68
0.45,-0.6,0.68
0.46,-0.61,0.69
0.46,-0.6,0.71
0.44,-0.6,0.7
0.45,-0.58,0.69
0.46,-0.53,0.71
0.43,-0.51,0.71
0.43,-0.51,0.71
0.44,-0.53,0.72
0.46,-0.54,0.74
0.48,-0.53,0.75
0.5,-0.54,0.75
0.5,-0.55,0.74
0.5,-0.55,0.75
0.53,-0.55,0.75
0.55,-0.55,0.76
0.56,-0.56,0.75
0.58,-0.58,0.73
0.61,-0.6,0.64
0.66,-0.62,0.6
0.67,-0.63,0.57
0.69,-0.63,0.55
0.7,-0.63,0.52
0.72,-0.63,0.49
0.7,-0.63,0.48
0.69,-0.63,0.47
0.72,-0.62,0.43
0.77,-0.62,0.37
0.76,-0.64,0.33
0.75,-0.65,0.29
0.77,-0.66,0.15
0.8,-0.68,0.06
0.82,-0.68,0.03
0.84,-0.69,-0.03
0.85,-0.7,-0.06
0.81,-0.7,-0.06
0.81,-0.71,-0.07
0.83,-0.71,-0.09
0.83,-0.7,-0.08
0.77,-0.7,-0.04
0.8,-0.73,-0.06
0.82,-0.75,-0.1
0.75,-0.74,-0.09
0.72,-0.76,-0.1
0.72,-0.76,-0.11
0.69,-0.75,-0.11
0.69,-0.75,-0.1
0.69,-0.75,-0.09
0.7,-0.75,-0.09
0.71,-0.75,-0.09
0.72,-0.74,-0.1
0.68,-0.74,-0.12
0.64,-0.76,-0.15
0.65,-0.78,-0.21
0.65,-0.77,-0.26
0.62,-0.75,-0.29
0.62,-0.74,-0.28
0.66,-0.7,-0.23
0.66,-0.64,-0.17
0.66,-0.64,-0.13
0.69,-0.65,-0.13
0.69,-0.63,-0.1
0.69,-0.59,-0.08
0.71,-0.56,-0.04
1.43,0.72,1.98
2.52,1.34,3.59
1.25,0.28,1.64
0.06,-0.58,-0.11
0.5,-1.19,-0.37
0.62,-1.25,-0.51
0.79,-0.97,-0.22
0.81,-0.65,0.13
0.73,-0.58,0.36
0.76,-0.6,0.38
0.73,-0.69,0.29
0.66,-0.7,0.22
0.69,-0.67,0.19
0.74,-0.67,0.16
0.76,-0.68,0.11
0.79,-0.66,0.08
0.81,-0.64,0.09
0.83,-0.61,0.12
0.84,-0.59,0.14
0.83,-0.6,0.15
0.82,-0.61,0.15
0.81,-0.62,0.14
0.81,-0.63,0.13
0.81,-0.64,0.12
0.8,-0.64,0.11
0.78,-0.66,0.11
0.77,-0.67,0.1
0.75,-0.68,0.1
0.74,-0.68,0.1
0.72,-0.68,0.12
0.73,-0.68,0.13
0.73,-0.67,0.14
0.74,-0.67,0.14
0.74,-0.68,0.13
0.75,-0.68,0.12
0.76,-0.67,0.11
0.76,-0.66,0.11
0.76,-0.65,0.1
0.76,-0.64,0.09
0.77,-0.64,0.08
0.77,-0.64,0.07
0.77,-0.63,0.06
0.78,-0.63,0.06
0.8,-0.63,0.07
0.8,-0.63,0.07
0.81,-0.63,0.08
0.81,-0.63,0.09
0.81,-0.64,0.1
0.8,-0.64,0.1
0.8,-0.65,0.1
0.8,-0.64,0.09
0.8,-0.64,0.09
0.81,-0.64,0.09
0.83,-0.64,0.08
0.83,-0.65,0.08
0.83,-0.64,0.09
0.84,-0.64,0.1
0.84,-0.64,0.1
0.84,-0.64,0.1
0.84,-0.64,0.1
0.84,-0.65,0.11
0.83,-0.65,0.1
0.83,-0.65,0.1
0.83,-0.65,0.11
0.82,-0.64,0.13
0.81,-0.64,0.14
0.8,-0.64,0.15
0.79,-0.64,0.14
0.78,-0.63,0.14
0.77,-0.63,0.13
0.77,-0.63,0.13
0.76,-0.63,0.13
0.75,-0.64,0.13
0.75,-0.64,0.13
0.75,-0.63,0.13
0.74,-0.64,0.12
0.73,-0.64,0.12
0.73,-0.64,0.13
0.74,-0.65,0.13
0.75,-0.66,0.13
0.75,-0.66,0.13
0.75,-0.66,0.12
0.75,-0.67,0.12
0.75,-0.66,0.11
0.76,-0.67,0.1
0.77,-0.65,0.08
0.78,-0.65,0.08
0.78,-0.64,0.08
0.78,-0.63,0.08
0.78,-0.63,0.08
0.78,-0.62,0.09
0.79,-0.62,0.09
0.79,-0.62,0.09
0.79,-0.62,0.1
0.8,-0.62,0.1
0.81,-0.62,0.1
0.81,-0.63,0.09
0.81,-0.63,0.09
0.82,-0.63,0.08
0.82,-0.63,0.09
0.83,-0.63,0.09
0.83,-0.63,0.09
0.84,-0.64,0.09
0.85,-0.64,0.09
0.85,-0.64,0.09
0.86,-0.65,0.08
0.87,-0.65,0.08
0.87,-0.65,0.08
0.86,-0.65,0.08
0.84,-0.65,0.09
0.83,-0.65,0.1
0.81,-0.65,0.1
0.8,-0.65,0.1
0.79,-0.65,0.1
0.79,-0.65,0.1
0.78,-0.64,0.1
0.76,-0.64,0.11
0.75,-0.63,0.12
0.73,-0.64,0.12
0.72,-0.64,0.12
0.71,-0.64,0.11
0.71,-0.65,0.11
0.72,-0.65,0.11
0.72,-0.66,0.11
0.72,-0.67,0.11
0.72,-0.67,0.1
0.73,-0.67,0.1
0.74,-0.66,0.1
0.74,-0.66,0.1
0.75,-0.65,0.09
0.75,-0.64,0.08
0.76,-0.64,0.08
0.76,-0.63,0.09
0.76,-0.63,0.09
0.76,-0.63,0.1
0.77,-0.63,0.1
0.77,-0.63,0.11
0.78,-0.63,0.12
0.79,-0.65,0.11
0.8,-0.65,0.11
0.81,-0.65,0.1
0.81,-0.66,0.1
0.82,-0.66,0.1
0.83,-0.66,0.1
0.83,-0.66,0.1
0.84,-0.65,0.1
0.85,-0.65,0.1
0.86,-0.65,0.09
0.85,-0.66,0.09
0.84,-0.66,0.09
0.83,-0.66,0.09
0.82,-0.67,0.09
0.8,-0.67,0.09
0.8,-0.67,0.09
0.8,-0.67,0.09
0.8,-0.66,0.09
0.79,-0.65,0.1
0.77,-0.65,0.1
0.76,-0.64,0.1
0.75,-0.63,0.1
0.74,-0.63,0.1
0.74,-0.64,0.1
0.74,-0.64,0.1
0.73,-0.65,0.1
0.74,-0.65,0.1
0.74,-0.65,0.1
0.74,-0.65,0.09
0.74,-0.65,0.09
0.75,-0.65,0.09
0.76,-0.64,0.08
0.77,-0.64,0.08
0.78,-0.64,0.07
0.78,-0.63,0.07
0.79,-0.63,0.07
0.79,-0.62,0.07
0.8,-0.63,0.07
0.8,-0.63,0.07
0.79,-0.63,0.08
0.8,-0.63,0.08
0.8,-0.63,0.08
0.8,-0.63,0.09
0.8,-0.63,0.09
0.8,-0.62,0.09
0.81,-0.63,0.08
0.81,-0.63,0.08
0.81,-0.64,0.08
0.81,-0.64,0.08
0.82,-0.65,0.07
0.83,-0.66,0.07
0.84,-0.66,0.07
0.85,-0.66,0.07
0.85,-0.66,0.08
0.84,-0.66,0.08
0.84,-0.66,0.08
0.84,-0.66,0.09
0.83,-0.66,0.09
0.82,-0.66,0.1
0.8,-0.66,0.1
0.79,-0.65,0.1
0.78,-0.65,0.1
0.77,-0.65,0.1
0.76,-0.64,0.11
0.75,-0.63,0.13
0.75,-0.62,0.14
0.75,-0.62,0.15
0.74,-0.62,0.15
0.73,-0.62,0.15
0.73,-0.63,0.15
0.73,-0.64,0.16
0.74,-0.64,0.16
0.76,-0.64,0.17
0.79,-0.64,0.17
0.82,-0.63,0.18
0.84,-0.63,0.2
0.85,-0.61,0.24
0.92,-0.59,0.28
0.92,-0.58,0.26
0.95,-0.59,0.26
0.91,-0.59,0.28
0.88,-0.58,0.28
0.89,-0.58,0.28
0.87,-0.58,0.28
0.85,-0.59,0.27
0.85,-0.61,0.24
0.86,-0.63,0.21
0.88,-0.64,0.18
0.88,-0.65,0.16
0.88,-0.67,0.15
0.87,-0.67,0.15
0.88,-0.68,0.14
0.9,-0.7,0.11
0.89,-0.72,0.1
0.83,-0.68,0.12
0.82,-0.68,0.1
0.85,-0.74,0.05
0.79,-0.75,0.06
0.75,-0.76,0.06
0.76,-0.78,0.06
0.77,-0.81,0.05
0.77,-0.72,0.11
0.74,-0.7,0.13
0.75,-0.81,0.02
0.57,-0.77,0.03
0.54,-0.82,-0.02
0.45,-0.8,0.03
0.52,-0.79,0.03
0.51,-0.83,0.01
0.43,-0.81,0.02
0.58,-0.81,0.03
0.59,-0.79,0.03
0.37,-0.79,0
0.37,-0.85,-0.03
0.42,-0.84,-0.04
0.39,-0.81,-0.05
0.34,-0.84,-0.08
0.33,-0.82,-0.07
0.35,-0.8,-0.07
0.41,-0.81,-0.04
0.44,-0.76,-0.03
0.38,-0.73,-0.03
0.32,-0.72,-0.03
0.36,-0.69,-0.05
0.42,-0.68,-0.06
0.43,-0.67,-0.07
0.4,-0.65,-0.03
0.4,-0.59,0.04
0.49,-0.52,0.11
0.52,-0.48,0.2
0.58,-0.41,0.51
0.58,-0.44,0.63
1.02,-0.13,2.05
1.23,0.86,3.72
0.72,0.83,2.54
0.6,-0.56,0.72
0.25,-1.3,0.59
-0.27,-1.11,0.69
0,-0.71,0.39
0.41,-0.56,0.27
0.61,-0.59,0.46
0.73,-0.62,0.69
0.82,-0.65,0.81
0.82,-0.68,0.82
0.75,-0.72,0.75
0.68,-0.73,0.66
0.62,-0.71,0.6
0.57,-0.66,0.53
0.54,-0.61,0.48
0.52,-0.58,0.49
0.49,-0.55,0.54
0.48,-0.52,0.62
0.49,-0.51,0.68
0.49,-0.51,0.72
0.47,-0.53,0.72
0.46,-0.55,0.68
0.46,-0.59,0.58
0.49,-0.6,0.55
0.49,-0.6,0.54
0.49,-0.61,0.54
0.51,-0.61,0.55
0.52,-0.61,0.56
0.52,-0.61,0.58
0.51,-0.61,0.6
0.51,-0.61,0.6
0.51,-0.61,0.6
0.52,-0.6,0.61
0.54,-0.59,0.62
0.54,-0.59,0.63
0.54,-0.59,0.63
0.55,-0.59,0.63
0.55,-0.59,0.62
0.56,-0.59,0.62
0.57,-0.58,0.63
0.58,-0.58,0.64
0.58,-0.59,0.65
0.58,-0.59,0.66
0.58,-0.59,0.67
0.58,-0.59,0.67
0.57,-0.59,0.67
0.56,-0.58,0.67
0.56,-0.58,0.68
0.57,-0.58,0.68
0.57,-0.59,0.68
0.56,-0.58,0.67
0.55,-0.58,0.67
0.54,-0.57,0.67
0.53,-0.56,0.66
0.52,-0.56,0.66
0.51,-0.56,0.65
0.51,-0.56,0.64
0.51,-0.56,0.63
0.51,-0.57,0.62
0.51,-0.58,0.62
0.51,-0.58,0.61
0.51,-0.58,0.61
0.52,-0.58,0.62
0.52,-0.58,0.62
0.53,-0.58,0.62
0.54,-0.58,0.61
0.55,-0.57,0.61
0.56,-0.56,0.6
0.55,-0.55,0.6
0.54,-0.54,0.6
0.54,-0.54,0.6
0.54,-0.54,0.61
0.54,-0.55,0.62
0.55,-0.56,0.63
0.55,-0.56,0.65
0.55,-0.57,0.66
0.55,-0.57,0.67
0.57,-0.57,0.68
0.58,-0.57,0.69
0.59,-0.56,0.7
0.59,-0.56,0.7
0.58,-0.56,0.7
0.58,-0.56,0.69
0.58,-0.56,0.68
0.58,-0.56,0.67
0.58,-0.56,0.66
0.58,-0.57,0.66
0.59,-0.58,0.65
0.59,-0.58,0.65
0.58,-0.59,0.65
0.57,-0.59,0.65
0.55,-0.59,0.64
0.54,-0.6,0.62
0.54,-0.6,0.6
0.54,-0.6,0.6
0.54,-0.59,0.6
0.54,-0.59,0.6
0.55,-0.59,0.61
0.55,-0.58,0.61
0.55,-0.58,0.62
0.55,-0.56,0.62
0.53,-0.56,0.62
0.53,-0.56,0.63
0.53,-0.56,0.63
0.54,-0.56,0.63
0.55,-0.56,0.63
0.55,-0.57,0.63
0.55,-0.56,0.64
0.55,-0.56,0.64
0.55,-0.57,0.65
0.56,-0.57,0.66
0.56,-0.57,0.66
0.56,-0.57,0.66
0.56,-0.58,0.66
0.56,-0.57,0.65
0.56,-0.57,0.65
0.55,-0.58,0.63
0.56,-0.58,0.63
0.56,-0.58,0.62
0.56,-0.58,0.63
0.55,-0.58,0.63
0.56,-0.58,0.63
0.56,-0.58,0.64
0.55,-0.58,0.64
0.54,-0.58,0.63
0.54,-0.58,0.62
0.54,-0.58,0.61
0.53,-0.58,0.61
0.54,-0.58,0.61
0.54,-0.58,0.62
0.55,-0.58,0.62
0.56,-0.58,0.63
0.56,-0.58,0.64
0.56,-0.57,0.64
0.56,-0.57,0.63
0.56,-0.57,0.62
0.55,-0.57,0.62
0.55,-0.58,0.62
0.56,-0.57,0.62
0.55,-0.57,0.62
0.55,-0.57,0.63
0.55,-0.57,0.64
0.55,-0.57,0.64
0.56,-0.57,0.65
0.56,-0.57,0.65
0.56,-0.57,0.64
0.55,-0.58,0.64
0.55,-0.58,0.64
0.55,-0.58,0.64
0.55,-0.59,0.63
0.56,-0.59,0.64
0.57,-0.59,0.65
0.57,-0.59,0.65
0.57,-0.59,0.65
0.57,-0.59,0.65
0.56,-0.59,0.64
0.55,-0.59,0.64
0.55,-0.58,0.63
0.55,-0.58,0.62
0.56,-0.58,0.62
0.56,-0.58,0.62
0.56,-0.58,0.62
0.56,-0.58,0.62
0.55,-0.57,0.62
0.55,-0.58,0.62
0.55,-0.57,0.62
0.55,-0.57,0.63
0.54,-0.57,0.63
0.54,-0.57,0.63
0.54,-0.57,0.62
0.55,-0.57,0.62
0.55,-0.57,0.62
0.56,-0.56,0.62
0.56,-0.56,0.62
0.55,-0.57,0.62
0.56,-0.57,0.62
0.55,-0.56,0.62
0.55,-0.57,0.62
0.55,-0.57,0.62
0.56,-0.58,0.62
0.56,-0.59,0.62
0.56,-0.59,0.63
0.56,-0.58,0.63
0.56,-0.58,0.63
0.56,-0.58,0.63
0.56,-0.58,0.63
0.56,-0.57,0.64
0.55,-0.58,0.63
0.55,-0.58,0.63
0.56,-0.58,0.63
0.56,-0.58,0.63
0.56,-0.58,0.63
0.56,-0.58,0.63
0.56,-0.58,0.63
0.57,-0.58,0.63
0.56,-0.58,0.63
0.56,-0.58,0.63
0.55,-0.57,0.63
0.56,-0.57,0.62
0.56,-0.57,0.62
0.56,-0.58,0.62
0.56,-0.58,0.62
0.56,-0.58,0.63
0.56,-0.57,0.63
0.56,-0.57,0.64
0.56,-0.57,0.63
0.56,-0.57,0.63
0.55,-0.57,0.63
0.55,-0.57,0.63
0.55,-0.57,0.63
0.55,-0.57,0.63
0.56,-0.57,0.63
0.56,-0.57,0.62
0.56,-0.57,0.63
0.56,-0.58,0.63
0.56,-0.58,0.63
0.56,-0.57,0.63
0.56,-0.58,0.63
0.55,-0.58,0.63
0.55,-0.58,0.63
0.56,-0.58,0.63
0.56,-0.58,0.63
0.56,-0.58,0.63
0.56,-0.58,0.63
0.56,-0.58,0.63
0.56,-0.58,0.63
0.56,-0.57,0.62
0.57,-0.57,0.62
0.56,-0.57,0.63
0.56,-0.56,0.63
0.57,-0.57,0.64
0.56,-0.56,0.64
0.55,-0.56,0.64
0.55,-0.56,0.63
0.56,-0.56,0.63
0.56,-0.56,0.63
0.56,-0.56,0.63
0.56,-0.56,0.64
0.56,-0.56,0.64
0.56,-0.56,0.63
0.56,-0.57,0.63
0.55,-0.57,0.63
0.55,-0.58,0.63
0.55,-0.58,0.63
0.55,-0.58,0.64
0.55,-0.58,0.65
0.56,-0.58,0.65
0.56,-0.58,0.64
0.56,-0.58,0.63
0.56,-0.58,0.63
0.57,-0.58,0.62
0.57,-0.58,0.62
0.57,-0.58,0.62
0.57,-0.57,0.62
0.57,-0.57,0.62
0.56,-0.57,0.62
0.55,-0.57,0.62
0.55,-0.57,0.62
0.55,-0.57,0.62
0.55,-0.57,0.63
0.56,-0.56,0.63
0.56,-0.56,0.64
0.55,-0.56,0.64
0.56,-0.56,0.64
0.56,-0.56,0.64
0.56,-0.56,0.63
0.57,-0.56,0.63
0.57,-0.56,0.63
0.57,-0.56,0.63
0.57,-0.56,0.63
0.57,-0.57,0.63
0.58,-0.57,0.64
0.57,-0.57,0.64
0.57,-0.57,0.63
0.56,-0.56,0.63
0.56,-0.56,0.63
0.55,-0.56,0.62
0.55,-0.56,0.63
0.54,-0.56,0.64
0.54,-0.55,0.65
0.53,-0.56,0.67
0.52,-0.56,0.69
0.52,-0.55,0.73
0.54,-0.53,0.71
0.52,-0.54,0.66
0.46,-0.52,0.61
0.48,-0.45,0.57
0.52,-0.42,0.58
0.53,-0.46,0.64
0.56,-0.48,0.69
0.59,-0.48,0.73
0.6,-0.49,0.74
0.62,-0.52,0.73
0.61,-0.53,0.72
0.61,-0.54,0.71
0.62,-0.54,0.7
0.64,-0.54,0.68
0.64,-0.55,0.67
0.65,-0.56,0.65
0.68,-0.56,0.65
0.72,-0.55,0.63
0.77,-0.56,0.6
0.8,-0.56,0.57
0.81,-0.56,0.54
0.84,-0.55,0.53
0.88,-0.55,0.53
0.89,-0.56,0.54
0.89,-0.58,0.53
0.89,-0.61,0.51
0.89,-0.66,0.47
0.88,-0.67,0.46
0.87,-0.67,0.45
0.87,-0.66,0.43
0.86,-0.66,0.4
0.83,-0.66,0.37
0.8,-0.66,0.33
0.77,-0.66,0.3
0.75,-0.67,0.28
0.71,-0.67,0.27
0.68,-0.68,0.28
0.65,-0.69,0.28
0.63,-0.7,0.29
0.61,-0.71,0.3
0.61,-0.72,0.3
0.59,-0.73,0.29
0.55,-0.73,0.28
0.52,-0.74,0.26
0.48,-0.74,0.25
0.44,-0.74,0.23
0.42,-0.74,0.23
0.4,-0.74,0.23
0.38,-0.74,0.23
0.38,-0.74,0.23
0.38,-0.74,0.22
0.38,-0.75,0.2
0.36,-0.77,0.16
0.32,-0.78,0.12
0.3,-0.78,0.11
0.3,-0.76,0.13
0.32,-0.74,0.16
0.35,-0.72,0.2
0.39,-0.7,0.25
0.43,-0.69,0.27
0.45,-0.71,0.28
0.47,-0.72,0.27
0.49,-0.72,0.26
0.47,-0.71,0.29
0.45,-0.69,0.33
0.41,-0.67,0.39
0.38,-0.64,0.5
0.4,-0.59,0.62
0.42,-0.56,0.72
0.83,-0.57,0.57
1.47,-0.14,2.18
0.56,0.22,3.19
0.16,-0.3,1.39
0.76,-0.88,0.42
0.27,-0.96,0.51
0.16,-0.8,0.4
0.49,-0.69,0.17
0.67,-0.66,0.17
0.73,-0.6,0.59
0.66,-0.59,0.7
0.64,-0.62,0.72
0.61,-0.65,0.66
0.59,-0.65,0.59
0.51,-0.63,0.55
0.46,-0.6,0.53
0.45,-0.59,0.53
0.47,-0.59,0.56
0.5,-0.59,0.6
0.52,-0.59,0.64
0.54,-0.59,0.67
0.55,-0.6,0.67
0.55,-0.61,0.66
0.54,-0.62,0.64
0.53,-0.62,0.62
0.54,-0.62,0.6
0.56,-0.62,0.59
0.57,-0.63,0.59
0.58,-0.63,0.59
0.58,-0.63,0.6
0.57,-0.63,0.61
0.55,-0.62,0.62
0.54,-0.61,0.63
0.52,-0.61,0.63
0.51,-0.61,0.63
0.52,-0.61,0.61
0.53,-0.61,0.6
0.54,-0.61,0.6
0.54,-0.61,0.6
0.54,-0.61,0.59
0.55,-0.61,0.6
0.55,-0.61,0.61
0.55,-0.61,0.62
0.55,-0.61,0.62
0.53,-0.61,0.61
0.53,-0.62,0.6
0.52,-0.62,0.59
0.52,-0.62,0.59
0.53,-0.62,0.59
0.54,-0.61,0.6
0.54,-0.61,0.61
0.54,-0.61,0.61
0.55,-0.61,0.61
0.55,-0.61,0.61
0.54,-0.61,0.61
0.53,-0.62,0.6
0.53,-0.62,0.6
0.53,-0.62,0.6
0.53,-0.63,0.61
0.52,-0.63,0.61
0.52,-0.62,0.61
0.52,-0.62,0.59
0.53,-0.62,0.6
0.54,-0.62,0.6
0.54,-0.62,0.6
0.55,-0.62,0.6
0.55,-0.62,0.6
0.54,-0.62,0.6
0.54,-0.62,0.6
0.54,-0.61,0.59
0.53,-0.61,0.59
0.52,-0.61,0.59
0.52,-0.61,0.59
0.52,-0.61,0.59
0.53,-0.61,0.58
0.54,-0.62,0.58
0.54,-0.62,0.58
0.54,-0.62,0.57
0.54,-0.62,0.57
0.54,-0.62,0.56
0.54,-0.62,0.56
0.53,-0.63,0.56
0.53,-0.62,0.56
0.54,-0.62,0.55
0.55,-0.63,0.55
0.56,-0.63,0.55
0.57,-0.63,0.55
0.57,-0.63,0.55
0.57,-0.63,0.55
0.56,-0.63,0.54
0.56,-0.63,0.54
0.56,-0.63,0.54
0.56,-0.63,0.54
0.57,-0.62,0.55
0.57,-0.62,0.55
0.57,-0.62,0.56
0.58,-0.61,0.56
0.58,-0.61,0.56
0.58,-0.61,0.56
0.58,-0.61,0.56
0.58,-0.61,0.56
0.59,-0.61,0.56
0.59,-0.61,0.57
0.6,-0.6,0.57
0.6,-0.6,0.57
0.6,-0.6,0.57
0.61,-0.59,0.58
0.61,-0.59,0.58
0.62,-0.58,0.58
0.62,-0.58,0.58
0.62,-0.57,0.58
0.62,-0.57,0.58
0.62,-0.56,0.59
0.62,-0.56,0.58
0.63,-0.56,0.59
0.64,-0.56,0.6
0.64,-0.55,0.59
0.64,-0.55,0.59
0.64,-0.54,0.59
0.64,-0.54,0.59
0.64,-0.53,0.59
0.64,-0.53,0.59
0.64,-0.53,0.59
0.64,-0.53,0.59
0.64,-0.53,0.59
0.65,-0.53,0.59
0.66,-0.53,0.59
0.66,-0.53,0.6
0.67,-0.52,0.6
0.67,-0.52,0.6
0.67,-0.52,0.6
0.67,-0.52,0.6
0.68,-0.51,0.6
0.68,-0.5,0.61
0.68,-0.51,0.62
0.68,-0.51,0.62
0.68,-0.51,0.63
0.68,-0.51,0.64
0.69,-0.5,0.64
0.69,-0.5,0.63
0.69,-0.5,0.63
0.68,-0.5,0.62
0.68,-0.51,0.62
0.68,-0.51,0.61
0.68,-0.51,0.61
0.67,-0.51,0.62
0.67,-0.51,0.62
0.67,-0.51,0.61
0.67,-0.51,0.62
0.67,-0.5,0.62
0.66,-0.5,0.61
0.66,-0.49,0.62
0.66,-0.49,0.62
0.66,-0.48,0.62
0.66,-0.48,0.62
0.66,-0.48,0.62
0.67,-0.47,0.62
0.67,-0.47,0.62
0.67,-0.46,0.62
0.66,-0.46,0.63
0.66,-0.46,0.63
0.67,-0.45,0.63
0.67,-0.44,0.64
0.67,-0.44,0.64
0.66,-0.44,0.64
0.66,-0.44,0.63
0.67,-0.44,0.63
0.67,-0.45,0.63
0.67,-0.45,0.64
0.67,-0.45,0.64
0.67,-0.45,0.64
0.67,-0.45,0.64
0.67,-0.45,0.64
0.67,-0.45,0.64
0.66,-0.45,0.64
0.67,-0.45,0.64
0.67,-0.46,0.65
0.66,-0.46,0.65
0.66,-0.46,0.64
0.66,-0.47,0.64
0.65,-0.47,0.63
0.66,-0.47,0.62
0.66,-0.48,0.61
0.66,-0.48,0.61
0.66,-0.48,0.62
0.66,-0.48,0.62
0.65,-0.48,0.61
0.64,-0.48,0.6
0.64,-0.48,0.6
0.64,-0.49,0.6
0.63,-0.5,0.59
0.64,-0.51,0.59
0.65,-0.51,0.59
0.65,-0.52,0.59
0.65,-0.52,0.59
0.65,-0.52,0.59
0.65,-0.52,0.58
0.65,-0.52,0.58
0.65,-0.52,0.57
0.65,-0.52,0.57
0.65,-0.52,0.57
0.64,-0.52,0.57
0.65,-0.52,0.56
0.65,-0.53,0.56
0.64,-0.53,0.56
0.63,-0.54,0.55
0.63,-0.54,0.55
0.63,-0.55,0.55
0.62,-0.56,0.55
0.63,-0.57,0.55
0.63,-0.57,0.56
0.64,-0.57,0.57
0.64,-0.57,0.58
0.64,-0.57,0.58
0.64,-0.57,0.58
0.64,-0.56,0.58
0.64,-0.54,0.57
0.64,-0.53,0.57
0.65,-0.51,0.58
0.65,-0.51,0.59
0.65,-0.5,0.59
0.65,-0.5,0.59
0.65,-0.5,0.59
0.65,-0.51,0.59
0.64,-0.51,0.59
0.63,-0.52,0.58
0.62,-0.53,0.57
0.62,-0.54,0.57
0.61,-0.55,0.57
0.61,-0.55,0.57
0.61,-0.56,0.58
0.61,-0.57,0.59
0.61,-0.57,0.59
0.62,-0.58,0.6
0.63,-0.58,0.6
0.62,-0.59,0.6
0.62,-0.59,0.6
0.63,-0.59,0.59
0.63,-0.59,0.59
0.64,-0.58,0.59
0.66,-0.57,0.59
0.66,-0.56,0.59
0.66,-0.56,0.59
0.65,-0.56,0.59
0.63,-0.55,0.59
0.62,-0.55,0.59
0.62,-0.54,0.59
0.62,-0.54,0.6
0.62,-0.55,0.59
0.62,-0.54,0.59
0.62,-0.54,0.6
0.61,-0.53,0.6
0.61,-0.52,0.6
0.6,-0.52,0.6
0.6,-0.51,0.6
0.6,-0.51,0.6
0.6,-0.5,0.61
0.6,-0.5,0.61
0.61,-0.5,0.61
0.6,-0.49,0.62
0.6,-0.49,0.62
0.6,-0.49,0.62
0.59,-0.48,0.63
0.59,-0.48,0.63
0.58,-0.48,0.63
0.58,-0.47,0.63
0.58,-0.47,0.63
0.57,-0.47,0.65
0.57,-0.46,0.66
0.58,-0.47,0.7
0.59,-0.47,0.72
0.61,-0.48,0.73
0.62,-0.48,0.73
0.62,-0.49,0.73
0.62,-0.49,0.73
0.61,-0.5,0.71
0.61,-0.51,0.7
0.61,-0.51,0.68
0.61,-0.52,0.67
0.6,-0.53,0.67
0.6,-0.53,0.67
0.59,-0.53,0.67
0.58,-0.53,0.67
0.57,-0.52,0.68
0.55,-0.52,0.69
0.53,-0.51,0.7
0.52,-0.5,0.7
0.52,-0.48,0.7
0.53,-0.47,0.7
0.55,-0.46,0.71
0.57,-0.45,0.72
0.58,-0.44,0.72
0.59,-0.43,0.73
0.58,-0.43,0.76
0.58,-0.43,0.79
0.59,-0.41,0.81
0.59,-0.4,0.83
0.61,-0.38,0.84
0.64,-0.37,0.88
0.64,-0.38,0.94
0.66,-0.38,0.97
0.66,-0.39,0.99
0.66,-0.4,0.98
0.68,-0.41,0.96
0.69,-0.41,0.96
0.73,-0.43,0.94
0.78,-0.44,0.91
0.82,-0.45,0.88
0.84,-0.47,0.85
0.84,-0.49,0.82
0.81,-0.51,0.78
0.78,-0.53,0.75
0.75,-0.55,0.72
0.72,-0.57,0.68
0.7,-0.58,0.63
0.69,-0.59,0.58
0.67,-0.6,0.54
0.66,-0.61,0.5
0.64,-0.61,0.46
0.62,-0.62,0.42
0.59,-0.63,0.39
0.56,-0.64,0.36
0.53,-0.65,0.31
0.46,-0.66,0.27
0.42,-0.68,0.24
0.4,-0.68,0.22
0.39,-0.68,0.2
0.38,-0.69,0.2
0.35,-0.7,0.2
0.33,-0.7,0.19
0.31,-0.71,0.19
0.28,-0.72,0.19
0.26,-0.72,0.18
0.23,-0.73,0.14
0.18,-0.75,0.09
0.13,-0.77,0.04
0.1,-0.78,0
0.1,-0.77,-0.03
0.11,-0.76,-0.05
0.13,-0.75,-0.05
0.15,-0.71,-0.03
0.18,-0.68,-0.01
0.25,-0.65,0.03
0.35,-0.6,0.08
0.45,-0.55,0.14
0.51,-0.52,0.22
0.54,-0.52,0.27
0.54,-0.51,0.31
0.52,-0.49,0.49
0.51,-0.47,0.59
0.52,-0.46,0.7
0.6,-0.47,0.74
0.74,-0.45,2.01
1.24,-0.09,3.64
0.39,0.16,3.5
0.1,-0.34,1.96
0.88,-0.78,0.98
0.36,-0.73,0.96
0.36,-0.6,0.64
0.76,-0.53,0.33
0.82,-0.51,0.3
0.79,-0.49,0.38
0.75,-0.47,0.53
0.77,-0.46,0.68
0.8,-0.49,0.75
0.75,-0.53,0.79
0.68,-0.55,0.8
0.64,-0.54,0.77
0.6,-0.51,0.72
0.57,-0.48,0.67
0.55,-0.45,0.65
0.55,-0.43,0.66
0.53,-0.43,0.67
0.51,-0.43,0.69
0.52,-0.43,0.72
0.57,-0.43,0.71
0.57,-0.44,0.7
0.57,-0.45,0.68
0.58,-0.46,0.65
0.58,-0.46,0.63
0.59,-0.45,0.63
0.58,-0.45,0.63
0.58,-0.45,0.64
0.58,-0.46,0.66
0.59,-0.46,0.68
0.6,-0.46,0.7
0.59,-0.46,0.71
0.59,-0.46,0.71
0.59,-0.46,0.71
0.58,-0.47,0.7
0.58,-0.48,0.69
0.57,-0.49,0.67
0.57,-0.49,0.67
0.57,-0.48,0.67
0.59,-0.47,0.68
0.6,-0.47,0.69
0.6,-0.48,0.7
0.6,-0.48,0.7
0.59,-0.49,0.71
0.6,-0.49,0.71
0.59,-0.49,0.7
0.58,-0.49,0.69
0.57,-0.49,0.69
0.56,-0.49,0.69
0.58,-0.49,0.69
0.6,-0.49,0.69
0.6,-0.49,0.68
0.6,-0.49,0.68
0.58,-0.48,0.66
0.56,-0.49,0.65
0.56,-0.49,0.64
0.55,-0.49,0.63
0.55,-0.5,0.63
0.56,-0.51,0.64
0.57,-0.52,0.65
0.58,-0.53,0.66
0.59,-0.53,0.67
0.59,-0.54,0.68
0.59,-0.54,0.68
0.59,-0.53,0.68
0.58,-0.54,0.68
0.58,-0.54,0.67
0.59,-0.53,0.68
0.59,-0.52,0.69
0.6,-0.53,0.7
0.6,-0.53,0.72
0.6,-0.53,0.71
0.56,-0.54,0.7
0.54,-0.54,0.69
0.52,-0.53,0.68
0.51,-0.53,0.66
0.51,-0.53,0.64
0.51,-0.52,0.63
0.52,-0.52,0.63
0.54,-0.52,0.63
0.54,-0.52,0.62
0.54,-0.52,0.62
0.54,-0.52,0.62
0.53,-0.53,0.62
0.51,-0.54,0.62
0.51,-0.55,0.62
0.51,-0.55,0.63
0.52,-0.55,0.64
0.53,-0.55,0.65
0.53,-0.55,0.67
0.54,-0.55,0.68
0.53,-0.55,0.68
0.52,-0.56,0.68
0.51,-0.57,0.67
0.51,-0.59,0.66
0.51,-0.6,0.65
0.51,-0.61,0.65
0.53,-0.63,0.64
0.54,-0.62,0.64
0.55,-0.62,0.64
0.55,-0.62,0.63
0.55,-0.62,0.62
0.54,-0.61,0.62
0.53,-0.61,0.62
0.53,-0.61,0.62
0.52,-0.61,0.62
0.52,-0.6,0.63
0.51,-0.6,0.62
0.51,-0.59,0.6
0.5,-0.59,0.6
0.49,-0.59,0.59
0.49,-0.58,0.6
0.49,-0.58,0.61
0.49,-0.58,0.62
0.49,-0.58,0.63
0.49,-0.59,0.63
0.49,-0.59,0.63
0.49,-0.6,0.62
0.49,-0.61,0.6
0.5,-0.61,0.59
0.51,-0.62,0.59
0.52,-0.62,0.59
0.54,-0.62,0.6
0.55,-0.61,0.62
0.54,-0.62,0.63
0.54,-0.62,0.64
0.53,-0.62,0.64
0.52,-0.63,0.64
0.52,-0.63,0.64
0.52,-0.64,0.63
0.52,-0.64,0.63
0.52,-0.65,0.62
0.52,-0.65,0.62
0.52,-0.65,0.61
0.51,-0.65,0.6
0.51,-0.65,0.59
0.5,-0.64,0.58
0.5,-0.65,0.56
0.5,-0.65,0.54
0.51,-0.66,0.53
0.51,-0.67,0.52
0.52,-0.68,0.52
0.54,-0.69,0.54
0.55,-0.71,0.55
0.57,-0.72,0.56
0.58,-0.74,0.56
0.57,-0.75,0.56
0.57,-0.76,0.55
0.58,-0.75,0.55
0.58,-0.74,0.55
0.59,-0.74,0.54
0.58,-0.76,0.54
0.59,-0.77,0.56
0.6,-0.76,0.63
0.63,-0.72,0.71
0.66,-0.66,0.79
0.67,-0.61,0.84
0.66,-0.55,0.86
0.65,-0.5,0.84
0.63,-0.45,0.81
0.59,-0.41,0.78
0.57,-0.37,0.78
0.55,-0.33,0.8
0.53,-0.29,0.84
0.51,-0.27,0.89
0.51,-0.26,0.93
0.53,-0.25,0.95
0.55,-0.26,0.94
0.57,-0.27,0.91
0.57,-0.28,0.86
0.57,-0.29,0.81
0.58,-0.3,0.77
0.59,-0.32,0.73
0.6,-0.33,0.7
0.6,-0.35,0.69
0.61,-0.37,0.68
0.6,-0.39,0.69
0.59,-0.4,0.71
0.57,-0.39,0.73
0.55,-0.38,0.73
0.55,-0.38,0.74
0.55,-0.38,0.74
0.56,-0.38,0.73
0.57,-0.38,0.73
0.58,-0.37,0.74
0.58,-0.37,0.75
0.59,-0.36,0.76
0.6,-0.36,0.77
0.61,-0.36,0.78
0.62,-0.36,0.78
0.62,-0.37,0.77
0.62,-0.38,0.76
0.62,-0.39,0.74
0.62,-0.39,0.73
0.62,-0.39,0.73
0.62,-0.39,0.73
0.62,-0.39,0.73
0.63,-0.39,0.73
0.63,-0.4,0.73
0.62,-0.41,0.72
0.62,-0.42,0.7
0.61,-0.43,0.69
0.6,-0.45,0.7
0.58,-0.45,0.7
0.57,-0.46,0.7
0.56,-0.46,0.7
0.55,-0.46,0.69
0.54,-0.46,0.69
0.53,-0.46,0.69
0.52,-0.46,0.69
0.53,-0.46,0.7
0.53,-0.45,0.71
0.53,-0.45,0.72
0.53,-0.46,0.72
0.54,-0.46,0.71
0.53,-0.46,0.7
0.53,-0.46,0.69
0.54,-0.46,0.68
0.54,-0.46,0.67
0.54,-0.47,0.66
0.55,-0.47,0.67
0.56,-0.48,0.69
0.56,-0.48,0.7
0.56,-0.48,0.72
0.57,-0.48,0.73
0.58,-0.48,0.73
0.59,-0.48,0.73
0.59,-0.49,0.73
0.59,-0.49,0.71
0.59,-0.49,0.7
0.58,-0.49,0.7
0.58,-0.49,0.7
0.58,-0.49,0.71
0.57,-0.49,0.71
0.56,-0.5,0.72
0.56,-0.51,0.71
0.55,-0.52,0.71
0.55,-0.52,0.7
0.55,-0.52,0.69
0.55,-0.52,0.68
0.55,-0.52,0.67
0.56,-0.52,0.66
0.57,-0.51,0.66
0.58,-0.51,0.66
0.59,-0.51,0.66
0.59,-0.51,0.66
0.59,-0.51,0.65
0.58,-0.51,0.64
0.57,-0.52,0.63
0.57,-0.52,0.62
0.57,-0.52,0.62
0.57,-0.52,0.63
0.59,-0.52,0.63
0.59,-0.52,0.63
0.59,-0.53,0.62
0.59,-0.53,0.61
0.58,-0.53,0.6
0.58,-0.53,0.59
0.58,-0.53,0.59
0.58,-0.52,0.6
0.57,-0.52,0.6
0.57,-0.52,0.6
0.57,-0.53,0.6
0.58,-0.53,0.6
0.58,-0.53,0.6
0.59,-0.54,0.6
0.6,-0.54,0.6
0.62,-0.53,0.61
0.63,-0.53,0.61
0.63,-0.53,0.61
0.63,-0.53,0.61
0.63,-0.53,0.61
0.63,-0.53,0.6
0.62,-0.53,0.6
0.62,-0.53,0.61
0.62,-0.54,0.62
0.63,-0.54,0.63
0.64,-0.54,0.64
0.64,-0.54,0.64
0.64,-0.54,0.64
0.63,-0.55,0.64
0.63,-0.55,0.64
0.62,-0.54,0.64
0.62,-0.54,0.64
0.61,-0.53,0.64
0.62,-0.52,0.65
0.63,-0.52,0.66
0.63,-0.52,0.66
0.63,-0.53,0.65
0.63,-0.52,0.64
0.63,-0.52,0.64
0.62,-0.51,0.64
0.62,-0.51,0.65
0.62,-0.51,0.67
0.63,-0.5,0.69
0.63,-0.5,0.72
0.62,-0.5,0.74
0.62,-0.5,0.76
0.62,-0.5,0.77
0.62,-0.5,0.77
0.62,-0.5,0.77
0.6,-0.48,0.77
0.58,-0.48,0.76
0.61,-0.48,0.78
0.62,-0.47,0.8
0.62,-0.45,0.84
0.61,-0.48,0.96
0.63,-0.49,0.96
0.67,-0.49,0.93
0.71,-0.51,0.9
0.71,-0.53,0.88
0.68,-0.54,0.89
0.63,-0.54,0.89
0.62,-0.56,0.88
0.61,-0.57,0.87
0.61,-0.57,0.87
0.62,-0.57,0.86
0.62,-0.58,0.83
0.61,-0.59,0.78
0.61,-0.6,0.71
0.63,-0.62,0.64
0.63,-0.63,0.58
0.62,-0.64,0.54
0.6,-0.64,0.5
0.56,-0.65,0.48
0.54,-0.65,0.46
0.51,-0.66,0.44
0.49,-0.66,0.41
0.48,-0.67,0.38
0.48,-0.67,0.36
0.48,-0.68,0.33
0.47,-0.69,0.3
0.46,-0.7,0.23
0.42,-0.71,0.2
0.4,-0.72,0.17
0.39,-0.72,0.16
0.39,-0.73,0.15
0.38,-0.74,0.14
0.37,-0.75,0.13
0.36,-0.75,0.12
0.34,-0.76,0.11
0.33,-0.76,0.1
0.31,-0.77,0.07
0.29,-0.77,0.03
0.27,-0.78,-0.01
0.26,-0.78,-0.04
0.26,-0.77,-0.05
0.27,-0.75,-0.04
0.31,-0.73,-0.01
0.34,-0.7,0.02
0.36,-0.68,0.04
0.38,-0.66,0.07
0.4,-0.63,0.08
0.41,-0.61,0.08
0.4,-0.59,0.08
0.38,-0.56,0.08
0.36,-0.54,0.09
0.35,-0.49,0.16
0.42,-0.42,0.45
0.53,-0.36,0.56
0.57,-0.37,0.62
0.58,-0.39,0.63
0.56,-0.38,0.49
0.85,0.05,1.19
1.6,0.57,3
0.51,0.13,3.32
-0.01,-0.49,2.04
0.69,-0.58,1.4
0.31,-0.59,1.14
0.33,-0.57,0.64
0.53,-0.57,0.33
0.67,-0.55,0.26
0.71,-0.49,0.34
0.78,-0.45,0.5
0.87,-0.44,0.64
0.85,-0.46,0.74
0.77,-0.49,0.81
0.7,-0.5,0.82
0.63,-0.49,0.79
0.59,-0.47,0.75
0.57,-0.44,0.72
0.56,-0.43,0.69
0.56,-0.42,0.68
0.57,-0.4,0.69
0.58,-0.39,0.69
0.57,-0.39,0.69
0.58,-0.39,0.69
0.6,-0.4,0.69
0.62,-0.4,0.69
0.63,-0.41,0.68
0.63,-0.41,0.66
0.64,-0.41,0.65
0.64,-0.41,0.66
0.65,-0.42,0.66
0.66,-0.41,0.67
0.66,-0.41,0.68
0.65,-0.4,0.69
0.65,-0.4,0.71
0.64,-0.4,0.71
0.62,-0.41,0.7
0.62,-0.41,0.69
0.61,-0.41,0.68
0.61,-0.4,0.68
0.61,-0.4,0.68
0.61,-0.4,0.68
0.63,-0.4,0.68
0.64,-0.39,0.68
0.64,-0.39,0.68
0.64,-0.38,0.67
0.64,-0.38,0.67
0.64,-0.37,0.67
0.64,-0.36,0.66
0.64,-0.35,0.65
0.63,-0.35,0.65
0.63,-0.35,0.64
0.64,-0.35,0.64
0.64,-0.34,0.64
0.65,-0.34,0.64
0.66,-0.33,0.64
0.66,-0.32,0.64
0.65,-0.31,0.63
0.63,-0.31,0.62
0.62,-0.31,0.61
0.62,-0.3,0.6
0.62,-0.3,0.58
0.61,-0.29,0.58
0.61,-0.28,0.58
0.6,-0.26,0.59
0.6,-0.24,0.6
0.59,-0.24,0.59
0.57,-0.24,0.57
0.55,-0.24,0.55
0.54,-0.25,0.52
0.54,-0.26,0.5
0.54,-0.27,0.5
0.56,-0.27,0.53
0.58,-0.26,0.64
0.58,-0.25,0.68
0.57,-0.25,0.7
0.55,-0.25,0.69
0.53,-0.24,0.66
0.53,-0.25,0.6
0.54,-0.26,0.55
0.55,-0.27,0.52
0.57,-0.29,0.51
0.57,-0.31,0.53
0.56,-0.33,0.56
0.56,-0.34,0.6
0.57,-0.33,0.66
0.58,-0.33,0.71
0.59,-0.32,0.74
0.59,-0.33,0.74
0.58,-0.34,0.73
0.58,-0.35,0.73
0.57,-0.36,0.73
0.56,-0.35,0.75
0.55,-0.35,0.76
0.54,-0.36,0.77
0.55,-0.36,0.77
0.56,-0.37,0.76
0.56,-0.37,0.76
0.54,-0.38,0.76
0.53,-0.39,0.8
0.54,-0.4,0.83
0.54,-0.4,0.86
0.55,-0.4,0.88
0.56,-0.41,0.9
0.57,-0.41,0.91
0.58,-0.42,0.92
0.6,-0.43,0.93
0.6,-0.43,0.95
0.62,-0.42,0.98
0.63,-0.42,1
0.63,-0.42,1.01
0.63,-0.43,1
0.62,-0.44,0.99
0.61,-0.43,0.99
0.58,-0.42,1
0.55,-0.41,1.01
0.51,-0.4,1.02
0.47,-0.39,1.02
0.44,-0.38,1.03
0.43,-0.37,1.04
0.42,-0.36,1.04
0.4,-0.36,1.05
0.37,-0.36,1.07
0.36,-0.35,1.1
0.36,-0.35,1.16
0.33,-0.34,1.2
0.21,-0.31,1.19
0.17,-0.31,1.16
0.15,-0.32,1.11
0.13,-0.33,1.06
0.11,-0.34,1.02
0.09,-0.35,1
0.06,-0.36,0.99
0.02,-0.38,0.98
-0.04,-0.39,0.97
-0.11,-0.38,0.99
-0.15,-0.36,1.02
-0.18,-0.34,1.05
-0.18,-0.33,1.06
-0.18,-0.32,1.06
-0.17,-0.31,1.06
-0.18,-0.3,1.06
-0.19,-0.3,1.07
-0.18,-0.31,1.06
-0.16,-0.31,1.06
-0.12,-0.31,1.04
-0.08,-0.3,1.02
-0.04,-0.29,0.98
0.01,-0.28,0.94
0.06,-0.28,0.89
0.09,-0.29,0.85
0.13,-0.28,0.81
0.17,-0.26,0.77
0.26,-0.25,0.75
0.32,-0.24,0.73
0.38,-0.24,0.72
