Acc_x,Acc_y,Acc_z
-0.04,0.3,0.01
-0.12,0.24,-0.04
-0.15,0.15,-0.1
-0.15,0.07,-0.14
-0.1,0.02,-0.17
-0.06,0,-0.15
-0.05,-0.05,-0.26
0.04,-0.18,-0.32
0.01,-0.28,-0.37
-0.04,-0.29,-0.41
-0.12,-0.3,-0.45
-0.17,-0.32,-0.47
-0.17,-0.28,-0.49
-0.2,-0.36,-0.52
-0.22,-0.45,-0.59
-0.2,-0.42,-0.68
-0.22,-0.42,-0.74
-0.26,-0.48,-0.8
-0.31,-0.53,-0.86
-0.35,-0.57,-0.92
-0.43,-0.6,-0.94
-0.53,-0.67,-0.94
-0.55,-0.69,-0.92
-0.6,-0.71,-0.91
-0.69,-0.76,-0.89
-0.72,-0.78,-0.82
-0.63,-0.77,-0.78
-0.63,-0.79,-0.73
-0.66,-0.82,-0.68
-0.62,-0.83,-0.61
-0.59,-0.84,-0.5
-0.53,-0.85,-0.42
-0.48,-0.87,-0.29
-0.41,-0.9,-0.23
-0.36,-0.93,-0.17
-0.32,-0.95,-0.12
-0.3,-0.96,-0.08
-0.26,-0.96,-0.02
-0.22,-0.97,0.04
-0.19,-0.97,0.09
-0.16,-0.99,0.13
-0.13,-1.01,0.17
-0.11,-1.03,0.2
-0.09,-1.04,0.24
-0.08,-1.05,0.26
-0.08,-1.07,0.28
-0.07,-1.08,0.3
-0.07,-1.07,0.31
-0.08,-1.06,0.31
-0.09,-1.04,0.3
-0.09,-1.02,0.29
-0.1,-1.02,0.28
-0.11,-1.03,0.27
-0.11,-1.03,0.27
-0.12,-1.01,0.26
-0.13,-1,0.24
-0.13,-1,0.23
-0.12,-1,0.22
-0.13,-1,0.18
-0.16,-0.99,0.17
-0.16,-0.99,0.15
-0.17,-0.98,0.14
-0.17,-0.98,0.12
-0.18,-0.98,0.12
-0.18,-0.98,0.12
-0.19,-0.97,0.11
-0.2,-0.97,0.11
-0.21,-0.97,0.11
-0.21,-0.98,0.09
-0.21,-0.98,0.08
-0.21,-0.99,0.08
-0.21,-0.98,0.08
-0.21,-0.98,0.07
-0.21,-0.98,0.07
-0.21,-0.98,0.06
-0.22,-0.97,0.05
-0.23,-0.97,0.05
-0.24,-0.96,0.05
-0.24,-0.95,0.05
-0.24,-0.95,0.05
-0.24,-0.94,0.04
-0.26,-0.94,0.03
-0.27,-0.93,0.02
-0.27,-0.92,0.01
-0.28,-0.91,-0.01
-0.3,-0.89,-0.05
-0.31,-0.88,-0.07
-0.31,-0.87,-0.09
-0.31,-0.86,-0.11
-0.31,-0.85,-0.13
-0.31,-0.84,-0.15
-0.31,-0.82,-0.15
-0.29,-0.8,-0.16
-0.28,-0.77,-0.16
-0.28,-0.75,-0.15
-0.27,-0.74,-0.15
-0.27,-0.74,-0.15
-0.28,-0.75,-0.15
-0.28,-0.76,-0.15
-0.26,-0.76,-0.14
-0.26,-0.75,-0.13
-0.26,-0.74,-0.12
-0.26,-0.72,-0.13
-0.27,-0.69,-0.14
-0.29,-0.66,-0.15
-0.3,-0.64,-0.16
-0.3,-0.64,-0.15
-0.28,-0.64,-0.15
-0.26,-0.6,-0.15
-0.24,-0.54,-0.14
-0.22,-0.52,-0.11
-0.2,-0.47,-0.08
-0.12,-0.46,-0.04
-0.07,-0.45,0.01
-0.02,-0.42,0.07
0,-0.4,0.13
0,-0.4,0.16
-0.01,-0.4,0.17
-0.01,-0.39,0.2
0,-0.38,0.24
0.03,-0.33,0.29
0.07,-0.27,0.34
0.13,-0.21,0.39
0.19,-0.2,0.4
0.26,-0.24,0.4
0.33,-0.26,0.4
0.37,-0.24,0.41
0.37,-0.17,0.43
0.38,-0.08,0.43
0.42,0,0.42
0.43,0.05,0.45
0.47,0.05,0.47
0.63,0,0.49
0.82,-0.06,0.52
0.93,-0.04,0.56
0.91,0.03,0.59
0.83,0.09,0.59
0.64,0.28,0.6
0.65,0.32,0.57
0.72,0.31,0.58
0.88,0.31,0.64
1.07,0.37,0.74
1.22,0.46,0.82
1.3,0.53,0.85
1.26,0.56,0.82
1.1,0.62,0.83
0.91,0.74,0.89
0.79,0.85,0.91
0.78,0.94,0.94
0.87,1.02,1
1.07,1.04,1.01
1.25,1.01,0.98
1.35,1.04,0.94
1.36,1.07,0.89
1.27,1.09,0.83
1.16,1.13,0.76
1.04,1.13,0.76
0.98,1.12,0.83
1.01,1.16,0.87
1.01,1.25,0.86
0.97,1.34,0.85
0.93,1.4,0.83
0.93,1.42,0.79
0.95,1.52,0.74
0.97,1.48,0.7
0.94,1.44,0.65
0.96,1.44,0.62
0.97,1.41,0.59
0.96,1.37,0.58
0.97,1.35,0.56
0.98,1.3,0.53
0.86,1.25,0.88
0.58,1.3,1.34
0.51,1.36,1.28
0.88,1.17,0.94
1.27,0.99,0.71
1.37,0.88,0.68
1.1,0.71,0.53
0.89,0.83,0.12
1.24,0.99,0.03
1.3,0.9,0.19
0.93,0.93,0.3
0.72,1.01,0.41
0.6,1,0.37
0.59,0.94,0.27
0.56,0.93,0.25
0.52,0.96,0.24
0.5,0.94,0.24
0.58,1,0.1
0.54,0.9,0.07
0.29,0.92,0.04
0.24,0.93,0.07
0.23,0.89,0.08
0.22,0.87,0.04
0.2,0.87,0.04
0.22,0.86,0.04
0.24,0.84,0.02
0.24,0.82,0.01
0.23,0.82,0.01
0.21,0.85,0.01
0.21,0.87,0.01
0.22,0.87,0
0.24,0.88,0
0.25,0.89,0
0.26,0.9,0.01
0.25,0.91,0.02
0.25,0.93,0.03
0.27,0.94,0.04
0.28,0.95,0.05
0.27,0.97,0.06
0.25,0.97,0.06
0.24,0.97,0.07
0.23,0.97,0.08
0.2,0.96,0.11
0.16,0.97,0.16
0.13,1,0.33
0.09,1.01,0.35
0.15,0.97,0.3
0.23,0.96,0.24
0.28,0.96,0.19
0.32,0.98,0.16
0.35,1,0.14
0.36,0.99,0.13
0.35,0.97,0.12
0.33,0.96,0.11
0.34,0.96,0.12
0.32,0.95,0.11
0.3,0.95,0.11
0.25,0.96,0.13
0.22,0.96,0.13
0.24,0.95,0.12
0.24,0.94,0.1
0.24,0.94,0.1
0.25,0.95,0.09
0.27,0.94,0.08
0.28,0.94,0.08
0.26,0.93,0.07
0.24,0.92,0.07
0.23,0.93,0.08
0.24,0.93,0.08
0.25,0.93,0.09
0.28,0.93,0.09
0.31,0.92,0.08
0.3,0.93,0.08
0.29,0.95,0.08
0.27,0.96,0.08
0.27,0.96,0.08
0.27,0.95,0.09
0.26,0.94,0.1
0.26,0.93,0.1
0.26,0.92,0.1
0.26,0.92,0.11
0.27,0.92,0.11
0.27,0.93,0.11
0.27,0.93,0.11
0.26,0.93,0.11
0.26,0.93,0.11
0.26,0.94,0.1
0.25,0.94,0.1
0.25,0.94,0.12
0.25,0.94,0.13
0.25,0.94,0.13
0.24,0.94,0.15
0.25,0.93,0.15
0.26,0.93,0.15
0.28,0.94,0.15
0.28,0.94,0.14
0.28,0.95,0.14
0.29,0.94,0.13
0.3,0.94,0.13
0.29,0.94,0.13
0.28,0.94,0.13
0.28,0.93,0.13
0.28,0.93,0.13
0.28,0.93,0.12
0.28,0.94,0.12
0.29,0.94,0.11
0.29,0.94,0.11
0.29,0.95,0.11
0.28,0.95,0.11
0.29,0.94,0.1
0.29,0.93,0.1
0.29,0.92,0.11
0.29,0.92,0.1
0.29,0.92,0.1
0.28,0.92,0.09
0.28,0.93,0.09
0.29,0.93,0.09
0.29,0.93,0.09
0.3,0.93,0.09
0.29,0.93,0.09
0.29,0.93,0.09
0.3,0.94,0.09
0.31,0.94,0.09
0.32,0.93,0.09
0.32,0.93,0.1
0.33,0.94,0.1
0.33,0.94,0.11
0.34,0.94,0.12
0.34,0.95,0.13
0.33,0.95,0.14
0.34,0.95,0.15
0.36,0.95,0.15
0.35,0.96,0.16
0.34,0.97,0.18
0.34,0.96,0.2
0.34,0.96,0.22
0.35,0.96,0.24
0.37,0.96,0.27
0.39,0.95,0.29
0.41,0.94,0.31
0.42,0.94,0.32
0.44,0.94,0.33
0.47,0.94,0.34
0.5,0.95,0.36
0.55,0.95,0.37
0.61,0.96,0.4
0.65,0.97,0.45
0.66,0.97,0.53
0.65,0.96,0.65
0.71,0.96,0.64
0.73,0.99,0.61
0.76,1.01,0.59
0.82,1,0.62
0.87,1,0.71
0.9,1.02,0.8
0.9,1.06,0.84
0.88,1.08,0.84
0.87,1.1,0.83
0.89,1.12,0.83
0.94,1.13,0.86
1,1.15,0.92
1.05,1.16,1
1.08,1.17,1.06
1.1,1.19,1.08
1.09,1.21,1.06
1.06,1.22,1.04
1.03,1.23,1.05
1.03,1.24,1.09
1.04,1.26,1.15
1.03,1.29,1.19
1.02,1.32,1.21
1.01,1.32,1.2
1.01,1.32,1.19
1.02,1.33,1.19
1.02,1.36,1.15
0.99,1.34,1.12
0.97,1.32,1.1
0.96,1.3,1.08
0.93,1.26,1.04
0.91,1.23,1
0.87,1.19,0.97
0.82,1.16,0.93
0.82,1.1,0.89
0.81,1.01,0.86
0.76,0.95,0.84
0.75,0.88,0.82
0.67,0.82,0.74
0.67,0.77,0.74
0.69,0.72,0.82
0.58,0.66,0.82
0.51,0.6,0.83
0.48,0.56,0.85
0.46,0.52,0.86
0.44,0.48,0.85
0.44,0.45,0.79
0.42,0.39,0.72
0.41,0.32,0.67
0.41,0.29,0.57
0.33,0.23,0.5
0.28,0.14,0.47
0.3,0.12,0.42
0.25,0.06,0.4
0.29,0.1,0.33
0.24,0.08,0.31
0.19,0.08,0.25
0.14,0.01,0.2
0.1,-0.06,0.12
0.06,-0.06,0.02
0.03,-0.1,-0.05
0.05,-0.16,-0.1
0.09,-0.16,-0.15
0.06,-0.09,-0.19
-0.02,-0.1,-0.26
-0.09,-0.11,-0.41
-0.22,-0.16,-0.55
-0.29,-0.22,-0.63
-0.27,-0.27,-0.7
-0.3,-0.28,-0.76
-0.36,-0.28,-0.76
-0.46,-0.33,-0.75
-0.63,-0.42,-0.79
-0.78,-0.49,-0.87
-0.85,-0.52,-0.91
-0.92,-0.56,-0.89
-0.95,-0.62,-0.87
-0.94,-0.66,-0.86
-0.95,-0.7,-0.84
-0.95,-0.76,-0.7
-0.87,-0.8,-0.62
-0.83,-0.84,-0.54
-0.77,-0.86,-0.46
-0.69,-0.87,-0.36
-0.6,-0.88,-0.28
-0.54,-0.92,-0.22
-0.49,-0.97,-0.15
-0.45,-0.99,-0.09
-0.4,-0.99,-0.03
-0.35,-0.98,0.02
-0.28,-0.99,0.1
-0.23,-1,0.18
-0.18,-1.01,0.24
-0.13,-1.01,0.27
-0.1,-1.01,0.29
-0.07,-1.01,0.32
-0.04,-1,0.33
-0.03,-0.98,0.34
-0.03,-0.96,0.35
-0.03,-0.96,0.35
-0.02,-0.97,0.34
-0.02,-0.97,0.34
-0.02,-0.97,0.32
-0.04,-0.98,0.3
-0.07,-0.97,0.3
-0.09,-0.98,0.3
-0.14,-0.98,0.3
-0.16,-0.97,0.29
-0.17,-0.97,0.28
-0.17,-0.97,0.27
-0.18,-0.96,0.27
-0.19,-0.95,0.26
-0.2,-0.95,0.25
-0.22,-0.94,0.23
-0.23,-0.94,0.21
-0.24,-0.94,0.21
-0.25,-0.95,0.21
-0.26,-0.96,0.2
-0.26,-0.95,0.2
-0.26,-0.95,0.18
-0.26,-0.95,0.17
-0.27,-0.96,0.17
-0.27,-0.97,0.17
-0.25,-0.97,0.16
-0.25,-0.98,0.15
-0.25,-0.98,0.15
-0.23,-0.98,0.16
-0.22,-0.98,0.16
-0.21,-0.97,0.16
-0.21,-0.98,0.16
-0.21,-0.98,0.17
-0.21,-0.99,0.18
-0.2,-0.99,0.18
-0.19,-0.99,0.17
-0.19,-0.99,0.17
-0.19,-0.99,0.17
-0.2,-0.99,0.17
-0.19,-0.98,0.18
-0.18,-0.97,0.17
-0.18,-0.97,0.16
-0.18,-0.97,0.14
-0.19,-0.97,0.13
-0.2,-0.97,0.12
-0.2,-0.98,0.11
-0.2,-0.98,0.1
-0.2,-0.98,0.09
-0.2,-0.98,0.07
-0.21,-0.97,0.05
-0.23,-0.97,0.04
-0.25,-0.97,0.02
-0.26,-0.96,0
-0.27,-0.94,-0.03
-0.29,-0.92,-0.05
-0.29,-0.89,-0.07
-0.29,-0.86,-0.09
-0.3,-0.84,-0.11
-0.3,-0.85,-0.13
-0.28,-0.84,-0.14
-0.27,-0.82,-0.15
-0.29,-0.8,-0.17
-0.31,-0.78,-0.18
-0.32,-0.75,-0.2
-0.33,-0.71,-0.21
-0.33,-0.67,-0.21
-0.33,-0.63,-0.22
-0.32,-0.61,-0.23
-0.32,-0.59,-0.22
-0.31,-0.58,-0.22
-0.28,-0.54,-0.21
-0.26,-0.5,-0.21
-0.25,-0.44,-0.21
-0.25,-0.37,-0.21
-0.25,-0.31,-0.21
-0.25,-0.26,-0.21
-0.25,-0.22,-0.19
-0.23,-0.18,-0.16
-0.19,-0.14,-0.11
-0.17,-0.1,-0.05
-0.16,-0.05,-0.01
-0.13,0,0.02
-0.15,0.05,0.04
-0.14,0.11,0.04
-0.14,0.13,0.05
-0.13,0.09,0.16
0,0.09,0.24
0.07,0.15,0.29
0.1,0.23,0.33
0.12,0.33,0.34
0.11,0.44,0.33
0.12,0.54,0.31
0.14,0.57,0.31
0.17,0.52,0.4
0.36,0.52,0.57
0.7,0.64,0.73
0.96,0.78,0.79
1,0.86,0.79
0.96,0.93,0.77
0.93,1.1,0.75
0.84,1.21,0.77
0.7,1.24,0.85
0.6,1.3,0.97
0.69,1.37,1.02
0.85,1.5,1.05
0.95,1.63,1.15
1.05,1.78,1.2
1.07,1.88,1.15
1.02,1.94,1.05
0.92,1.96,1.03
0.81,1.96,1.04
0.8,2,0.99
0.88,2.14,0.94
0.95,2.17,0.85
1.02,2.19,0.79
1.11,2.17,0.77
1.15,2.11,0.77
1.14,2.04,0.75
1.07,2,0.71
0.97,1.95,0.68
0.89,1.9,0.66
0.84,1.85,0.67
0.81,1.81,0.68
0.78,1.77,0.67
0.74,1.7,0.65
0.76,1.65,0.66
0.79,1.66,0.69
0.79,1.62,0.69
0.81,1.55,0.68
0.83,1.48,0.67
0.84,1.4,0.66
0.82,1.33,0.65
0.82,1.26,0.64
0.8,1.2,0.65
0.76,1.14,0.66
0.73,1.1,0.66
0.7,1.05,0.67
0.66,0.99,0.66
0.61,0.92,0.65
0.59,0.89,0.64
0.57,0.88,0.62
0.55,0.9,0.59
0.52,0.92,0.56
0.48,0.93,0.54
0.43,0.95,0.51
0.38,0.97,0.48
0.34,0.98,0.44
0.3,1,0.39
0.28,1.03,0.33
0.25,1.05,0.29
0.2,1.04,0.24
0.17,1.05,0.19
0.17,1.06,0.15
0.16,1.07,0.1
0.13,1.07,0.07
0.1,1.07,0.04
0.06,1.05,0.02
0.01,1.04,0
-0.02,1.03,-0.01
-0.06,1.03,-0.02
-0.09,1.02,-0.03
-0.1,1.02,-0.05
-0.11,1.01,-0.05
-0.12,1,-0.05
-0.18,0.97,-0.05
-0.19,0.97,-0.05
-0.19,0.98,-0.05
-0.18,1,-0.06
-0.16,1,-0.07
-0.16,0.99,-0.08
-0.14,0.98,-0.08
-0.11,0.98,-0.07
-0.08,0.98,-0.07
-0.12,0.97,-0.08
-0.15,0.92,-0.07
-0.11,0.95,-0.04
-0.12,1.02,-0.02
-0.13,1.01,0
-0.11,1,0.01
-0.07,1,0
-0.04,1,0
0,0.99,0.01
0.01,0.98,0.02
0.02,0.97,0.04
0.02,0.97,0.05
0.02,0.97,0.06
0.04,0.97,0.08
0.05,0.97,0.09
0.06,0.95,0.12
0.08,0.95,0.12
0.13,0.94,0.12
0.16,0.95,0.14
0.19,0.96,0.14
0.21,0.95,0.14
0.22,0.96,0.15
0.25,0.97,0.15
0.26,0.98,0.17
0.26,0.97,0.18
0.26,0.96,0.18
0.27,0.95,0.19
0.28,0.95,0.2
0.28,0.94,0.21
0.28,0.93,0.21
0.27,0.92,0.22
0.28,0.93,0.23
0.3,0.93,0.23
0.29,0.92,0.23
0.29,0.93,0.24
0.29,0.93,0.24
0.28,0.93,0.24
0.28,0.94,0.24
0.27,0.95,0.24
0.27,0.95,0.24
0.27,0.96,0.23
0.28,0.97,0.23
0.29,0.99,0.2
0.29,1.05,0.19
0.28,1.07,0.18
0.27,1.08,0.16
0.26,1.07,0.15
0.25,1.05,0.13
0.25,1.02,0.12
0.25,1,0.11
0.25,0.98,0.1
0.25,0.97,0.09
0.25,0.96,0.1
0.25,0.94,0.1
0.25,0.92,0.1
0.26,0.91,0.1
0.26,0.91,0.12
0.25,0.92,0.13
0.24,0.94,0.15
0.24,0.95,0.16
0.26,0.97,0.18
0.28,0.98,0.2
0.3,0.99,0.23
0.32,1.01,0.26
0.31,1.03,0.3
0.3,1.03,0.37
0.34,1.05,0.43
0.37,1.08,0.49
0.39,1.1,0.59
0.47,1.14,0.64
0.5,1.15,0.67
0.54,1.15,0.67
0.6,1.15,0.69
0.68,1.17,0.75
0.73,1.23,0.89
0.81,1.26,0.94
0.84,1.26,0.92
0.84,1.3,0.95
0.95,1.33,0.94
1.06,1.37,0.92
1.12,1.43,0.92
1.18,1.48,0.9
1.21,1.54,0.88
1.2,1.61,0.9
1.14,1.68,0.94
1.06,1.72,0.99
0.98,1.74,1
1,1.74,1.02
1.04,1.75,1.07
0.99,1.77,1.07
0.97,1.76,1.06
0.94,1.75,1.06
0.96,1.72,1.08
1,1.68,1.11
0.97,1.66,1.12
0.97,1.55,1.11
1.01,1.5,1.1
1,1.45,1.07
0.84,1.43,1.04
0.85,1.39,1.04
0.9,1.32,1.05
0.84,1.24,1.05
0.83,1.18,1
0.85,1.15,0.96
0.85,1.1,0.91
0.8,1.06,0.86
0.75,1.02,0.8
0.7,0.98,0.75
0.65,0.93,0.7
0.58,0.88,0.62
0.49,0.81,0.58
0.5,0.73,0.58
0.49,0.68,0.57
0.47,0.64,0.51
0.54,0.66,0.4
0.59,0.69,0.27
0.53,0.57,0.16
0.46,0.47,0.15
0.42,0.43,0.11
0.37,0.38,0.02
0.32,0.31,-0.06
0.2,0.26,-0.07
0.17,0.21,-0.11
0.06,0.12,-0.16
-0.07,-0.04,-0.24
-0.09,-0.07,-0.28
-0.15,-0.02,-0.29
-0.18,-0.07,-0.32
-0.17,-0.04,-0.38
-0.26,-0.07,-0.39
-0.34,-0.16,-0.44
-0.39,-0.18,-0.5
-0.45,-0.29,-0.52
-0.46,-0.41,-0.58
-0.45,-0.44,-0.62
-0.4,-0.51,-0.64
-0.39,-0.6,-0.71
-0.41,-0.68,-0.77
-0.45,-0.74,-0.8
-0.49,-0.79,-0.84
-0.53,-0.84,-0.85
-0.52,-0.84,-0.86
-0.53,-0.85,-0.86
-0.53,-0.88,-0.82
-0.46,-0.86,-0.79
-0.43,-0.88,-0.75
-0.41,-0.88,-0.72
-0.4,-0.91,-0.6
-0.35,-0.93,-0.53
-0.33,-0.94,-0.46
-0.33,-0.94,-0.39
-0.32,-0.94,-0.33
-0.3,-0.96,-0.3
-0.28,-0.97,-0.26
-0.24,-0.99,-0.22
-0.22,-1,-0.17
-0.21,-0.99,-0.13
-0.21,-0.99,-0.08
-0.2,-0.99,-0.05
-0.18,-0.99,-0.03
-0.17,-0.99,-0.02
-0.16,-0.99,0.01
-0.15,-1,0.04
-0.14,-0.99,0.07
-0.14,-0.99,0.1
-0.14,-0.99,0.11
-0.13,-1,0.11
-0.12,-0.99,0.09
-0.13,-0.98,0.09
-0.14,-0.98,0.1
-0.14,-0.97,0.12
-0.13,-0.97,0.12
-0.14,-0.97,0.12
-0.15,-0.98,0.11
-0.17,-0.98,0.1
-0.18,-0.98,0.09
-0.19,-0.98,0.09
-0.2,-0.99,0.09
-0.2,-1,0.08
-0.21,-1.01,0.07
-0.23,-1.02,0.06
-0.24,-1.03,0.06
-0.24,-1.04,0.06
-0.24,-1.03,0.06
-0.24,-1.03,0.05
-0.24,-1.02,0.05
-0.24,-1.01,0.05
-0.24,-1.01,0.05
-0.23,-1,0.05
-0.21,-1,0.05
-0.2,-1,0.05
-0.2,-0.99,0.05
-0.19,-0.98,0.05
-0.19,-0.98,0.06
-0.19,-0.98,0.07
-0.18,-0.97,0.08
-0.18,-0.98,0.09
-0.18,-0.98,0.09
-0.19,-0.99,0.1
-0.19,-1,0.11
-0.2,-1,0.12
-0.21,-1,0.12
-0.21,-1,0.11
-0.21,-1,0.12
-0.2,-1.01,0.13
-0.19,-1.01,0.14
-0.19,-1.01,0.15
-0.19,-1,0.15
-0.19,-1,0.15
-0.19,-1,0.15
-0.18,-0.99,0.15
-0.18,-0.99,0.14
-0.18,-0.99,0.14
-0.18,-0.99,0.14
-0.17,-0.99,0.13
-0.17,-0.99,0.13
-0.17,-0.99,0.13
-0.18,-0.99,0.13
-0.19,-0.99,0.13
-0.2,-0.99,0.13
-0.19,-0.98,0.13
-0.18,-0.97,0.13
-0.18,-0.98,0.14
-0.17,-0.99,0.14
-0.17,-0.98,0.14
-0.17,-0.98,0.14
-0.18,-0.98,0.14
-0.18,-0.98,0.14
-0.19,-0.99,0.14
-0.19,-0.99,0.14
-0.18,-1,0.14
-0.18,-1,0.14
-0.17,-1,0.14
-0.17,-0.99,0.14
-0.16,-0.99,0.15
-0.16,-0.98,0.16
-0.16,-0.98,0.17
-0.15,-0.98,0.17
-0.15,-0.98,0.16
-0.16,-0.98,0.15
-0.17,-0.98,0.15
-0.18,-0.97,0.16
-0.18,-0.96,0.17
-0.18,-0.96,0.17
-0.19,-0.96,0.17
-0.19,-0.96,0.17
-0.2,-0.96,0.17
-0.2,-0.96,0.17
-0.19,-0.96,0.16
-0.19,-0.96,0.14
-0.2,-0.96,0.11
-0.21,-0.96,0.05
-0.21,-0.96,0.06
-0.2,-0.96,0.06
-0.2,-0.95,0.06
-0.2,-0.93,0.06
-0.2,-0.92,0.06
-0.2,-0.91,0.06
-0.19,-0.9,0.06
-0.19,-0.89,0.06
-0.19,-0.88,0.04
-0.2,-0.87,0.02
-0.21,-0.86,-0.01
-0.21,-0.84,-0.03
-0.22,-0.83,-0.06
-0.24,-0.81,-0.09
-0.26,-0.79,-0.1
-0.26,-0.77,-0.11
-0.25,-0.74,-0.11
-0.24,-0.7,-0.12
-0.25,-0.67,-0.14
-0.27,-0.65,-0.15
-0.32,-0.64,-0.17
-0.38,-0.64,-0.18
-0.43,-0.64,-0.19
-0.45,-0.64,-0.21
-0.45,-0.64,-0.22
-0.43,-0.65,-0.21
-0.37,-0.58,-0.19
-0.34,-0.55,-0.17
-0.33,-0.5,-0.15
-0.31,-0.46,-0.13
-0.3,-0.43,-0.12
-0.28,-0.43,-0.11
-0.26,-0.43,-0.11
-0.23,-0.44,-0.12
-0.19,-0.44,-0.11
-0.14,-0.39,-0.09
-0.07,-0.35,-0.08
0,-0.29,-0.08
0.05,-0.24,-0.09
0.08,-0.23,-0.12
0.09,-0.24,-0.11
0.1,-0.25,-0.08
0.16,-0.21,-0.01
0.25,-0.13,0.06
0.33,-0.05,0.11
0.36,-0.01,0.15
0.37,0.02,0.18
0.39,0.06,0.18
0.42,0.07,0.18
0.49,0.12,0.22
0.58,0.2,0.26
0.69,0.29,0.54
0.91,0.5,0.69
0.94,0.56,0.77
0.93,0.58,0.78
0.9,0.57,0.76
0.87,0.56,0.74
0.89,0.59,0.73
0.96,0.69,0.76
1.03,0.8,0.86
1,0.92,0.95
0.96,1,1
0.98,1.03,1.03
1.02,1.13,1.03
1.02,1.18,0.98
1.01,1.24,0.94
1.04,1.34,0.92
1.1,1.48,0.94
1.38,1.8,0.98
1.39,1.92,1
1.1,1.81,0.97
1.02,1.85,0.95
1.07,1.95,0.93
1.12,1.97,0.86
1.1,1.94,0.76
1.08,1.96,0.68
1.07,1.96,0.63
1.04,1.92,0.56
1.06,1.95,0.58
1.03,1.95,0.59
1.03,1.97,0.62
1.05,1.97,0.69
1.04,1.94,0.76
0.98,1.83,0.91
0.42,1.71,1.26
0.27,1.7,1.3
1.04,1.66,0.87
1.29,1.5,0.48
1.07,1.32,0.45
0.86,1.21,0.65
0.66,1.18,0.77
0.61,1.16,0.87
0.62,1.1,0.86
0.55,1.06,0.8
0.46,1.04,0.79
0.39,1.01,0.78
0.38,0.98,0.76
0.39,0.96,0.72
0.39,0.93,0.68
0.39,0.92,0.65
0.39,0.92,0.62
0.39,0.93,0.6
0.39,0.94,0.57
0.39,0.94,0.51
0.37,0.94,0.47
0.35,0.96,0.45
0.34,0.98,0.44
0.31,1,0.43
0.27,1.03,0.39
0.29,1,0.33
0.27,1.02,0.3
0.2,1.09,0.28
0.22,1.1,0.21
0.26,1.09,0.14
0.25,1.09,0.13
0.18,1.15,0.11
0.17,1.18,0.06
0.21,1.13,-0.02
0.23,1.12,-0.07
0.19,1.12,-0.07
0.15,1.1,-0.06
0.1,1.1,-0.07
0.07,1.07,-0.08
0.06,1.03,-0.08
0.05,1.02,-0.11
0.07,1.02,-0.11
0.06,1.02,-0.1
0.09,1.02,-0.07
0.14,0.98,-0.05
0.18,0.93,-0.08
0.15,0.94,-0.08
0.17,0.93,-0.09
0.18,0.93,-0.1
0.18,0.91,-0.1
0.2,0.89,-0.09
0.21,0.86,-0.06
0.23,0.84,-0.03
0.24,0.82,0
0.23,0.82,0.02
0.23,0.82,0.04
0.23,0.82,0.05
0.24,0.83,0.06
0.25,0.84,0.06
0.26,0.85,0.07
0.27,0.86,0.08
0.28,0.87,0.1
0.29,0.89,0.11
0.3,0.89,0.12
0.31,0.89,0.13
0.32,0.89,0.14
0.32,0.88,0.15
0.33,0.88,0.15
0.33,0.89,0.16
0.34,0.9,0.17
0.34,0.91,0.17
0.33,0.91,0.18
0.33,0.92,0.18
0.33,0.92,0.17
0.34,0.91,0.17
0.35,0.92,0.18
0.35,0.94,0.19
0.35,0.97,0.2
0.34,0.99,0.2
0.34,0.99,0.2
0.34,0.99,0.2
0.33,0.98,0.2
0.33,0.98,0.19
0.34,0.97,0.2
0.32,0.96,0.24
0.3,0.96,0.26
0.33,0.96,0.25
0.36,0.95,0.22
0.36,0.94,0.21
0.35,0.94,0.21
0.35,0.93,0.2
0.36,0.92,0.19
0.36,0.91,0.19
0.36,0.91,0.18
0.35,0.9,0.18
0.35,0.9,0.19
0.34,0.9,0.19
0.34,0.91,0.18
0.31,0.9,0.18
0.32,0.9,0.17
0.33,0.89,0.15
0.34,0.9,0.14
0.34,0.91,0.13
0.34,0.92,0.14
0.34,0.92,0.15
0.35,0.93,0.15
0.35,0.94,0.16
0.35,0.95,0.17
0.36,0.95,0.17
0.35,0.95,0.18
0.35,0.96,0.18
0.35,0.96,0.18
0.34,0.95,0.18
0.34,0.94,0.17
0.34,0.93,0.17
0.33,0.92,0.17
0.33,0.91,0.17
0.33,0.91,0.17
0.32,0.91,0.17
0.32,0.91,0.17
0.32,0.91,0.17
0.31,0.91,0.17
0.31,0.91,0.17
0.31,0.91,0.16
0.31,0.91,0.14
0.31,0.91,0.13
0.31,0.91,0.12
0.31,0.91,0.12
0.31,0.91,0.12
0.31,0.91,0.11
0.31,0.91,0.11
0.32,0.9,0.1
0.34,0.91,0.1
0.33,0.91,0.1
0.33,0.91,0.11
0.34,0.9,0.12
0.35,0.9,0.12
0.35,0.89,0.13
0.35,0.88,0.14
0.34,0.87,0.15
0.34,0.87,0.15
0.33,0.87,0.16
0.34,0.87,0.17
0.34,0.87,0.17
0.34,0.88,0.18
0.35,0.88,0.18
0.35,0.89,0.19
0.35,0.89,0.19
0.35,0.9,0.19
0.35,0.9,0.2
0.35,0.92,0.22
0.38,0.92,0.21
0.39,0.92,0.21
0.39,0.92,0.21
0.39,0.92,0.22
0.39,0.92,0.22
0.4,0.93,0.22
0.4,0.93,0.23
0.4,0.93,0.24
0.41,0.93,0.26
0.45,0.93,0.29
0.49,0.94,0.32
0.51,0.96,0.35
0.52,0.97,0.41
0.55,0.98,0.49
0.6,0.98,0.57
0.66,0.98,0.64
0.7,0.98,0.68
0.71,1,0.71
0.68,1.04,0.74
0.68,1.08,0.8
0.7,1.11,0.9
0.73,1.15,1.01
0.72,1.18,1.05
0.68,1.18,1.05
0.67,1.18,1.06
0.7,1.18,1.05
0.86,1.23,1.05
0.89,1.28,1.08
0.9,1.32,1.13
0.92,1.33,1.18
0.94,1.35,1.17
0.96,1.37,1.15
0.99,1.39,1.15
1.04,1.41,1.17
1.05,1.41,1.21
1.04,1.4,1.28
1.03,1.38,1.34
1.04,1.35,1.36
1.06,1.32,1.33
1.08,1.29,1.26
1.08,1.25,1.16
1.1,1.25,1.1
1.12,1.26,1.1
1.1,1.25,1.11
1.06,1.2,1.09
1.02,1.14,1.07
1,1.08,1.09
0.98,1.04,1.1
0.94,1.01,1.07
0.88,0.98,1.08
0.82,0.94,1.13
0.77,0.89,1.09
0.71,0.76,0.98
0.69,0.72,0.89
0.64,0.68,0.83
0.58,0.64,0.79
0.53,0.57,0.75
0.48,0.48,0.75
0.44,0.4,0.77
0.41,0.39,0.75
0.37,0.42,0.71
0.3,0.39,0.65
0.23,0.3,0.57
0.2,0.24,0.5
0.18,0.16,0.48
0.19,0.11,0.44
0.25,0.15,0.39
0.26,0.13,0.35
0.23,0.12,0.28
0.22,0.13,0.2
0.16,-0.09,0.16
0.11,0.08,0.21
-0.04,0.28,0.12
-0.25,-0.22,-0.06
-0.16,-0.17,-0.18
-0.1,0.17,-0.23
-0.04,0.07,-0.25
0.08,-0.04,-0.41
-0.07,-0.12,-0.47
-0.08,-0.22,-0.59
-0.06,-0.22,-0.67
-0.14,-0.36,-0.73
-0.17,-0.49,-0.79
-0.16,-0.52,-0.83
-0.2,-0.54,-0.85
-0.23,-0.52,-0.86
-0.24,-0.62,-0.86
-0.25,-0.69,-0.84
-0.29,-0.7,-0.79
-0.35,-0.73,-0.76
-0.4,-0.76,-0.75
-0.45,-0.81,-0.74
-0.47,-0.84,-0.72
-0.47,-0.85,-0.68
-0.46,-0.86,-0.62
-0.45,-0.86,-0.56
-0.43,-0.87,-0.5
-0.42,-0.91,-0.45
-0.39,-0.93,-0.41
-0.37,-0.94,-0.36
-0.36,-0.94,-0.31
-0.34,-0.96,-0.24
-0.32,-0.99,-0.17
-0.27,-1.04,-0.03
-0.24,-1.03,0.02
-0.21,-1.01,0.06
-0.19,-0.99,0.09
-0.17,-0.97,0.1
-0.16,-0.96,0.09
-0.17,-0.98,0.08
-0.18,-0.99,0.07
-0.18,-0.99,0.06
-0.17,-0.99,0.05
-0.17,-0.98,0.06
-0.18,-0.99,0.09
-0.18,-0.97,0.11
-0.18,-0.96,0.11
-0.19,-0.97,0.11
-0.19,-0.99,0.11
-0.19,-0.99,0.11
-0.2,-0.98,0.11
-0.2,-0.98,0.1
-0.21,-0.98,0.1
-0.22,-0.99,0.1
-0.23,-0.99,0.1
-0.23,-0.98,0.09
-0.24,-0.97,0.07
-0.25,-0.97,0.06
-0.26,-0.97,0.06
-0.27,-0.98,0.06
-0.27,-0.98,0.05
-0.26,-0.96,0.04
-0.26,-0.95,0.03
-0.26,-0.95,0.01
-0.26,-0.96,-0.01
-0.26,-0.97,-0.02
-0.26,-0.99,-0.03
-0.26,-1,-0.04
-0.24,-0.99,-0.05
-0.24,-0.98,-0.05
-0.25,-0.97,-0.04
-0.27,-0.98,-0.03
-0.27,-0.98,-0.02
-0.26,-0.98,-0.02
-0.25,-0.97,-0.03
-0.25,-0.97,-0.03
-0.25,-0.95,-0.03
-0.24,-0.94,-0.04
-0.24,-0.94,-0.05
-0.24,-0.93,-0.05
-0.23,-0.92,-0.06
-0.22,-0.91,-0.07
-0.22,-0.9,-0.09
-0.22,-0.89,-0.11
-0.22,-0.86,-0.14
-0.21,-0.85,-0.18
-0.19,-0.83,-0.19
-0.17,-0.82,-0.2
-0.16,-0.8,-0.2
-0.16,-0.77,-0.21
-0.16,-0.75,-0.21
-0.17,-0.73,-0.22
-0.2,-0.72,-0.22
-0.22,-0.71,-0.23
-0.23,-0.7,-0.23
-0.24,-0.7,-0.23
-0.24,-0.69,-0.23
-0.24,-0.67,-0.22
-0.24,-0.64,-0.2
-0.24,-0.62,-0.19
-0.23,-0.6,-0.18
-0.22,-0.58,-0.17
-0.19,-0.56,-0.17
-0.16,-0.51,-0.16
-0.14,-0.48,-0.14
-0.12,-0.45,-0.14
-0.11,-0.42,-0.15
-0.1,-0.38,-0.15
-0.1,-0.35,-0.14
-0.09,-0.34,-0.12
-0.08,-0.33,-0.1
-0.06,-0.3,-0.05
-0.01,-0.23,0.01
0,-0.17,0.01
-0.01,-0.13,0
-0.02,-0.15,0
-0.05,-0.14,0.04
-0.03,-0.07,0.12
0.02,0.02,0.22
0.07,0.13,0.28
0.09,0.2,0.31
0.12,0.27,0.31
0.16,0.26,0.31
0.21,0.18,0.29
0.28,0.23,0.29
0.36,0.35,0.38
0.5,0.5,0.5
0.63,0.68,0.61
0.68,0.83,0.71
0.65,0.96,0.76
0.62,1.07,0.73
0.63,1.15,0.66
0.68,1.22,0.61
0.7,1.24,0.67
0.76,1.32,0.78
0.83,1.55,0.89
0.82,1.68,0.95
0.82,1.76,0.98
0.81,2.04,0.8
0.83,2.19,0.74
0.77,2.31,0.68
0.73,2.44,0.66
0.74,2.6,0.65
0.82,2.74,0.59
0.94,2.89,0.56
1.03,2.98,0.56
1.04,2.97,0.55
1,2.95,0.55
0.96,2.91,0.55
0.91,2.88,0.55
0.88,2.84,0.58
0.86,2.78,0.64
0.85,2.7,0.7
0.87,2.58,0.71
0.84,2.42,0.67
0.84,2.23,0.58
0.87,2.08,0.5
0.81,2.01,0.49
0.67,1.98,0.54
0.53,1.93,0.59
0.48,1.87,0.59
0.49,1.76,0.56
0.56,1.61,0.55
0.66,1.46,0.56
0.73,1.23,0.58
0.7,1.14,0.54
0.64,1.04,0.51
0.59,0.96,0.49
0.54,0.88,0.51
0.51,0.8,0.54
0.48,0.76,0.59
0.44,0.75,0.63
0.4,0.75,0.64
0.36,0.76,0.62
0.33,0.77,0.58
0.31,0.77,0.53
0.29,0.76,0.49
0.26,0.73,0.47
0.21,0.69,0.46
0.17,0.69,0.44
0.16,0.71,0.4
0.16,0.74,0.33
0.21,0.77,0.27
0.24,0.78,0.22
0.21,0.8,0.19
0.16,0.83,0.17
0.09,0.87,0.13
0.05,0.92,0.06
0.03,0.97,-0.01
0.03,1.02,-0.05
0.02,1.05,-0.07
-0.01,1.06,-0.08
-0.05,1.09,-0.09
-0.08,1.15,-0.1
-0.13,1.2,-0.12
-0.19,1.21,-0.16
-0.21,1.2,-0.2
-0.19,1.18,-0.21
-0.17,1.18,-0.19
-0.17,1.2,-0.19
-0.17,1.2,-0.21
-0.18,1.14,-0.23
-0.23,1.05,-0.24
-0.3,0.97,-0.24
-0.35,0.93,-0.22
-0.36,0.93,-0.21
-0.33,0.95,-0.22
-0.27,0.94,-0.23
-0.26,0.95,-0.21
-0.3,0.97,-0.19
-0.34,0.99,-0.2
-0.36,0.97,-0.22
-0.38,0.95,-0.22
-0.37,0.94,-0.21
-0.36,0.94,-0.17
-0.32,0.98,-0.15
-0.29,1.07,-0.16
-0.3,1.09,-0.16
-0.3,1.09,-0.15
-0.27,1.08,-0.12
-0.21,1.05,-0.1
-0.17,1.01,-0.08
-0.14,1,-0.06
-0.14,1.02,-0.05
-0.14,1.05,-0.05
-0.13,1.06,-0.06
-0.12,1.06,-0.06
-0.1,1.06,-0.04
-0.09,1.06,-0.03
-0.09,1.05,0
-0.09,1.04,0.03
-0.07,1.02,0.07
-0.05,0.99,0.1
-0.02,0.99,0.12
0.01,1,0.13
0.03,1,0.12
0.05,0.98,0.11
0.06,0.98,0.09
0.07,0.97,0.07
0.08,0.98,0.06
0.09,0.98,0.05
0.11,0.96,0.04
0.15,0.96,0.05
0.19,0.98,0.06
0.2,1,0.05
0.21,1,0.04
0.23,0.98,0.02
0.26,0.97,0.01
0.29,0.95,0.01
0.33,0.94,0.02
0.37,0.93,0.05
0.41,0.93,0.06
0.45,0.93,0.06
0.5,0.93,0.07
0.54,0.96,0.09
0.55,0.98,0.11
0.52,0.98,0.16
0.48,0.98,0.21
0.47,0.99,0.26
0.49,1,0.31
0.58,1.01,0.3
0.72,1.03,0.26
0.82,1.07,0.25
0.9,1.08,0.27
0.91,1.08,0.33
0.86,1.1,0.4
0.81,1.12,0.48
0.85,1.15,0.53
0.88,1.18,0.49
0.96,1.25,0.46
1.11,1.29,0.44
1.2,1.31,0.47
1.23,1.35,0.6
1.24,1.41,0.74
1.25,1.5,0.8
1.26,1.55,0.76
1.28,1.57,0.69
1.41,1.58,0.65
1.64,1.6,0.69
1.81,1.66,0.78
1.86,1.75,0.85
1.79,1.83,0.89
1.68,1.89,0.95
1.57,1.94,1
1.53,2,1.02
1.52,2.03,1.05
1.49,2.02,1.08
1.5,1.99,1.09
1.53,1.96,1.09
1.53,1.9,1.06
1.47,1.82,1.01
1.39,1.73,0.98
1.3,1.64,0.93
1.2,1.55,0.89
1.09,1.47,0.84
0.87,1.24,0.81
0.82,1.1,0.78
0.8,0.97,0.76
0.77,0.88,0.76
0.72,0.83,0.72
0.66,0.77,0.65
0.6,0.72,0.6
0.54,0.72,0.57
0.49,0.71,0.56
0.47,0.69,0.57
0.44,0.68,0.56
0.41,0.64,0.5
0.44,0.61,0.44
0.41,0.56,0.36
0.44,0.53,0.26
0.5,0.51,0.21
0.46,0.45,0.25
0.45,0.52,0.21
0.52,0.48,0.11
0.51,0.29,0.07
0.08,-0.63,-0.31
0.25,-0.14,-0.53
0.43,1.06,-0.18
0.18,0.65,-0.13
0.24,0.22,-0.35
0.09,-0.02,-0.4
-0.13,-0.15,-0.39
-0.2,-0.23,-0.44
-0.24,-0.3,-0.46
-0.26,-0.35,-0.48
-0.31,-0.39,-0.52
-0.37,-0.42,-0.59
-0.39,-0.47,-0.65
-0.41,-0.51,-0.66
-0.42,-0.54,-0.69
-0.43,-0.6,-0.73
-0.46,-0.66,-0.75
-0.49,-0.68,-0.76
-0.5,-0.71,-0.8
-0.5,-0.73,-0.83
-0.51,-0.77,-0.85
-0.52,-0.8,-0.83
-0.51,-0.82,-0.8
-0.49,-0.85,-0.79
-0.47,-0.88,-0.78
-0.43,-0.88,-0.75
-0.39,-0.87,-0.69
-0.36,-0.89,-0.62
-0.33,-0.93,-0.57
-0.29,-0.95,-0.53
-0.26,-0.97,-0.49
-0.24,-1,-0.38
-0.22,-1.04,-0.34
-0.22,-1.05,-0.3
-0.21,-1.05,-0.27
-0.19,-1.05,-0.23
-0.16,-1.04,-0.17
-0.13,-1.03,-0.11
-0.1,-1.01,-0.05
-0.09,-0.99,0.01
-0.07,-0.97,0.04
-0.05,-0.96,0.04
-0.07,-0.96,0.02
-0.1,-0.99,0.01
-0.12,-1.02,0.02
-0.12,-1.03,0.05
-0.12,-1.03,0.11
-0.13,-1.02,0.16
-0.13,-1.01,0.18
-0.13,-1.01,0.18
-0.13,-1.01,0.19
-0.12,-1,0.18
-0.1,-1.01,0.17
-0.1,-1.02,0.17
-0.09,-1.03,0.18
-0.08,-1.04,0.18
-0.07,-1.04,0.17
-0.08,-1.03,0.16
-0.08,-1.03,0.16
-0.09,-1.02,0.16
-0.1,-1.02,0.16
-0.1,-1.02,0.14
-0.1,-1.02,0.13
-0.1,-1.03,0.12
-0.1,-1.03,0.11
-0.11,-1.02,0.1
-0.12,-1.01,0.09
-0.13,-1.01,0.08
-0.13,-1,0.07
-0.13,-0.99,0.06
-0.14,-0.98,0.05
-0.15,-0.97,0.05
-0.16,-0.96,0.04
-0.16,-0.96,0.02
-0.16,-0.94,-0.01
-0.17,-0.93,-0.03
-0.19,-0.93,-0.05
-0.2,-0.92,-0.08
-0.2,-0.92,-0.11
-0.2,-0.91,-0.14
-0.21,-0.89,-0.16
-0.22,-0.87,-0.19
-0.22,-0.85,-0.21
-0.26,-0.82,-0.24
-0.25,-0.77,-0.32
-0.27,-0.76,-0.32
-0.27,-0.75,-0.33
-0.26,-0.74,-0.33
-0.27,-0.73,-0.33
-0.29,-0.71,-0.34
-0.32,-0.69,-0.35
-0.35,-0.68,-0.36
-0.36,-0.65,-0.36
-0.34,-0.62,-0.38
-0.36,-0.59,-0.37
-0.38,-0.57,-0.33
-0.35,-0.54,-0.32
-0.33,-0.49,-0.28
-0.32,-0.45,-0.24
-0.3,-0.4,-0.22
-0.25,-0.36,-0.21
-0.24,-0.34,-0.21
-0.23,-0.34,-0.19
-0.21,-0.35,-0.13
-0.16,-0.35,-0.07
-0.1,-0.33,0.01
-0.05,-0.27,0.07
0.07,-0.1,0.05
0.05,-0.06,0.04
0.01,-0.06,0.08
-0.01,-0.14,0.09
-0.02,-0.1,0.19
0.09,-0.04,0.28
0.19,0.02,0.34
0.25,0.09,0.38
0.28,0.14,0.36
0.3,0.15,0.31
0.34,0.19,0.24
0.38,0.24,0.19
0.38,0.25,0.27
0.51,0.4,0.37
0.66,0.5,0.45
0.72,0.52,0.56
0.74,0.62,0.63
0.76,0.69,0.61
0.78,0.69,0.59
0.79,0.69,0.58
0.83,0.69,0.68
0.93,0.85,0.81
0.97,1.06,0.94
0.93,1.17,1.1
0.9,1.27,1.2
0.86,1.31,1.17
0.84,1.4,1.12
0.81,1.5,1.09
0.77,1.58,1.09
0.75,1.81,1.15
0.76,1.84,1.11
0.74,1.88,1.03
0.76,2.03,0.96
0.79,2.15,0.94
0.82,2.24,0.94
0.83,2.34,0.95
0.88,2.5,1
0.87,2.58,1.05
0.79,2.55,1.1
0.76,2.53,1.11
0.76,2.47,1.13
0.79,2.39,1.14
0.77,2.27,1.14
0.73,2.1,1.12
0.73,1.95,1.09
0.7,1.78,1.09
0.69,1.61,1.04
0.64,1.48,1
0.62,1.41,0.95
0.57,1.37,0.95
0.52,1.31,0.99
0.59,1.23,0.93
0.63,1.16,0.87
0.57,1.1,0.86
0.52,1.04,0.84
0.52,0.98,0.78
0.47,0.93,0.74
0.47,0.95,0.68
0.43,0.94,0.65
0.39,0.93,0.63
0.37,0.92,0.61
0.35,0.92,0.6
0.34,0.91,0.57
0.37,0.92,0.53
0.39,0.94,0.48
0.39,0.95,0.42
0.37,0.97,0.36
0.34,0.99,0.29
0.3,1.02,0.24
0.25,1.03,0.2
0.21,1.04,0.17
0.17,1.04,0.15
0.14,1.04,0.12
0.12,1.03,0.1
0.1,1.03,0.08
0.09,1.03,0.07
0.08,1.02,0.05
0.07,1.03,0.03
0.07,1.03,0.01
0.06,1.04,-0.01
0.04,1.03,-0.04
0.03,1.03,-0.04
0,1.03,-0.03
-0.01,1.01,-0.02
-0.01,0.99,-0.01
0,0.97,0.01
0.01,0.96,0.02
-0.01,0.95,0.03
-0.01,0.97,0.04
-0.01,0.98,0.04
-0.02,0.98,0.04
-0.03,0.98,0.04
-0.01,0.98,0.04
0.03,0.97,0.05
0.05,0.95,0.06
0.06,0.93,0.07
0.06,0.92,0.07
0.05,0.93,0.08
0.05,0.96,0.09
0.05,0.99,0.09
0.05,0.99,0.09
0.06,0.99,0.09
0.08,0.98,0.09
0.1,0.96,0.1
0.1,0.95,0.12
0.12,0.94,0.13
0.16,0.93,0.14
0.18,0.92,0.16
0.23,0.93,0.17
0.24,0.95,0.18
0.24,0.95,0.19
0.25,0.95,0.2
0.26,0.94,0.2
0.26,0.94,0.22
0.27,0.93,0.22
0.28,0.93,0.23
0.3,0.93,0.24
0.3,0.92,0.24
0.32,0.92,0.24
0.36,0.93,0.24
0.37,0.93,0.25
0.36,0.93,0.26
0.35,0.93,0.28
0.35,0.92,0.31
0.37,0.92,0.34
0.41,0.92,0.37
0.45,0.93,0.41
0.48,0.94,0.44
0.5,0.95,0.47
0.52,0.95,0.51
0.54,0.95,0.6
0.57,0.95,0.7
0.6,0.96,0.78
0.63,0.98,0.82
0.68,1.01,0.85
0.79,1.03,0.88
0.91,1.06,0.89
1.02,1.09,0.9
1.08,1.12,0.94
1.05,1.14,1.02
0.93,1.17,1.1
0.78,1.19,1.16
0.67,1.21,1.19
0.63,1.25,1.23
0.67,1.31,1.23
0.72,1.35,1.23
0.73,1.37,1.24
0.73,1.36,1.26
0.72,1.36,1.31
0.69,1.39,1.35
0.66,1.43,1.35
0.62,1.46,1.33
0.59,1.48,1.32
0.59,1.5,1.34
0.6,1.5,1.37
0.61,1.49,1.37
0.6,1.46,1.36
0.59,1.45,1.35
0.59,1.45,1.33
0.59,1.46,1.25
0.58,1.44,1.21
0.57,1.38,1.22
0.61,1.34,1.24
0.68,1.31,1.19
0.67,1.27,1.1
0.6,1.2,1.01
0.55,1.12,0.98
0.54,1.06,0.99
0.54,1.01,0.99
0.53,0.96,0.96
0.49,0.9,0.92
0.45,0.84,0.88
0.43,0.77,0.84
0.42,0.68,0.81
0.4,0.56,0.78
0.41,0.44,0.78
0.46,0.33,0.77
0.47,0.3,0.75
0.44,0.36,0.72
0.35,0.39,0.67
0.26,0.33,0.6
0.21,0.33,0.52
0.11,0.22,0.48
0.13,0.18,0.45
0.2,0.26,0.41
0.19,0.23,0.37
0.04,0.17,0.3
-0.15,0.04,0.23
-0.05,-0.19,0.36
0.14,0.26,0.41
-0.03,0.2,0.28
-0.05,-0.16,0.2
-0.12,-0.28,0.15
-0.2,-0.09,0.13
-0.21,0.04,0.05
-0.17,0.05,0.02
-0.1,0.02,0
-0.04,0,-0.1
-0.06,-0.06,-0.24
-0.13,-0.16,-0.37
-0.18,-0.26,-0.52
-0.25,-0.37,-0.65
-0.33,-0.49,-0.77
-0.32,-0.41,-0.85
-0.26,-0.28,-0.9
-0.26,-0.33,-0.97
-0.29,-0.42,-1.06
-0.3,-0.46,-1.18
-0.31,-0.49,-1.29
-0.34,-0.53,-1.35
-0.36,-0.62,-1.36
-0.35,-0.66,-1.35
-0.37,-0.59,-1.32
-0.4,-0.62,-1.28
-0.41,-0.7,-1.24
-0.39,-0.72,-1.17
-0.39,-0.75,-1.11
-0.41,-0.76,-1.04
-0.43,-0.77,-0.98
-0.43,-0.79,-0.93
-0.41,-0.81,-0.86
-0.4,-0.84,-0.78
-0.37,-0.9,-0.69
-0.32,-0.94,-0.62
-0.31,-0.96,-0.55
-0.33,-0.97,-0.47
-0.32,-0.93,-0.42
-0.33,-0.94,-0.34
-0.33,-0.99,-0.25
-0.32,-1,-0.18
-0.31,-1.01,-0.11
-0.3,-1,-0.06
-0.32,-1.01,-0.01
-0.32,-1.01,0.04
-0.31,-0.98,0.07
-0.31,-0.96,0.1
-0.31,-0.94,0.13
-0.32,-0.93,0.16
-0.3,-0.95,0.17
-0.27,-0.95,0.17
-0.26,-0.96,0.15
-0.27,-0.95,0.13
-0.27,-0.95,0.11
-0.26,-0.96,0.09
-0.26,-0.96,0.09
-0.25,-0.95,0.08
-0.25,-0.95,0.07
-0.27,-0.97,0.06
-0.29,-0.97,0.05
-0.29,-0.98,0.04
-0.29,-0.98,0.03
-0.3,-0.96,0.02
-0.31,-0.96,0.01
-0.3,-0.95,0
-0.3,-0.95,-0.02
-0.29,-0.95,-0.03
-0.28,-0.95,-0.03
-0.28,-0.96,-0.03
-0.27,-0.96,-0.03
-0.28,-0.97,-0.04
-0.28,-0.97,-0.05
-0.29,-0.97,-0.07
-0.31,-0.98,-0.08
-0.31,-0.98,-0.09
-0.31,-0.98,-0.1
-0.3,-0.97,-0.11
-0.29,-0.98,-0.12
-0.28,-0.98,-0.12
-0.28,-0.97,-0.12
-0.28,-0.97,-0.13
-0.28,-0.97,-0.14
-0.29,-0.97,-0.15
-0.29,-0.97,-0.15
-0.29,-0.97,-0.14
-0.29,-0.96,-0.14
-0.28,-0.96,-0.15
-0.29,-0.95,-0.15
-0.29,-0.95,-0.16
-0.28,-0.94,-0.17
-0.27,-0.93,-0.19
-0.27,-0.91,-0.21
-0.28,-0.91,-0.23
-0.29,-0.91,-0.24
-0.3,-0.9,-0.27
-0.32,-0.88,-0.31
-0.36,-0.87,-0.35
-0.38,-0.85,-0.39
-0.4,-0.81,-0.41
-0.4,-0.78,-0.42
-0.4,-0.75,-0.42
-0.39,-0.68,-0.43
-0.4,-0.65,-0.44
-0.39,-0.62,-0.46
-0.38,-0.59,-0.46
-0.38,-0.57,-0.45
-0.37,-0.55,-0.43
-0.36,-0.53,-0.42
-0.36,-0.5,-0.42
-0.37,-0.49,-0.42
-0.37,-0.47,-0.42
-0.35,-0.45,-0.42
-0.33,-0.42,-0.41
-0.3,-0.38,-0.39
-0.27,-0.35,-0.37
-0.23,-0.32,-0.34
-0.2,-0.29,-0.31
-0.17,-0.26,-0.26
-0.15,-0.24,-0.22
-0.13,-0.21,-0.19
-0.13,-0.22,-0.17
-0.13,-0.29,-0.13
-0.11,-0.32,-0.06
-0.08,-0.3,0.03
-0.03,-0.26,0.09
0.02,-0.2,0.13
0.07,-0.12,0.13
0.09,-0.04,0.16
0.03,-0.07,0.21
0.07,-0.06,0.29
0.14,-0.02,0.39
0.22,0.04,0.47
0.3,0.13,0.53
0.37,0.29,0.55
0.4,0.37,0.55
0.39,0.38,0.54
0.41,0.35,0.62
0.57,0.25,0.74
0.82,0.29,0.83
0.95,0.38,0.92
0.91,0.43,0.95
0.81,0.51,0.97
0.77,0.64,0.98
0.81,0.81,0.94
0.84,0.93,0.93
0.82,1,1.03
0.93,1.01,1.21
1.16,1.03,1.41
1.27,1.09,1.54
1.18,1.07,1.54
0.99,1.02,1.44
0.81,0.99,1.3
0.7,1.03,1.2
0.68,1.21,1.15
0.79,1.24,1.11
0.94,1.3,1.06
1.08,1.38,1.01
1.14,1.46,0.89
1.12,1.47,0.8
1.03,1.48,0.74
0.91,1.57,0.68
0.85,1.62,0.67
0.81,1.64,0.7
0.77,1.66,0.69
0.76,1.65,0.69
0.76,1.6,0.65
0.77,1.65,0.62
0.76,1.68,0.63
0.71,1.6,0.63
0.71,1.61,0.63
0.73,1.62,0.63
0.73,1.59,0.64
0.72,1.55,0.65
0.73,1.52,0.67
0.71,1.48,0.69
0.68,1.43,0.72
0.67,1.38,0.75
0.64,1.33,0.77
0.62,1.28,0.79
0.6,1.17,0.8
0.58,1.13,0.8
0.57,1.09,0.8
0.56,1.07,0.79
0.55,1.04,0.76
0.55,1.01,0.75
0.54,0.99,0.74
0.51,0.98,0.73
0.5,0.98,0.72
0.48,0.97,0.69
0.48,0.97,0.66
0.46,0.99,0.63
0.44,0.99,0.6
0.4,0.98,0.58
0.36,0.98,0.53
0.31,0.99,0.47
0.26,1,0.41
0.21,1.02,0.37
0.17,1.04,0.34
0.15,1.04,0.28
0.16,1.04,0.22
0.16,1.03,0.17
0.15,1.02,0.11
0.12,1.02,0.05
0.08,1.02,0.01
0.03,1.01,-0.02
-0.02,1,-0.07
-0.02,1,-0.1
-0.03,1.01,-0.12
-0.05,1.02,-0.13
-0.05,1.02,-0.14
-0.06,1.01,-0.15
-0.07,0.99,-0.14
-0.08,0.95,-0.12
-0.07,0.92,-0.1
-0.07,0.91,-0.09
-0.07,0.9,-0.07
-0.07,0.91,-0.06
-0.08,0.95,-0.06
-0.07,0.98,-0.06
-0.06,1,-0.05
-0.03,1,-0.03
0,1,-0.01
0.01,0.99,0
0.01,0.99,0.01
0.02,0.98,0.03
0.04,0.99,0.06
0.06,0.98,0.09
0.08,0.99,0.1
0.09,1,0.11
0.09,1,0.1
0.1,0.99,0.11
0.11,0.97,0.14
0.1,0.95,0.15
0.1,0.93,0.16
0.11,0.94,0.17
0.12,0.95,0.18
0.13,0.96,0.19
0.15,0.97,0.19
0.17,0.97,0.19
0.17,0.97,0.19
0.19,0.98,0.19
0.21,0.97,0.2
0.22,0.97,0.2
0.23,0.96,0.21
0.24,0.95,0.22
0.25,0.95,0.23
0.24,0.96,0.24
0.23,0.96,0.24
0.23,0.97,0.23
0.24,0.97,0.23
0.24,0.97,0.23
0.25,0.96,0.23
0.26,0.97,0.23
0.27,0.97,0.24
0.28,0.97,0.25
0.29,0.97,0.26
0.31,0.98,0.26
0.32,0.97,0.29
0.34,0.97,0.3
0.35,0.97,0.3
0.36,0.98,0.32
0.41,0.98,0.32
0.49,0.99,0.32
0.56,0.99,0.31
0.63,0.98,0.32
0.7,0.99,0.32
0.72,1,0.34
0.71,0.99,0.4
0.73,0.96,0.47
0.76,0.95,0.52
0.76,0.96,0.54
0.72,0.97,0.56
0.71,0.98,0.58
0.74,0.99,0.61
0.78,0.99,0.66
0.84,1,0.69
0.9,1.01,0.7
0.96,1.02,0.73
1.01,1.04,0.77
1.03,1.06,0.81
1.04,1.09,0.84
1.07,1.12,0.84
1.1,1.17,0.86
1.11,1.2,0.96
1.12,1.24,0.98
1.13,1.27,1
1.17,1.31,1.03
1.23,1.35,1.06
1.29,1.37,1.1
1.37,1.4,1.12
1.44,1.41,1.11
1.48,1.4,1.1
1.48,1.4,1.07
1.43,1.41,1.05
1.36,1.4,1.04
1.3,1.36,1.06
1.28,1.31,1.09
1.29,1.25,1.11
1.3,1.23,1.11
1.27,1.22,1.09
1.2,1.16,1.04
1.14,1.11,0.95
1.1,1.06,0.88
1.05,1.01,0.83
1.02,0.95,0.81
1.01,0.91,0.78
1,0.88,0.73
0.98,0.85,0.66
0.95,0.81,0.57
0.91,0.74,0.43
0.79,0.61,0.4
0.73,0.54,0.38
0.68,0.53,0.39
0.64,0.5,0.36
0.56,0.4,0.3
0.49,0.34,0.28
0.45,0.29,0.31
0.43,0.2,0.31
0.19,-0.31,0.34
0.23,-0.23,0.29
0.34,0.12,0.26
0.11,-0.15,0.33
0.06,-0.11,0.33
0.2,-0.33,0.36
0.27,-0.4,0.32
0.15,-0.13,0.25
0.15,-0.08,0.22
0.06,-0.08,0.16
0.02,-0.19,0.11
0.13,-0.12,0.04
0.18,-0.13,0.04
0.19,-0.28,0.01
0.07,-0.34,-0.12
-0.02,-0.33,-0.11
-0.07,-0.27,-0.09
-0.12,-0.2,-0.19
-0.19,-0.32,-0.26
-0.17,-0.34,-0.31
-0.18,-0.31,-0.38
-0.22,-0.25,-0.44
-0.29,-0.25,-0.46
-0.4,-0.38,-0.51
-0.51,-0.56,-0.6
-0.56,-0.6,-0.66
-0.61,-0.63,-0.72
-0.65,-0.67,-0.76
-0.72,-0.7,-0.76
-0.77,-0.7,-0.75
-0.79,-0.72,-0.73
-0.77,-0.75,-0.72
-0.72,-0.75,-0.71
-0.69,-0.76,-0.69
-0.67,-0.78,-0.64
-0.65,-0.78,-0.58
-0.62,-0.78,-0.51
-0.61,-0.8,-0.46
-0.59,-0.82,-0.42
-0.57,-0.85,-0.39
-0.54,-0.87,-0.35
-0.5,-0.9,-0.31
-0.47,-0.93,-0.27
-0.44,-0.96,-0.18
-0.39,-0.95,-0.15
-0.38,-0.96,-0.11
-0.37,-0.96,-0.07
-0.37,-0.97,-0.03
-0.35,-0.97,0.02
-0.33,-0.97,0.06
-0.32,-0.96,0.08
-0.3,-0.94,0.09
-0.29,-0.93,0.1
-0.27,-0.92,0.12
-0.26,-0.92,0.13
-0.25,-0.93,0.14
-0.25,-0.95,0.15
-0.25,-0.96,0.15
-0.25,-0.97,0.16
-0.25,-0.97,0.17
-0.25,-0.97,0.17
-0.25,-0.97,0.18
-0.26,-0.97,0.18
-0.25,-0.96,0.17
-0.25,-0.97,0.16
-0.25,-0.98,0.16
-0.24,-0.98,0.15
-0.23,-0.99,0.14
-0.24,-1.01,0.13
-0.26,-1.03,0.11
-0.29,-1.04,0.1
-0.3,-1.04,0.1
-0.3,-1.04,0.09
-0.31,-1.04,0.08
-0.31,-1.02,0.06
-0.31,-1,0.04
-0.31,-0.98,0.02
-0.31,-0.97,0
-0.31,-0.95,-0.01
-0.3,-0.94,-0.03
-0.3,-0.92,-0.03
-0.3,-0.93,-0.04
-0.31,-0.92,-0.04
-0.32,-0.91,-0.06
-0.34,-0.9,-0.07
-0.36,-0.9,-0.08
-0.37,-0.9,-0.09
-0.39,-0.91,-0.09
-0.38,-0.91,-0.09
-0.38,-0.91,-0.1
-0.39,-0.91,-0.09
-0.41,-0.93,-0.09
-0.42,-0.94,-0.08
-0.43,-0.96,-0.07
-0.44,-0.96,-0.07
-0.44,-0.96,-0.06
-0.44,-0.94,-0.04
-0.41,-0.94,-0.03
-0.4,-0.94,-0.02
-0.39,-0.94,-0.02
-0.37,-0.95,-0.02
-0.35,-0.94,0
-0.35,-0.95,0.01
-0.34,-0.95,0.01
-0.34,-0.94,0.01
-0.33,-0.94,-0.01
-0.34,-0.93,-0.01
-0.34,-0.92,-0.03
-0.34,-0.91,-0.05
-0.34,-0.91,-0.08
-0.34,-0.91,-0.11
-0.34,-0.92,-0.11
-0.32,-0.93,-0.12
-0.31,-0.92,-0.13
-0.3,-0.9,-0.14
-0.31,-0.88,-0.16
-0.32,-0.87,-0.19
-0.34,-0.84,-0.22
-0.35,-0.81,-0.25
-0.37,-0.79,-0.28
-0.39,-0.79,-0.3
-0.38,-0.79,-0.3
-0.36,-0.77,-0.28
-0.36,-0.74,-0.27
-0.37,-0.72,-0.28
-0.36,-0.69,-0.29
-0.35,-0.66,-0.29
-0.35,-0.63,-0.29
-0.35,-0.6,-0.28
-0.36,-0.58,-0.27
-0.36,-0.55,-0.25
-0.32,-0.51,-0.24
-0.29,-0.47,-0.24
-0.28,-0.43,-0.22
-0.28,-0.39,-0.21
-0.27,-0.34,-0.2
-0.25,-0.28,-0.2
-0.23,-0.23,-0.2
-0.22,-0.2,-0.17
-0.19,-0.14,-0.15
-0.14,-0.1,-0.12
-0.09,-0.06,-0.08
-0.04,0.01,-0.05
0.03,0.08,-0.02
0.1,0.15,0
0.14,0.21,0.02
0.17,0.22,0.02
0.2,0.25,0.04
0.23,0.36,0.23
0.38,0.44,0.31
0.44,0.52,0.32
0.46,0.63,0.29
0.46,0.68,0.25
0.51,0.71,0.2
0.63,0.74,0.2
0.74,0.78,0.37
0.9,0.92,0.64
1.02,1.03,0.81
0.98,1.02,0.83
0.88,1.1,0.77
0.76,1.21,0.68
0.66,1.32,0.65
0.65,1.41,0.74
0.79,1.48,0.85
1.07,1.5,0.91
1.24,1.55,0.98
1.29,1.68,1.02
1.22,1.75,1.02
1.04,1.76,0.97
0.92,1.8,0.91
0.86,1.89,0.92
0.84,1.99,0.91
0.88,2.09,0.85
0.96,2.13,0.77
1.15,2.14,0.52
1.49,2.12,0.42
1.54,2.1,0.36
1.54,2.09,0.31
1.49,2.07,0.29
1.4,2.03,0.32
1.32,2.02,0.37
1.26,1.99,0.41
1.23,1.96,0.46
1.21,1.91,0.49
1.2,1.86,0.5
1.18,1.8,0.52
1.12,1.73,0.54
1.07,1.64,0.56
1.04,1.59,0.6
1.03,1.53,0.66
1.02,1.45,0.7
1.02,1.37,0.7
1.01,1.29,0.69
0.94,1.21,0.7
0.89,1.14,0.72
0.91,1.11,0.72
0.88,1.06,0.71
0.82,1.02,0.71
0.79,0.99,0.7
0.74,0.95,0.68
0.71,0.93,0.64
0.66,0.9,0.63
0.64,0.91,0.6
0.61,0.94,0.56
0.58,0.95,0.5
0.56,0.95,0.44
0.53,0.96,0.39
0.47,0.96,0.33
0.41,0.98,0.26
0.34,1.01,0.19
0.29,1.01,0.14
0.27,1.02,0.1
0.26,1.03,0.07
0.24,1.04,0.05
0.21,1.05,0.01
0.15,1.04,-0.03
0.09,1.03,-0.07
0.04,1.03,-0.11
0.01,1.02,-0.14
-0.01,1.01,-0.15
0,1,-0.15
0.01,1,-0.15
0.01,1.01,-0.15
0,1.01,-0.15
0,1,-0.14
0,1,-0.13
-0.03,1,-0.11
-0.11,0.99,-0.1
-0.14,0.99,-0.09
-0.15,1.01,-0.08
-0.13,1.02,-0.06
-0.1,1,-0.04
-0.06,0.97,-0.02
-0.03,0.95,-0.01
0.01,0.94,-0.01
0.03,0.94,-0.02
0.05,0.94,-0.02
0.07,0.93,0
0.1,0.91,0.03
0.13,0.9,0.06
0.16,0.9,0.08
0.18,0.9,0.09
0.2,0.91,0.11
0.22,0.93,0.13
0.24,0.95,0.14
0.24,0.97,0.16
0.24,0.99,0.17
0.22,0.99,0.16
0.19,0.99,0.17
0.2,1,0.19
0.19,1.01,0.21
0.17,1.02,0.22
0.15,0.99,0.2
0.22,0.99,0.15
0.25,1,0.11
0.27,1,0.08
0.28,1.01,0.08
0.28,1.02,0.09
0.28,1.02,0.09
0.29,1.01,0.09
0.28,1,0.08
0.29,0.98,0.07
0.29,0.96,0.07
0.29,0.95,0.06
0.3,0.94,0.06
0.31,0.93,0.06
0.32,0.92,0.07
0.32,0.91,0.07
0.32,0.91,0.08
0.31,0.91,0.08
0.3,0.9,0.08
0.3,0.91,0.08
0.3,0.91,0.08
0.3,0.9,0.09
0.31,0.9,0.09
0.31,0.91,0.1
0.32,0.92,0.11
0.31,0.93,0.11
0.31,0.92,0.13
0.34,0.9,0.13
0.35,0.91,0.14
0.35,0.91,0.14
0.37,0.91,0.16
0.38,0.91,0.17
0.39,0.91,0.18
0.4,0.9,0.19
0.41,0.91,0.19
0.4,0.91,0.19
0.39,0.91,0.2
0.39,0.91,0.2
0.4,0.92,0.21
0.39,0.92,0.21
0.38,0.92,0.22
0.39,0.91,0.22
0.39,0.92,0.21
0.4,0.92,0.21
0.4,0.92,0.21
0.4,0.92,0.2
0.4,0.92,0.2
0.4,0.92,0.19
0.4,0.92,0.18
0.41,0.92,0.19
0.43,0.92,0.19
0.46,0.92,0.19
0.48,0.92,0.25
0.55,0.94,0.29
0.6,0.98,0.33
0.63,1.02,0.38
0.65,1.04,0.44
0.72,1.03,0.48
0.82,1.01,0.52
0.94,0.97,0.54
1.03,0.97,0.54
1.06,0.98,0.6
1.06,0.99,0.69
1.06,0.97,0.76
1.03,0.97,0.81
0.97,0.97,0.86
0.91,0.94,0.89
0.92,0.89,0.91
1,0.85,0.92
1.09,0.88,0.93
1.14,0.92,0.95
1.17,0.95,0.98
1.17,0.99,1
1.18,1.03,1.01
1.19,1.08,1.01
1.17,1.12,1.03
1.17,1.16,1.07
1.24,1.19,1.1
1.32,1.21,1.19
1.45,1.25,1.2
1.46,1.27,1.18
1.44,1.3,1.14
1.37,1.31,1.13
1.32,1.31,1.13
1.29,1.27,1.14
1.26,1.24,1.15
1.24,1.21,1.15
1.23,1.17,1.12
1.22,1.14,1.06
1.19,1.12,1.01
1.14,1.08,0.99
1.1,1.04,0.96
1.07,0.99,0.91
1.05,0.95,0.85
1.01,0.9,0.79
0.96,0.85,0.77
0.93,0.79,0.78
0.92,0.73,0.78
0.91,0.7,0.74
0.87,0.66,0.67
0.8,0.59,0.6
0.69,0.51,0.58
0.59,0.43,0.56
0.57,0.32,0.51
0.54,0.25,0.52
0.46,0.23,0.44
0.39,0.25,0.4
0.32,0.24,0.36
0.27,0.23,0.32
0.24,0.19,0.28
0.19,0.09,0.23
0.14,-0.02,0.21
-0.06,-0.98,-0.01
0.04,-0.92,0.07
0.25,-0.09,0.3
0.01,-0.34,0.23
-0.1,-0.29,0.08
-0.01,-0.19,-0.08
0.03,-0.16,-0.08
0.04,-0.1,-0.04
0.03,-0.17,-0.06
-0.01,-0.26,-0.13
-0.08,-0.26,-0.13
-0.14,-0.2,-0.16
-0.22,-0.23,-0.23
-0.27,-0.25,-0.34
-0.26,-0.28,-0.42
-0.26,-0.36,-0.43
-0.25,-0.38,-0.46
-0.25,-0.4,-0.52
-0.26,-0.5,-0.58
-0.27,-0.61,-0.7
-0.39,-0.72,-0.73
-0.42,-0.74,-0.76
-0.48,-0.78,-0.78
-0.52,-0.82,-0.76
-0.55,-0.85,-0.74
-0.53,-0.84,-0.68
-0.48,-0.84,-0.63
-0.45,-0.9,-0.63
-0.43,-0.92,-0.6
-0.43,-0.94,-0.57
-0.41,-0.96,-0.54
-0.37,-0.98,-0.51
-0.36,-0.99,-0.48
-0.35,-1,-0.44
-0.33,-0.99,-0.4
-0.32,-0.99,-0.36
-0.3,-1,-0.31
-0.28,-1.02,-0.27
-0.25,-1.04,-0.24
-0.21,-1.03,-0.21
-0.18,-1.02,-0.17
-0.15,-1.01,-0.11
-0.12,-0.98,-0.05
-0.09,-0.94,0
-0.07,-0.92,0.05
-0.05,-0.93,0.21
0,-0.94,0.27
0.01,-0.95,0.32
0.03,-0.95,0.35
0.04,-0.94,0.37
0.06,-0.94,0.37
0.08,-0.94,0.38
0.11,-0.96,0.4
0.13,-0.97,0.39
0.13,-0.98,0.37
0.11,-0.98,0.36
0.1,-0.99,0.37
0.13,-0.99,0.39
0.15,-0.99,0.39
0.15,-0.98,0.4
0.16,-0.97,0.38
0.16,-0.98,0.35
0.15,-0.98,0.32
0.13,-0.99,0.32
0.12,-1,0.34
0.12,-1.01,0.34
0.1,-1.01,0.35
0.08,-1.01,0.34
0.05,-1,0.34
0.03,-0.99,0.32
0.02,-0.99,0.31
0.02,-1,0.32
0.05,-1.01,0.31
0.04,-1.02,0.29
0.01,-1.03,0.26
-0.01,-1.03,0.23
-0.03,-1.02,0.22
-0.06,-1.02,0.21
-0.08,-1.01,0.2
-0.1,-1.01,0.2
-0.12,-0.99,0.19
-0.13,-0.97,0.17
-0.13,-0.95,0.14
-0.14,-0.94,0.11
-0.16,-0.92,0.07
-0.19,-0.91,0.04
-0.21,-0.91,0.02
-0.23,-0.91,-0.02
-0.26,-0.91,-0.05
-0.29,-0.91,-0.07
-0.31,-0.91,-0.09
-0.33,-0.9,-0.1
-0.35,-0.89,-0.13
-0.38,-0.88,-0.16
-0.41,-0.85,-0.18
-0.44,-0.83,-0.2
-0.45,-0.8,-0.23
-0.46,-0.76,-0.26
-0.48,-0.75,-0.28
-0.5,-0.75,-0.29
-0.51,-0.74,-0.3
-0.51,-0.71,-0.31
-0.52,-0.67,-0.32
-0.54,-0.63,-0.32
-0.56,-0.59,-0.33
-0.57,-0.55,-0.34
-0.56,-0.5,-0.35
-0.55,-0.45,-0.34
-0.53,-0.4,-0.34
-0.51,-0.35,-0.33
-0.48,-0.31,-0.31
-0.45,-0.27,-0.29
-0.42,-0.23,-0.29
-0.39,-0.19,-0.29
-0.36,-0.13,-0.28
-0.35,-0.1,-0.26
-0.34,-0.07,-0.23
-0.31,-0.06,-0.18
-0.27,-0.06,-0.13
-0.21,-0.04,-0.08
-0.17,-0.05,0
-0.13,-0.05,0.06
-0.1,-0.01,0.11
-0.09,0.05,0.09
-0.04,0.1,0.08
-0.02,0.08,0.1
0.02,0.08,0.18
0.08,0.12,0.29
0.18,0.21,0.38
0.29,0.35,0.39
0.36,0.51,0.41
0.41,0.74,0.42
0.45,0.79,0.37
0.58,0.72,0.37
0.85,0.77,0.4
1.1,0.88,0.58
1.28,1.02,0.83
1.34,1.11,0.95
1.32,1.21,0.98
1.21,1.32,0.94
1.05,1.42,0.91
0.9,1.53,0.91
0.82,1.66,0.89
0.9,1.82,0.97
1.02,1.99,1.05
1.15,2.08,1.07
1.27,2.11,1.14
1.25,2.11,1.16
1.19,2.21,1.11
1.14,2.33,0.76
0.97,2.48,0.68
1.03,2.61,0.69
1.13,2.68,0.73
1.21,2.66,0.78
1.22,2.61,0.87
1.23,2.55,0.92
1.22,2.42,0.89
1.16,2.24,0.82
1.13,2.13,0.75
1.1,2.03,0.71
1.07,1.9,0.68
1.02,1.77,0.71
0.82,1.66,0.76
0.75,1.58,0.73
1.04,1.51,0.61
1.13,1.38,0.56
0.92,1.28,0.67
0.8,1.21,0.77
0.79,1.14,0.78
0.77,1.09,0.77
0.75,1.04,0.76
0.7,1,0.76
0.65,0.97,0.76
0.63,0.95,0.74
0.63,0.91,0.72
0.62,0.89,0.69
0.62,0.89,0.67
0.6,0.9,0.64
0.58,0.9,0.61
0.55,0.91,0.59
0.52,0.91,0.57
0.47,0.93,0.54
0.4,0.95,0.5
0.34,0.98,0.45
0.32,1.01,0.4
0.31,1.02,0.37
0.29,1.04,0.34
0.26,1.07,0.33
0.23,1.07,0.31
0.2,1.06,0.28
0.16,1.04,0.27
0.13,1.02,0.26
0.09,1.01,0.25
0.05,1,0.24
0.01,0.99,0.24
-0.04,0.99,0.25
-0.08,0.98,0.25
-0.09,0.97,0.24
-0.09,0.97,0.24
-0.09,0.97,0.24
-0.08,0.97,0.24
-0.05,0.97,0.22
0.02,0.98,0.22
0.06,0.98,0.22
0.08,0.97,0.21
0.08,0.95,0.22
0.09,0.93,0.23
0.11,0.92,0.28
0.12,0.92,0.34
0.15,0.93,0.37
0.17,0.95,0.39
0.18,0.98,0.41
0.19,1.01,0.44
0.18,1.03,0.44
0.16,1.06,0.45
0.16,1.08,0.47
0.14,1.08,0.51
0.14,1.07,0.55
0.14,1.08,0.58
0.11,1.08,0.63
0.1,1.08,0.69
0.12,1.09,0.76
0.16,1.09,0.82
0.18,1.09,0.85
0.2,1.09,0.87
0.23,1.08,0.92
0.27,1.08,0.97
0.29,1.09,1.04
0.29,1.1,1.07
0.27,1.1,1.13
0.27,1.13,1.22
0.31,1.17,1.28
0.34,1.2,1.31
0.37,1.22,1.33
0.38,1.26,1.37
0.41,1.31,1.4
0.44,1.37,1.41
0.47,1.4,1.39
0.49,1.41,1.37
0.53,1.41,1.39
0.57,1.43,1.43
0.61,1.48,1.44
0.61,1.51,1.43
0.58,1.49,1.42
0.58,1.44,1.38
0.6,1.42,1.34
0.62,1.43,1.35
0.62,1.44,1.34
0.64,1.43,1.28
0.68,1.45,1.22
0.7,1.46,1.2
0.7,1.47,1.18
0.69,1.46,1.12
0.68,1.41,1.04
0.69,1.29,1.03
0.68,1.25,1.01
0.66,1.2,0.98
0.61,1.14,0.96
0.57,1.06,0.95
0.55,0.97,0.93
0.53,0.89,0.92
0.53,0.84,0.88
0.52,0.84,0.8
0.47,0.8,0.71
0.41,0.73,0.67
0.39,0.67,0.64
0.39,0.59,0.59
0.36,0.54,0.55
0.32,0.5,0.48
0.3,0.46,0.43
0.27,0.4,0.39
0.26,0.31,0.37
0.25,0.23,0.32
0.19,0.09,0.21
0.18,0.08,0.16
0.22,0.09,0.15
0.25,-0.23,0.02
0.13,-0.3,0.06
0.11,-0.1,0.13
0.05,-0.38,0.47
0.08,0.26,0.54
0.03,0.17,0.01
0.09,-0.33,-0.25
0.06,-0.44,-0.4
-0.08,-0.56,-0.39
-0.07,-0.59,-0.41
0.06,-0.46,-0.48
0.14,-0.46,-0.47
0.17,-0.48,-0.42
0.16,-0.49,-0.38
0.15,-0.6,-0.39
0.17,-0.65,-0.43
0.15,-0.59,-0.48
0.05,-0.62,-0.51
-0.03,-0.65,-0.52
-0.07,-0.63,-0.52
-0.11,-0.62,-0.5
-0.15,-0.66,-0.5
-0.18,-0.7,-0.49
-0.21,-0.74,-0.46
-0.22,-0.8,-0.46
-0.21,-0.84,-0.46
-0.2,-0.85,-0.44
-0.2,-0.85,-0.41
-0.21,-0.84,-0.38
-0.22,-0.85,-0.35
-0.21,-0.96,-0.35
-0.2,-0.98,-0.35
-0.18,-1,-0.31
-0.15,-1,-0.27
-0.09,-0.99,-0.24
-0.05,-0.96,-0.22
-0.03,-0.92,-0.21
-0.03,-0.92,-0.19
-0.04,-0.95,-0.17
-0.03,-0.96,-0.15
0,-0.94,-0.15
0.01,-0.94,-0.14
0.01,-0.94,-0.13
0.02,-0.94,-0.12
0.03,-0.96,-0.11
0.04,-1,-0.1
0.07,-1.03,-0.09
0.08,-1.02,-0.07
0.05,-1.02,-0.03
0.03,-1.04,0
0.04,-1.07,0.01
0.05,-1.08,0.02
0.06,-1.05,0.03
0.07,-1.01,0.03
0.07,-0.97,0.04
0.06,-0.95,0.05
0.07,-0.95,0.07
0.06,-0.98,0.08
0.04,-1.02,0.08
0.02,-1.07,0.09
0.01,-1.11,0.09
0,-1.11,0.09
-0.01,-1.09,0.1
-0.03,-1.09,0.1
-0.05,-1.12,0.11
-0.07,-1.19,0.11
-0.09,-1.25,0.11
-0.11,-1.29,0.11
-0.14,-1.32,0.1
-0.15,-1.31,0.1
-0.16,-1.29,0.09
-0.18,-1.29,0.08
-0.19,-1.3,0.07
-0.19,-1.27,0.05
-0.18,-1.19,0.03
-0.2,-1.1,0.02
-0.23,-1.01,0.02
-0.25,-0.92,0
-0.27,-0.89,-0.03
-0.3,-0.91,-0.05
-0.33,-0.95,-0.06
-0.36,-0.95,-0.08
-0.37,-0.83,-0.08
-0.46,-0.77,-0.05
-0.53,-0.74,-0.01
-0.58,-0.74,0.04
-0.61,-0.73,0.06
-0.62,-0.71,0.08
-0.64,-0.68,0.1
-0.68,-0.68,0.11
-0.73,-0.69,0.13
-0.78,-0.68,0.16
-0.81,-0.66,0.2
-0.84,-0.64,0.21
-0.86,-0.62,0.19
-0.87,-0.59,0.15
-0.88,-0.57,0.11
-0.89,-0.56,0.06
-0.88,-0.55,0.01
-0.89,-0.54,-0.04
-0.9,-0.55,-0.07
-0.89,-0.56,-0.09
-0.86,-0.55,-0.1
-0.84,-0.53,-0.12
-0.81,-0.51,-0.14
-0.79,-0.49,-0.16
-0.75,-0.46,-0.19
-0.71,-0.44,-0.21
-0.68,-0.44,-0.2
-0.68,-0.46,-0.22
-0.68,-0.49,-0.24
-0.66,-0.5,-0.26
-0.65,-0.49,-0.28
-0.65,-0.47,-0.28
-0.65,-0.45,-0.3
-0.63,-0.42,-0.32
-0.6,-0.4,-0.33
-0.57,-0.38,-0.35
-0.53,-0.37,-0.37
-0.46,-0.35,-0.38
-0.39,-0.33,-0.35
-0.34,-0.3,-0.31
-0.31,-0.28,-0.27
-0.26,-0.23,-0.25
-0.2,-0.16,-0.23
-0.16,-0.11,-0.21
-0.11,-0.06,-0.17
-0.03,-0.02,-0.12
0.06,0.04,-0.09
0.14,0.11,-0.04
0.21,0.18,0.04
0.31,0.29,0.11
0.4,0.45,0.19
0.48,0.62,0.22
0.57,0.71,0.21
0.79,0.63,0.3
0.92,0.65,0.39
1.02,0.73,0.5
1.06,0.84,0.63
1.06,0.99,0.69
1.06,1.15,0.68
1.1,1.23,0.62
1.15,1.19,0.64
1.19,1.04,0.75
1.28,0.96,0.85
1.3,1.07,0.9
1.25,1.2,0.9
1.22,1.27,0.91
1.23,1.33,0.94
1.29,1.26,0.96
1.35,1.15,0.95
1.39,1.18,0.99
1.46,1.27,1.02
1.55,1.35,1.03
1.63,1.46,1.07
1.66,1.57,1.19
1.68,1.61,1.32
1.65,1.56,1.33
1.53,1.47,1.26
1.4,1.38,1.21
1.32,1.34,1.2
1.18,1.32,1.19
1.12,1.27,1.18
1.08,1.21,1.22
1.06,1.16,1.23
1.04,1.14,1.2
0.98,1.14,1.16
0.9,1.13,1.12
0.81,1.11,1.1
0.77,1.12,1.06
0.74,1.11,1.03
0.68,1.1,0.99
0.63,1.1,0.93
0.58,1.05,0.87
0.54,0.99,0.82
0.5,0.98,0.79
0.46,0.97,0.75
0.44,0.96,0.71
0.43,0.96,0.64
0.42,0.97,0.59
0.39,0.99,0.55
0.38,1,0.49
0.36,0.99,0.43
0.32,0.97,0.4
0.31,0.97,0.36
0.27,0.97,0.34
0.23,0.95,0.29
0.15,0.89,0.29
0.15,0.87,0.27
0.15,0.82,0.23
0.13,0.76,0.22
0.13,0.71,0.2
0.15,0.67,0.18
0.17,0.64,0.13
0.19,0.65,0.09
0.2,0.66,0.06
0.21,0.66,0.03
0.21,0.66,0.01
0.22,0.67,-0.02
0.23,0.66,-0.03
0.22,0.66,-0.03
0.2,0.68,-0.03
0.2,0.69,-0.03
0.22,0.7,-0.04
0.22,0.7,-0.04
0.24,0.71,-0.04
0.25,0.74,-0.05
0.28,0.78,-0.04
0.31,0.82,-0.03
0.31,0.85,0
0.31,0.85,0.03
0.32,0.85,0.06
0.32,0.84,0.12
0.31,0.79,0.13
0.32,0.78,0.13
0.33,0.77,0.13
0.36,0.77,0.13
0.38,0.79,0.14
0.41,0.82,0.14
0.43,0.84,0.15
0.45,0.84,0.16
0.47,0.85,0.17
0.47,0.86,0.18
0.45,0.88,0.19
0.45,0.9,0.21
0.47,0.91,0.22
0.5,0.92,0.22
0.51,0.93,0.21
0.51,0.93,0.21
0.51,0.92,0.21
0.52,0.92,0.22
0.54,0.93,0.23
0.55,0.96,0.24
0.57,0.98,0.25
0.58,1,0.24
0.59,1.03,0.25
0.62,1.05,0.26
0.64,1.06,0.28
0.63,1.05,0.32
0.62,1.04,0.33
0.62,1.04,0.35
0.63,1.06,0.37
0.64,1.1,0.38
0.69,1.13,0.37
0.75,1.16,0.36
0.79,1.19,0.35
0.8,1.2,0.36
0.79,1.19,0.38
0.77,1.16,0.39
0.74,1.1,0.38
0.74,1.07,0.38
0.78,1.07,0.43
0.81,1.08,0.49
0.89,1.08,0.54
1.01,1.07,0.62
1.09,1.02,0.71
1.11,0.93,0.78
0.98,0.87,0.86
0.9,0.84,0.89
0.9,0.71,0.83
0.77,0.62,0.9
0.84,0.65,1.03
1.07,0.61,1.04
1.08,0.54,1.01
0.99,0.51,0.84
0.82,0.33,0.88
0.78,0.24,0.99
0.73,0.18,1.08
0.64,0.11,1.06
0.57,0.05,0.97
0.57,0,0.86
0.58,-0.04,0.82
0.5,-0.08,0.82
0.41,-0.13,0.83
0.37,-0.2,0.83
0.35,-0.24,0.8
0.34,-0.26,0.76
0.35,-0.29,0.73
0.35,-0.32,0.69
0.32,-0.35,0.64
0.3,-0.38,0.59
0.29,-0.4,0.55
0.3,-0.41,0.51
0.32,-0.4,0.51
