Acc_x,Acc_y,Acc_z
0.31,0.97,0.41
0.33,0.98,0.42
0.35,0.99,0.44
0.37,1.02,0.6
0.45,1.08,0.67
0.51,1.08,0.74
0.53,1.08,0.89
0.56,1.11,1.02
0.58,1.15,1.09
0.57,1.2,1.14
0.56,1.25,1.2
0.57,1.31,1.26
0.58,1.36,1.33
0.59,1.4,1.38
0.66,1.44,1.37
0.72,1.48,1.38
0.77,1.52,1.37
0.8,1.54,1.37
0.82,1.56,1.38
0.81,1.61,1.38
0.78,1.65,1.34
0.72,1.67,1.28
0.66,1.64,1.25
0.65,1.57,1.24
0.71,1.52,1.22
0.77,1.5,1.23
0.82,1.52,1.25
0.85,1.55,1.22
0.8,1.57,1.18
0.74,1.56,1.14
0.72,1.46,1.02
0.72,1.41,0.98
0.71,1.37,0.96
0.7,1.31,0.94
0.73,1.24,0.9
0.72,1.2,0.86
0.67,1.14,0.82
0.6,1.04,0.79
0.51,0.94,0.75
0.42,0.87,0.73
0.38,0.78,0.68
0.34,0.68,0.64
0.31,0.58,0.59
0.29,0.59,0.6
0.22,0.58,0.62
0.16,0.44,0.58
0.16,0.3,0.54
0.15,0.25,0.52
0.12,0.28,0.51
0.1,0.25,0.48
0.11,0.13,0.44
0.1,0.06,0.42
0.03,0.05,0.39
0.02,0.06,0.31
0.01,0.07,0.29
-0.1,0.01,0.31
-0.2,0.02,0.35
-0.15,0.19,0.35
-0.22,0.02,0.25
-0.16,-0.22,0.15
-0.07,-0.2,0.1
-0.09,-0.16,0.02
-0.2,-0.14,-0.03
-0.32,-0.19,-0.05
-0.36,-0.2,-0.11
-0.36,-0.22,-0.21
-0.34,-0.29,-0.29
-0.32,-0.35,-0.33
-0.29,-0.41,-0.36
-0.23,-0.43,-0.4
-0.21,-0.45,-0.44
-0.22,-0.46,-0.49
-0.25,-0.46,-0.48
-0.26,-0.45,-0.49
-0.28,-0.47,-0.53
-0.28,-0.51,-0.56
-0.28,-0.55,-0.6
-0.3,-0.59,-0.62
-0.31,-0.64,-0.66
-0.32,-0.67,-0.7
-0.32,-0.69,-0.72
-0.32,-0.73,-0.75
-0.34,-0.82,-0.81
-0.36,-0.86,-0.82
-0.39,-0.89,-0.8
-0.43,-0.93,-0.76
-0.43,-0.96,-0.72
-0.43,-0.98,-0.68
-0.43,-1,-0.64
-0.43,-1.02,-0.61
-0.42,-1.03,-0.58
-0.41,-1.04,-0.54
-0.39,-1.03,-0.49
-0.36,-1.01,-0.44
-0.35,-1,-0.39
-0.35,-0.98,-0.36
-0.34,-0.96,-0.31
-0.33,-0.95,-0.26
-0.31,-0.93,-0.23
-0.29,-0.92,-0.2
-0.28,-0.9,-0.18
-0.27,-0.89,-0.16
-0.26,-0.89,-0.16
-0.26,-0.88,-0.17
-0.25,-0.88,-0.18
-0.25,-0.88,-0.19
-0.25,-0.87,-0.21
-0.25,-0.86,-0.23
-0.27,-0.87,-0.23
-0.28,-0.86,-0.25
-0.29,-0.85,-0.26
-0.31,-0.82,-0.28
-0.32,-0.8,-0.29
-0.31,-0.77,-0.3
-0.3,-0.74,-0.32
-0.3,-0.71,-0.32
-0.31,-0.7,-0.32
-0.3,-0.72,-0.32
-0.29,-0.72,-0.31
-0.28,-0.71,-0.31
-0.29,-0.68,-0.3
-0.29,-0.64,-0.29
-0.3,-0.6,-0.29
-0.28,-0.55,-0.29
-0.28,-0.51,-0.29
-0.27,-0.49,-0.28
-0.24,-0.48,-0.26
-0.2,-0.47,-0.24
-0.17,-0.44,-0.22
-0.15,-0.39,-0.2
-0.14,-0.34,-0.18
-0.13,-0.27,-0.17
-0.13,-0.21,-0.16
-0.12,-0.17,-0.15
-0.11,-0.26,0.09
0,-0.1,-0.02
0.04,0,0.03
0.08,0.06,0.06
0.11,0.13,0.1
0.12,0.21,0.12
0.13,0.29,0.13
0.14,0.35,0.13
0.16,0.39,0.17
0.23,0.45,0.26
0.34,0.53,0.35
0.44,0.65,0.42
0.51,0.79,0.48
0.53,0.93,0.5
0.52,1.05,0.47
0.55,1.09,0.43
0.65,1.02,0.47
0.78,0.99,0.55
0.86,1.08,0.63
0.89,1.26,0.7
0.87,1.46,0.79
0.84,1.58,0.84
0.83,1.64,0.88
0.83,1.67,0.94
0.82,1.64,0.99
0.81,1.66,0.9
0.75,1.76,1.05
0.59,2.08,1.09
0.58,2.16,1.1
0.58,2.15,1.11
0.63,2.07,1.14
0.71,1.99,1.11
0.75,1.97,1.09
0.75,1.99,1.09
0.76,2.06,1.08
0.73,2.16,1.08
0.68,2.17,1.08
0.65,2.11,1.02
0.68,1.99,0.96
0.72,1.88,0.95
0.77,1.78,0.95
0.8,1.74,0.92
0.79,1.72,0.88
0.78,1.66,0.85
0.78,1.58,0.82
0.8,1.51,0.8
0.79,1.46,0.79
0.78,1.4,0.78
0.77,1.32,0.77
0.77,1.26,0.79
0.77,1.21,0.82
0.76,1.18,0.83
0.74,1.06,0.87
0.65,1.02,0.91
0.36,1,1.12
0.11,1,1.25
0.39,0.99,1.02
0.73,0.94,0.78
0.74,0.91,0.72
0.68,0.9,0.73
0.71,0.9,0.69
0.73,0.91,0.64
0.69,0.93,0.6
0.64,0.95,0.55
0.6,0.97,0.5
0.55,1,0.48
0.51,1.03,0.47
0.48,1.03,0.43
0.47,1.05,0.41
0.45,1.07,0.38
0.43,1.09,0.36
0.41,1.11,0.34
0.4,1.12,0.31
0.4,1.13,0.29
0.39,1.13,0.27
0.37,1.13,0.24
0.36,1.13,0.22
0.36,1.12,0.2
0.35,1.11,0.19
0.36,1.1,0.19
0.34,1.1,0.19
0.33,1.1,0.2
0.33,1.09,0.2
0.33,1.06,0.24
0.33,1.04,0.3
0.38,1.02,0.29
0.4,1.01,0.3
0.4,1,0.38
0.47,1,0.45
0.55,1.06,0.53
0.59,1.09,0.69
0.67,1.08,0.81
0.77,1.08,0.87
0.83,1.12,0.94
0.85,1.16,1
0.89,1.19,1.06
0.94,1.23,1.11
0.98,1.3,1.12
0.98,1.34,1.14
1.02,1.36,1.14
1.12,1.37,1.09
1.21,1.4,1.04
1.27,1.42,1.05
1.3,1.45,1.07
1.32,1.46,1.06
1.26,1.47,1.03
1.21,1.47,0.99
1.18,1.46,0.93
1.16,1.44,0.9
1.16,1.4,0.88
1.17,1.35,0.87
1.17,1.31,0.87
1.15,1.26,0.86
1.13,1.2,0.82
1.1,1.13,0.77
1.07,1.07,0.77
1.07,1.02,0.77
1.06,0.99,0.75
1.02,0.95,0.73
0.97,0.89,0.7
0.93,0.82,0.68
0.88,0.77,0.67
0.83,0.71,0.65
0.78,0.65,0.64
0.76,0.6,0.64
0.73,0.53,0.61
0.68,0.49,0.57
0.63,0.48,0.53
0.58,0.45,0.48
0.51,0.38,0.45
0.47,0.28,0.42
0.41,0.1,0.43
0.37,0.04,0.43
0.37,0.04,0.41
0.34,0.02,0.35
0.26,-0.06,0.29
0.22,0,0.19
0.14,-0.03,0.11
0.08,-0.11,0.08
0.02,-0.34,0.01
-0.02,-0.35,-0.02
0.03,0.02,0
0.03,0.02,0.02
-0.09,-0.18,0.02
-0.17,-0.3,-0.06
-0.21,-0.37,-0.15
-0.31,-0.46,-0.21
-0.31,-0.46,-0.24
-0.31,-0.42,-0.25
-0.36,-0.43,-0.23
-0.39,-0.43,-0.21
-0.42,-0.44,-0.23
-0.4,-0.45,-0.26
-0.38,-0.46,-0.26
-0.39,-0.46,-0.26
-0.39,-0.46,-0.28
-0.4,-0.47,-0.31
-0.47,-0.53,-0.31
-0.49,-0.56,-0.32
-0.51,-0.59,-0.32
-0.54,-0.61,-0.31
-0.57,-0.64,-0.31
-0.59,-0.69,-0.33
-0.61,-0.71,-0.31
-0.61,-0.73,-0.3
-0.61,-0.76,-0.31
-0.63,-0.78,-0.31
-0.65,-0.84,-0.31
-0.66,-0.89,-0.32
-0.67,-0.93,-0.33
-0.66,-0.94,-0.34
-0.65,-0.93,-0.35
-0.63,-0.92,-0.35
-0.61,-0.91,-0.34
-0.58,-0.9,-0.34
-0.56,-0.89,-0.34
-0.53,-0.87,-0.33
-0.51,-0.86,-0.31
-0.49,-0.85,-0.28
-0.48,-0.84,-0.26
-0.47,-0.83,-0.25
-0.48,-0.81,-0.25
-0.48,-0.78,-0.25
-0.46,-0.71,-0.23
-0.45,-0.67,-0.22
-0.44,-0.63,-0.21
-0.44,-0.59,-0.19
-0.44,-0.56,-0.17
-0.43,-0.52,-0.16
-0.43,-0.48,-0.14
-0.41,-0.44,-0.13
-0.41,-0.41,-0.12
-0.41,-0.4,-0.12
-0.4,-0.4,-0.11
-0.39,-0.4,-0.09
-0.4,-0.4,-0.06
-0.41,-0.4,-0.04
-0.43,-0.39,-0.04
-0.45,-0.37,-0.05
-0.45,-0.37,-0.05
-0.43,-0.36,-0.05
-0.39,-0.36,-0.05
-0.35,-0.38,-0.04
-0.32,-0.41,-0.03
-0.3,-0.45,-0.01
-0.28,-0.48,0.02
-0.24,-0.48,0.04
-0.21,-0.45,0.06
-0.2,-0.39,0.09
-0.19,-0.33,0.1
-0.19,-0.4,0.08
-0.19,-0.46,0.06
-0.16,-0.46,0.02
-0.11,-0.43,0
-0.04,-0.36,0.05
0.1,-0.28,0.18
0.31,-0.19,0.29
0.5,-0.11,0.34
0.6,-0.07,0.33
0.61,-0.08,0.29
0.58,-0.1,0.24
0.56,-0.08,0.23
0.59,-0.03,0.23
0.66,0.03,0.28
0.78,0.11,0.42
0.95,0.19,0.58
1.09,0.23,0.65
1.2,0.23,0.62
1.26,0.25,0.57
1.26,0.31,0.53
1.2,0.42,0.55
1.13,0.59,0.61
1.1,0.71,0.75
1.14,0.76,0.87
1.21,0.79,0.94
1.28,0.81,0.81
1.34,0.91,0.72
1.34,1.06,0.67
1.32,1.23,0.65
1.27,1.39,0.71
1.24,1.51,0.86
1.24,1.54,0.99
1.2,1.55,1.05
1.13,1.6,1.03
1.03,1.65,0.99
0.9,1.82,0.78
0.93,1.93,0.77
0.95,1.98,0.76
0.97,2.02,0.77
0.96,2.02,0.77
0.95,1.96,0.75
0.94,1.87,0.7
0.93,1.78,0.67
0.94,1.69,0.67
0.96,1.58,0.67
0.98,1.47,0.66
0.98,1.34,0.64
0.95,1.23,0.63
0.92,1.15,0.62
0.9,1.11,0.63
0.86,1.06,0.67
0.76,1.04,0.68
0.56,1.02,0.96
0.03,1.02,1.38
-0.08,1.03,1.32
0.49,1,0.89
0.72,0.96,0.65
0.54,0.97,0.72
0.45,0.96,0.77
0.49,0.95,0.71
0.53,0.95,0.63
0.54,0.98,0.55
0.55,1,0.49
0.53,1.01,0.44
0.46,1.03,0.43
0.42,1.06,0.41
0.42,1.08,0.37
0.39,1.08,0.33
0.36,1.09,0.31
0.35,1.1,0.31
0.38,1.1,0.31
0.43,1.15,0.31
0.43,1.2,0.31
0.41,1.19,0.32
0.39,1.14,0.28
0.37,1.1,0.19
0.36,1.05,0.17
0.37,1.08,0.21
0.36,1.1,0.22
0.3,1.09,0.18
0.21,1.05,0.13
0.16,1.04,0.1
0.14,1.03,0.09
0.15,1.01,0.1
0.16,0.99,0.13
0.15,0.97,0.17
0.15,0.93,0.18
0.14,0.89,0.17
0.13,0.84,0.14
0.11,0.78,0.12
0.1,0.75,0.09
0.11,0.73,0.09
0.12,0.75,0.08
0.13,0.78,0.07
0.14,0.79,0.05
0.14,0.78,0.05
0.16,0.76,0.04
0.16,0.74,0.03
0.16,0.72,0.02
0.15,0.72,0.01
0.16,0.75,-0.01
0.16,0.77,-0.02
0.17,0.78,0
0.19,0.79,0.01
0.21,0.79,0.01
0.22,0.79,0
0.23,0.8,-0.01
0.25,0.82,-0.01
0.27,0.85,0
0.28,0.89,0.01
0.32,0.93,0.01
0.35,0.95,0.02
0.36,0.93,0.04
0.38,0.9,0.06
0.4,0.89,0.07
0.43,0.91,0.08
0.45,0.93,0.11
0.45,0.95,0.15
0.47,0.96,0.18
0.46,0.98,0.2
0.44,1,0.21
0.42,1,0.24
0.39,1.01,0.27
0.38,1.02,0.29
0.37,1.02,0.29
0.38,1.01,0.3
0.38,1.03,0.32
0.39,1.05,0.35
0.4,1.07,0.42
0.4,1.02,0.46
0.37,0.95,0.51
0.4,0.93,0.57
0.35,0.96,0.72
0.29,0.98,0.89
0.29,0.99,1.02
0.37,1.01,1.11
0.57,0.94,0.96
0.69,0.86,0.72
0.57,0.91,0.64
0.43,1,0.68
0.4,1.1,0.72
0.45,1.05,0.62
0.49,0.93,0.5
0.43,0.94,0.46
0.4,1.02,0.4
0.36,1.03,0.37
0.35,1,0.39
0.33,1,0.37
0.32,1,0.38
0.31,1.02,0.39
0.28,1.01,0.37
0.28,0.95,0.37
0.27,0.95,0.36
0.28,0.95,0.34
0.27,0.92,0.28
0.29,0.92,0.26
0.3,0.93,0.24
0.31,0.92,0.22
0.31,0.91,0.2
0.32,0.89,0.17
0.32,0.88,0.16
0.32,0.89,0.14
0.34,0.9,0.12
0.33,0.9,0.15
0.36,0.89,0.22
0.39,0.89,0.19
0.36,0.93,0.18
0.35,0.91,0.24
0.4,0.86,0.26
0.45,0.86,0.34
0.45,0.84,0.51
0.53,0.81,0.62
0.64,0.83,0.65
0.67,0.88,0.72
0.69,0.91,0.86
0.8,0.9,1
0.88,0.92,1.15
0.92,0.94,1.27
0.99,0.97,1.34
1,1,1.44
1.01,1.02,1.55
1.32,1.16,1.54
1.45,1.22,1.54
1.57,1.28,1.51
1.62,1.34,1.47
1.62,1.41,1.42
1.59,1.46,1.36
1.53,1.53,1.3
1.45,1.59,1.26
1.4,1.6,1.21
1.37,1.57,1.16
1.35,1.53,1.11
1.36,1.52,1.06
1.37,1.53,0.99
1.37,1.53,0.91
1.32,1.55,0.81
1.24,1.53,0.72
1.14,1.46,0.67
1.07,1.36,0.63
1.03,1.23,0.58
0.98,1.11,0.56
0.95,1.04,0.58
0.94,1.01,0.57
0.87,0.99,0.52
0.79,0.94,0.46
0.72,0.87,0.42
0.65,0.81,0.42
0.57,0.65,0.43
0.54,0.58,0.45
0.5,0.54,0.45
0.45,0.5,0.43
0.39,0.45,0.41
0.34,0.39,0.39
0.26,0.32,0.37
0.18,0.26,0.35
0.1,0.22,0.33
0.03,0.14,0.3
-0.04,0.04,0.26
-0.08,-0.03,0.27
-0.09,-0.07,0.28
-0.1,-0.11,0.26
-0.11,-0.13,0.21
-0.14,-0.12,0.16
-0.19,-0.12,0.11
-0.22,-0.11,0.06
-0.25,-0.15,0
-0.28,-0.22,-0.06
-0.3,-0.25,-0.14
-0.35,-0.32,-0.18
-0.22,-0.3,-0.22
-0.23,-0.12,-0.24
-0.31,-0.22,-0.19
-0.32,-0.35,-0.32
-0.45,-0.39,-0.38
-0.46,-0.41,-0.44
-0.52,-0.37,-0.45
-0.58,-0.44,-0.47
-0.61,-0.47,-0.51
-0.62,-0.51,-0.52
-0.59,-0.53,-0.51
-0.58,-0.56,-0.51
-0.57,-0.61,-0.51
-0.57,-0.65,-0.52
-0.59,-0.69,-0.52
-0.59,-0.76,-0.5
-0.58,-0.8,-0.48
-0.59,-0.81,-0.46
-0.59,-0.84,-0.43
-0.57,-0.91,-0.41
-0.55,-0.97,-0.38
-0.51,-1.02,-0.35
-0.46,-1.02,-0.31
-0.42,-0.98,-0.28
-0.38,-0.95,-0.25
-0.36,-0.93,-0.21
-0.34,-0.92,-0.17
-0.33,-0.93,-0.16
-0.32,-0.95,-0.17
-0.33,-0.94,-0.17
-0.31,-0.9,-0.15
-0.3,-0.89,-0.13
-0.29,-0.89,-0.12
-0.28,-0.89,-0.11
-0.29,-0.88,-0.09
-0.29,-0.86,-0.06
-0.3,-0.85,-0.04
-0.31,-0.84,-0.03
-0.32,-0.84,-0.03
-0.33,-0.84,-0.04
-0.34,-0.83,-0.05
-0.35,-0.83,-0.05
-0.35,-0.85,-0.05
-0.35,-0.86,-0.06
-0.34,-0.87,-0.06
-0.33,-0.87,-0.06
-0.32,-0.88,-0.06
-0.29,-0.87,-0.05
-0.26,-0.85,-0.05
-0.24,-0.84,-0.05
-0.22,-0.83,-0.04
-0.22,-0.82,-0.04
-0.23,-0.81,-0.04
-0.23,-0.78,-0.04
-0.23,-0.74,-0.05
-0.24,-0.7,-0.05
-0.28,-0.69,-0.07
-0.29,-0.67,-0.08
-0.31,-0.65,-0.09
-0.33,-0.62,-0.1
-0.33,-0.58,-0.1
-0.32,-0.55,-0.1
-0.31,-0.53,-0.1
-0.3,-0.54,-0.1
-0.29,-0.57,-0.11
-0.28,-0.6,-0.12
-0.28,-0.61,-0.12
-0.29,-0.6,-0.11
-0.29,-0.57,-0.1
-0.27,-0.52,-0.08
-0.25,-0.48,-0.08
-0.23,-0.46,-0.09
-0.19,-0.45,-0.11
-0.16,-0.43,-0.12
-0.12,-0.39,-0.12
-0.1,-0.32,-0.11
-0.05,-0.24,-0.06
0.01,-0.15,-0.01
0.08,-0.03,-0.02
0.12,0.03,-0.07
0.13,-0.01,-0.09
0.18,-0.09,-0.11
0.26,-0.01,-0.12
0.4,0.17,-0.07
0.5,0.38,0.02
0.62,0.55,0.13
0.76,0.65,0.24
0.86,0.64,0.35
0.92,0.59,0.43
0.93,0.56,0.47
0.88,0.59,0.51
0.83,0.69,0.55
0.81,0.84,0.61
0.8,1.02,0.71
0.85,1.17,0.89
1.03,1.24,1
1.22,1.22,0.97
1.31,1.16,0.87
1.34,1.2,0.8
1.39,1.38,0.79
1.41,1.63,0.87
1.42,1.8,1.04
1.46,1.79,1.22
1.44,1.71,1.34
1.43,1.59,1.37
1.28,1.62,1.36
1,1.52,1.26
0.91,1.41,1.24
0.93,1.58,1.31
1.04,1.56,1.27
1.1,1.45,1.21
1.13,1.34,1.17
1.06,1.24,1.11
0.96,1.16,1.03
0.88,1.16,0.96
0.76,1.18,0.93
0.62,1.18,0.92
0.51,1.17,0.89
0.42,1.14,0.87
0.32,1.1,0.84
0.24,1.08,0.82
0.17,1.04,0.82
0.13,1,0.83
0.11,0.97,0.82
0.09,0.95,0.79
0.09,0.95,0.73
0.1,0.94,0.67
0.11,0.95,0.63
0.13,0.98,0.6
0.14,1,0.56
0.14,1.02,0.51
0.15,1.04,0.48
0.19,1.04,0.46
0.24,1.05,0.46
0.27,1.02,0.45
0.3,1,0.44
0.31,1.01,0.42
0.27,1.03,0.43
0.16,1.03,0.47
0.01,1.05,0.52
-0.09,1.1,0.57
-0.2,1.09,0.61
-0.24,1.04,0.58
-0.13,1.02,0.47
0.04,1.02,0.39
0.15,1,0.35
0.22,0.97,0.31
0.21,0.96,0.24
0.17,0.95,0.21
0.14,0.94,0.21
0.1,0.93,0.19
0.06,0.92,0.15
0.02,0.94,0.13
-0.01,0.99,0.12
-0.01,1.01,0.1
0.01,0.99,0.1
0.04,0.95,0.09
0.09,0.91,0.09
0.11,0.87,0.08
0.11,0.87,0.07
0.1,0.95,0.02
0.07,0.98,0.01
0.07,0.97,0.03
0.11,0.96,0.05
0.14,0.93,0.07
0.15,0.92,0.1
0.16,0.94,0.13
0.18,0.96,0.15
0.18,0.98,0.19
0.19,0.97,0.24
0.22,0.95,0.26
0.22,0.93,0.29
0.22,0.92,0.32
0.24,0.94,0.33
0.24,0.96,0.32
0.24,0.97,0.32
0.27,0.97,0.33
0.29,0.98,0.34
0.33,1.02,0.35
0.34,1.05,0.38
0.36,1.06,0.41
0.37,1.04,0.44
0.34,0.99,0.46
0.31,0.96,0.48
0.28,0.95,0.5
0.25,0.94,0.52
0.22,0.96,0.57
0.17,0.97,0.63
0.18,0.98,0.69
0.22,0.98,0.76
0.27,0.98,0.83
0.31,1,0.87
0.31,1.04,0.89
0.31,1.08,0.92
0.31,1.1,0.98
0.28,1.14,1.08
0.25,1.18,1.17
0.25,1.23,1.22
0.21,1.28,1.22
0.16,1.3,1.27
0.2,1.32,1.29
0.29,1.39,1.29
0.35,1.41,1.33
0.41,1.38,1.36
0.41,1.33,1.39
0.44,1.31,1.38
0.56,1.37,1.35
0.64,1.43,1.33
0.71,1.45,1.3
0.77,1.49,1.29
0.82,1.51,1.28
0.89,1.47,1.25
0.98,1.45,1.21
1.15,1.5,1.19
1.19,1.47,1.15
1.2,1.43,1.09
1.15,1.4,1.04
1.09,1.36,0.99
1.09,1.32,0.93
1.05,1.27,0.92
0.97,1.21,0.89
0.99,1.11,0.84
1.05,1.02,0.78
1.02,0.97,0.75
1.02,0.89,0.71
1.02,0.83,0.68
1.02,0.81,0.63
1.03,0.75,0.58
0.97,0.7,0.55
0.96,0.69,0.5
0.92,0.66,0.48
0.87,0.6,0.46
0.82,0.54,0.44
0.76,0.51,0.41
0.68,0.46,0.37
0.59,0.45,0.34
0.5,0.46,0.29
0.4,0.4,0.24
0.3,0.32,0.15
0.18,0.24,0.1
0.13,0.18,0.06
0.1,0.16,0
0.05,0.13,-0.06
0,0.05,-0.1
-0.02,-0.06,-0.13
-0.02,-0.13,-0.14
-0.05,-0.23,-0.14
-0.08,-0.29,-0.13
-0.11,-0.24,-0.12
-0.2,-0.24,-0.09
-0.28,-0.32,-0.06
-0.29,-0.36,-0.06
-0.29,-0.37,-0.06
-0.31,-0.45,-0.08
-0.31,-0.52,-0.09
-0.27,-0.56,-0.09
-0.24,-0.6,-0.1
-0.28,-0.61,-0.1
-0.35,-0.55,-0.1
-0.47,-0.48,-0.1
-0.61,-0.44,-0.12
-0.68,-0.46,-0.15
-0.72,-0.5,-0.16
-0.73,-0.53,-0.18
-0.72,-0.59,-0.22
-0.69,-0.66,-0.26
-0.67,-0.68,-0.28
-0.66,-0.68,-0.31
-0.66,-0.7,-0.33
-0.67,-0.73,-0.34
-0.68,-0.77,-0.34
-0.69,-0.81,-0.33
-0.68,-0.84,-0.31
-0.66,-0.88,-0.3
-0.64,-0.91,-0.29
-0.61,-0.94,-0.29
-0.57,-0.93,-0.29
-0.52,-0.91,-0.26
-0.49,-0.89,-0.22
-0.47,-0.91,-0.18
-0.45,-0.96,-0.14
-0.42,-0.99,-0.11
-0.4,-0.97,-0.1
-0.38,-0.93,-0.08
-0.36,-0.91,-0.04
-0.32,-0.92,0.01
-0.29,-0.94,0.03
-0.28,-0.93,0.01
-0.29,-0.91,-0.02
-0.31,-0.89,-0.03
-0.32,-0.9,0.02
-0.31,-0.94,0.01
-0.32,-0.93,0
-0.32,-0.91,-0.01
-0.32,-0.87,-0.01
-0.32,-0.85,-0.02
-0.33,-0.84,-0.03
-0.36,-0.82,-0.06
-0.4,-0.81,-0.08
-0.43,-0.8,-0.1
-0.45,-0.77,-0.15
-0.47,-0.74,-0.18
-0.5,-0.71,-0.2
-0.53,-0.68,-0.21
-0.55,-0.64,-0.22
-0.56,-0.59,-0.23
-0.58,-0.56,-0.25
-0.6,-0.53,-0.27
-0.61,-0.51,-0.29
-0.61,-0.49,-0.3
-0.62,-0.47,-0.32
-0.64,-0.46,-0.32
-0.66,-0.46,-0.31
-0.67,-0.46,-0.3
-0.68,-0.44,-0.3
-0.69,-0.42,-0.3
-0.69,-0.39,-0.29
-0.62,-0.31,-0.3
-0.57,-0.27,-0.3
-0.5,-0.26,-0.29
-0.42,-0.23,-0.26
-0.31,-0.19,-0.21
-0.22,-0.15,-0.14
-0.15,-0.1,-0.09
-0.09,-0.03,-0.06
-0.04,0.03,-0.05
-0.03,0.06,-0.04
0.01,0.08,0.02
0.08,0.1,0.09
0.17,0.16,0.16
0.26,0.23,0.24
0.32,0.32,0.29
0.36,0.41,0.32
0.41,0.51,0.33
0.45,0.56,0.29
0.49,0.58,0.27
0.58,0.61,0.3
0.76,0.66,0.33
0.98,0.74,0.41
1.08,0.82,0.52
1.12,0.94,0.6
1.1,1.06,0.66
1.04,1.15,0.77
1.02,1.15,0.89
1.13,1.14,0.99
1.27,1.19,1.03
1.36,1.25,1.05
1.37,1.32,1.03
1.29,1.4,1.07
1.2,1.42,1.17
1.17,1.35,1.25
1.14,1.3,1.28
1.06,1.32,1.32
0.94,1.39,1.33
0.82,1.54,1.32
0.69,1.62,1.29
0.64,1.67,1.27
0.69,1.67,1.28
0.74,1.58,1.26
0.81,1.53,1.21
0.84,1.53,1.13
0.82,1.55,1.05
0.78,1.59,1
0.76,1.62,0.96
0.77,1.64,0.92
0.79,1.66,0.88
0.81,1.65,0.84
0.84,1.61,0.8
0.89,1.55,0.76
0.97,1.42,0.71
0.98,1.35,0.69
0.94,1.29,0.67
0.89,1.24,0.67
0.84,1.19,0.68
0.79,1.15,0.7
0.74,1.11,0.72
0.71,1.08,0.73
0.69,1.06,0.75
0.65,1.04,0.76
0.62,1.02,0.75
0.61,1,0.74
0.59,0.97,0.72
0.58,0.94,0.7
0.57,0.92,0.68
0.55,0.92,0.66
0.54,0.93,0.64
0.53,0.94,0.62
0.51,0.95,0.59
0.49,0.96,0.55
0.46,0.97,0.51
0.44,0.99,0.48
0.43,1,0.46
0.41,1.02,0.44
0.41,1.04,0.4
0.4,1.05,0.36
0.37,1.02,0.34
0.38,1.02,0.33
0.37,1.01,0.35
0.36,0.99,0.4
0.4,0.99,0.43
0.42,1.01,0.43
0.41,1.02,0.46
0.45,1.02,0.5
0.55,1.06,0.53
0.64,1.1,0.57
0.69,1.12,0.63
0.76,1.15,0.68
0.81,1.17,0.73
0.82,1.19,0.8
0.84,1.21,0.86
0.89,1.25,0.89
0.9,1.27,0.95
0.93,1.27,1.01
0.99,1.29,1.05
1.05,1.3,1.06
1.1,1.33,1.05
1.12,1.37,1.04
1.16,1.4,1.04
1.21,1.42,1.04
1.25,1.46,1.02
1.29,1.5,0.99
1.32,1.53,0.95
1.31,1.53,0.93
1.29,1.5,0.91
1.28,1.45,0.89
1.29,1.4,0.87
1.3,1.37,0.87
1.31,1.38,0.86
1.32,1.39,0.84
1.3,1.37,0.8
1.25,1.33,0.76
1.22,1.24,0.73
1.21,1.15,0.71
1.19,1.11,0.72
1.19,1.08,0.72
1.2,1.05,0.69
1.14,1.01,0.64
1.08,0.94,0.58
1.03,0.86,0.54
0.99,0.79,0.51
0.94,0.71,0.51
0.91,0.68,0.51
0.95,0.68,0.46
0.87,0.65,0.46
0.77,0.6,0.47
0.71,0.52,0.42
0.62,0.39,0.37
0.59,0.3,0.33
0.52,0.29,0.29
0.43,0.22,0.29
0.37,0.19,0.27
0.32,0.13,0.26
0.3,0.14,0.25
0.29,0.14,0.18
0.21,0.03,0.12
0.17,-0.01,0.1
0.11,-0.06,0.06
0.07,-0.13,0
0.08,-0.07,0
0.06,-0.05,-0.03
0.03,-0.07,-0.09
-0.01,-0.06,-0.14
-0.06,-0.11,-0.19
-0.12,-0.33,-0.19
-0.18,-0.29,-0.22
-0.26,-0.12,-0.29
-0.36,-0.27,-0.29
-0.38,-0.3,-0.28
-0.41,-0.28,-0.28
-0.42,-0.34,-0.27
-0.47,-0.34,-0.3
-0.56,-0.36,-0.35
-0.61,-0.39,-0.37
-0.69,-0.45,-0.37
-0.81,-0.5,-0.38
-0.84,-0.51,-0.39
-0.86,-0.57,-0.42
-0.87,-0.59,-0.45
-0.92,-0.6,-0.47
-0.95,-0.62,-0.48
-0.98,-0.63,-0.49
-0.99,-0.65,-0.48
-0.99,-0.68,-0.47
-0.98,-0.72,-0.45
-0.95,-0.75,-0.44
-0.92,-0.78,-0.41
-0.9,-0.8,-0.38
-0.87,-0.82,-0.37
-0.85,-0.82,-0.35
-0.81,-0.84,-0.33
-0.77,-0.85,-0.3
-0.71,-0.87,-0.26
-0.66,-0.88,-0.23
-0.61,-0.9,-0.19
-0.56,-0.9,-0.13
-0.5,-0.9,-0.07
-0.47,-0.9,-0.04
-0.44,-0.9,-0.02
-0.41,-0.89,-0.02
-0.4,-0.92,-0.01
-0.34,-0.94,0
-0.28,-0.96,0.02
-0.24,-0.97,0.04
-0.22,-0.97,0.05
-0.22,-0.97,0.04
-0.22,-0.97,0.02
-0.22,-0.98,0.02
-0.22,-0.99,0.03
-0.21,-1,0.04
-0.21,-1,0.07
-0.21,-0.99,0.08
-0.22,-0.98,0.07
-0.23,-0.97,0.06
-0.24,-0.96,0.06
-0.26,-0.96,0.07
-0.26,-0.97,0.08
-0.26,-0.98,0.09
-0.27,-0.99,0.1
-0.28,-0.98,0.09
-0.29,-0.96,0.09
-0.3,-0.95,0.09
-0.31,-0.94,0.1
-0.31,-0.93,0.11
-0.3,-0.94,0.11
-0.3,-0.95,0.11
-0.31,-0.95,0.1
-0.33,-0.94,0.1
-0.34,-0.94,0.11
-0.33,-0.95,0.12
-0.33,-0.96,0.13
-0.32,-0.96,0.15
-0.31,-0.95,0.16
-0.3,-0.94,0.16
-0.29,-0.94,0.17
-0.27,-0.93,0.18
-0.27,-0.92,0.19
-0.28,-0.91,0.21
-0.27,-0.9,0.23
-0.27,-0.88,0.23
-0.28,-0.87,0.24
-0.3,-0.86,0.24
-0.32,-0.85,0.23
-0.33,-0.85,0.21
-0.34,-0.85,0.2
-0.35,-0.84,0.19
-0.36,-0.83,0.17
-0.38,-0.82,0.15
-0.4,-0.8,0.12
-0.43,-0.78,0.1
-0.47,-0.77,0.09
-0.5,-0.75,0.06
-0.52,-0.72,0.02
-0.55,-0.66,0
-0.56,-0.64,-0.01
-0.56,-0.63,-0.02
-0.56,-0.63,-0.02
-0.57,-0.62,-0.04
-0.59,-0.62,-0.05
-0.61,-0.6,-0.06
-0.62,-0.57,-0.07
-0.63,-0.53,-0.08
-0.63,-0.5,-0.1
-0.62,-0.46,-0.11
-0.59,-0.43,-0.12
-0.55,-0.41,-0.12
-0.49,-0.38,-0.11
-0.43,-0.33,-0.09
-0.38,-0.3,-0.08
-0.34,-0.26,-0.07
-0.31,-0.19,-0.06
-0.3,-0.17,-0.05
-0.25,-0.17,-0.03
-0.19,-0.12,0.01
-0.15,-0.13,0.05
-0.13,-0.16,0.08
-0.07,-0.1,0.11
-0.02,-0.02,0.12
0.02,0.06,0.13
0.05,0.03,0.18
0.14,0.06,0.3
0.3,0.12,0.4
0.43,0.18,0.47
0.52,0.24,0.5
0.57,0.31,0.47
0.6,0.4,0.44
0.63,0.47,0.4
0.7,0.5,0.4
0.79,0.47,0.46
0.92,0.49,0.54
1.05,0.59,0.64
1.12,0.69,0.7
1.14,0.76,0.66
1.15,0.86,0.6
1.16,1,0.58
1.15,1.02,0.65
1.21,1.03,0.77
1.25,1.01,0.87
1.25,0.99,0.91
1.25,1.05,0.89
1.23,1.13,0.84
1.22,1.22,0.77
1.23,1.29,0.75
1.27,1.3,0.81
1.36,1.27,0.88
1.44,1.31,0.89
1.38,1.36,0.9
1.2,1.41,0.88
1.01,1.45,0.86
0.91,1.5,0.86
0.89,1.54,0.86
0.9,1.53,0.86
0.96,1.52,0.82
1.02,1.52,0.77
1.05,1.52,0.72
1.05,1.53,0.68
1.01,1.53,0.65
0.95,1.5,0.64
0.89,1.48,0.63
0.87,1.46,0.64
0.87,1.43,0.65
0.87,1.4,0.67
0.88,1.36,0.67
0.87,1.32,0.66
0.85,1.28,0.66
0.84,1.24,0.66
0.83,1.21,0.68
0.81,1.19,0.69
0.78,1.16,0.71
0.75,1.14,0.73
0.71,1.11,0.73
0.64,1.07,0.73
0.61,1.04,0.72
0.58,1.02,0.72
0.56,1.01,0.71
0.54,1,0.69
0.52,0.99,0.68
0.5,0.98,0.66
0.49,0.98,0.63
0.46,0.97,0.6
0.42,0.97,0.56
0.39,0.97,0.52
0.35,0.98,0.48
0.33,0.99,0.45
0.32,1,0.43
0.3,1.01,0.4
0.28,1.01,0.36
0.27,1.02,0.33
0.25,1.02,0.3
0.23,1.03,0.28
0.22,1.03,0.25
0.21,1.03,0.23
0.19,1.02,0.21
0.19,1.02,0.2
0.19,1.01,0.18
0.18,1.01,0.17
0.16,1.01,0.15
0.14,1.01,0.14
0.12,1,0.12
0.12,0.98,0.11
0.12,0.96,0.11
0.12,0.93,0.11
0.12,0.91,0.11
0.1,0.91,0.11
0.08,0.92,0.11
0.09,0.92,0.11
0.08,0.91,0.1
0.09,0.9,0.1
0.1,0.88,0.08
0.12,0.86,0.08
0.14,0.85,0.07
0.16,0.84,0.08
0.18,0.84,0.09
0.21,0.84,0.1
0.24,0.85,0.11
0.26,0.85,0.13
0.27,0.85,0.15
0.27,0.85,0.16
0.27,0.85,0.19
0.27,0.86,0.22
0.29,0.86,0.27
0.32,0.86,0.31
0.34,0.88,0.34
0.4,0.91,0.42
0.44,0.92,0.46
0.47,0.92,0.5
0.5,0.91,0.55
0.54,0.89,0.58
0.59,0.88,0.62
0.64,0.9,0.69
0.7,0.93,0.75
0.73,0.96,0.81
0.74,0.98,0.85
0.76,0.98,0.87
0.79,0.99,0.9
0.83,1.01,0.93
0.86,1.04,0.98
0.88,1.07,1.01
0.89,1.09,1.03
0.88,1.1,1.05
0.86,1.1,1.08
0.86,1.1,1.08
0.88,1.11,1.08
0.88,1.14,1.08
0.88,1.16,1.1
0.89,1.19,1.12
0.9,1.22,1.1
0.9,1.25,1.06
0.9,1.27,1.04
0.91,1.33,1.02
0.97,1.35,0.99
0.97,1.35,0.95
0.97,1.34,0.92
0.98,1.31,0.89
0.99,1.28,0.86
0.98,1.27,0.84
0.99,1.24,0.82
1.02,1.24,0.81
1.05,1.26,0.8
1.07,1.26,0.79
1.07,1.22,0.78
1.07,1.17,0.77
1.05,1.11,0.79
1.04,1.04,0.79
1.03,1,0.81
1.01,0.98,0.82
1.02,0.97,0.84
1,0.97,0.84
0.96,0.94,0.83
0.92,0.9,0.81
0.87,0.83,0.79
0.84,0.78,0.77
0.83,0.78,0.77
0.82,0.77,0.77
0.77,0.73,0.73
0.7,0.67,0.62
0.63,0.65,0.56
0.62,0.58,0.51
0.59,0.47,0.53
0.59,0.37,0.53
0.62,0.37,0.49
0.63,0.34,0.43
0.57,0.41,0.35
0.44,0.46,0.26
0.27,0.28,0.19
0.17,0.23,0.16
0.15,0.33,0.18
0.12,0.27,0.2
0.11,0.05,0.17
0.11,-0.07,0.14
0.06,-0.04,0.14
-0.02,-0.01,0.12
-0.11,-0.07,0.08
-0.23,-0.1,0.04
-0.34,-0.13,0.01
-0.4,-0.24,-0.01
-0.4,-0.31,-0.02
-0.38,-0.32,-0.01
-0.37,-0.34,-0.05
-0.38,-0.36,-0.09
-0.44,-0.39,-0.1
-0.5,-0.45,-0.1
-0.53,-0.51,-0.11
-0.54,-0.58,-0.12
-0.54,-0.61,-0.15
-0.56,-0.66,-0.18
-0.56,-0.65,-0.18
-0.57,-0.64,-0.21
-0.58,-0.65,-0.23
-0.58,-0.68,-0.23
-0.58,-0.74,-0.23
-0.57,-0.78,-0.23
-0.58,-0.81,-0.22
-0.58,-0.84,-0.22
-0.59,-0.86,-0.21
-0.61,-0.88,-0.2
-0.62,-0.91,-0.18
-0.61,-0.95,-0.18
-0.57,-0.98,-0.18
-0.57,-0.98,-0.18
-0.54,-1,-0.17
-0.53,-0.99,-0.15
-0.52,-0.97,-0.14
-0.51,-0.93,-0.13
-0.52,-0.89,-0.11
-0.52,-0.91,-0.09
-0.51,-0.92,-0.08
-0.52,-0.95,-0.05
-0.51,-0.95,-0.04
-0.5,-0.95,-0.03
-0.52,-0.95,-0.02
-0.52,-0.94,-0.01
-0.51,-0.94,0.01
-0.51,-0.93,0.01
-0.51,-0.91,0.02
-0.49,-0.89,0.03
-0.48,-0.89,0.05
-0.47,-0.89,0.07
-0.46,-0.9,0.09
-0.44,-0.91,0.1
-0.44,-0.9,0.1
-0.44,-0.9,0.1
-0.44,-0.89,0.1
-0.44,-0.88,0.11
-0.45,-0.88,0.12
-0.44,-0.88,0.13
-0.44,-0.89,0.14
-0.44,-0.9,0.16
-0.46,-0.91,0.16
-0.46,-0.91,0.15
-0.48,-0.91,0.14
-0.48,-0.9,0.14
-0.46,-0.9,0.13
-0.44,-0.88,0.12
-0.43,-0.89,0.11
-0.42,-0.89,0.1
-0.43,-0.89,0.1
-0.43,-0.89,0.1
-0.43,-0.88,0.1
-0.43,-0.87,0.09
-0.42,-0.87,0.09
-0.42,-0.87,0.09
-0.41,-0.89,0.09
-0.4,-0.91,0.09
-0.39,-0.92,0.1
-0.38,-0.92,0.1
-0.39,-0.91,0.11
-0.4,-0.9,0.11
-0.39,-0.9,0.11
-0.38,-0.9,0.13
-0.38,-0.9,0.14
-0.38,-0.9,0.14
-0.37,-0.91,0.16
-0.37,-0.91,0.17
-0.36,-0.91,0.17
-0.36,-0.9,0.18
-0.36,-0.9,0.19
-0.36,-0.91,0.19
-0.36,-0.92,0.2
-0.37,-0.92,0.17
-0.37,-0.9,0.14
-0.37,-0.87,0.13
-0.37,-0.86,0.15
-0.37,-0.87,0.18
-0.33,-0.89,0.21
-0.29,-0.92,0.22
-0.27,-0.94,0.22
-0.29,-0.94,0.21
-0.31,-0.94,0.2
-0.34,-0.93,0.2
-0.34,-0.93,0.21
-0.34,-0.93,0.22
-0.34,-0.93,0.22
-0.33,-0.95,0.22
-0.33,-0.96,0.21
-0.34,-0.97,0.19
-0.36,-0.96,0.18
-0.37,-0.96,0.16
-0.37,-0.95,0.15
-0.37,-0.93,0.14
-0.37,-0.9,0.13
-0.36,-0.86,0.11
-0.35,-0.83,0.08
-0.35,-0.79,0.04
-0.36,-0.74,-0.02
-0.43,-0.64,-0.04
-0.48,-0.6,-0.06
-0.52,-0.57,-0.09
-0.54,-0.56,-0.11
-0.57,-0.55,-0.13
-0.58,-0.54,-0.16
-0.6,-0.53,-0.18
-0.62,-0.52,-0.19
-0.61,-0.49,-0.19
-0.6,-0.45,-0.18
-0.57,-0.41,-0.16
-0.55,-0.38,-0.12
-0.53,-0.38,-0.09
-0.51,-0.36,-0.07
-0.48,-0.35,-0.05
-0.44,-0.33,-0.04
-0.4,-0.31,-0.02
-0.36,-0.28,0.02
-0.3,-0.23,0.09
-0.22,-0.19,0.15
-0.17,-0.19,0.2
-0.11,-0.18,0.22
-0.03,-0.14,0.21
0.04,-0.09,0.23
0.1,-0.07,0.24
0.15,-0.05,0.25
0.21,0.08,0.3
0.31,0.09,0.37
0.48,0.16,0.42
0.62,0.2,0.43
0.64,0.18,0.43
0.6,0.16,0.42
0.56,0.16,0.41
0.57,0.23,0.43
0.58,0.29,0.44
0.59,0.3,0.44
0.64,0.35,0.47
0.72,0.43,0.54
0.82,0.5,0.58
0.87,0.56,0.6
0.89,0.63,0.6
0.9,0.72,0.58
0.88,0.79,0.62
0.86,0.82,0.71
0.9,0.86,0.8
0.98,0.97,0.87
1.04,1.12,0.92
1.06,1.28,0.95
1.02,1.4,0.97
0.97,1.46,1.03
0.94,1.48,1.11
0.92,1.47,1.2
0.77,1.54,1.21
0.66,1.6,1.21
0.61,1.7,1.17
0.56,1.81,1.17
0.53,1.87,1.17
0.53,1.87,1.17
0.57,1.81,1.14
0.61,1.71,1.1
0.67,1.63,1.07
0.74,1.6,1.01
0.74,1.56,0.98
0.72,1.49,0.97
0.71,1.42,0.95
0.66,1.36,0.93
0.61,1.31,0.91
0.53,1.27,0.94
0.47,1.22,0.98
0.44,1.19,0.97
0.4,1.17,0.95
0.35,1.14,0.93
0.32,1.11,0.91
0.3,1.08,0.89
0.31,1.06,0.86
0.31,1.06,0.82
0.31,1.05,0.78
0.3,1.03,0.72
0.32,0.95,0.68
0.32,0.91,0.65
0.32,0.87,0.61
0.31,0.85,0.57
0.32,0.85,0.54
0.32,0.87,0.52
0.32,0.9,0.49
0.32,0.92,0.47
0.32,0.95,0.45
0.33,0.98,0.43
0.33,0.99,0.41
0.33,0.99,0.4
0.34,0.99,0.39
0.35,0.99,0.37
0.34,0.99,0.36
0.33,0.98,0.35
0.32,0.97,0.35
0.31,0.98,0.34
0.3,0.98,0.34
0.29,0.97,0.33
0.28,0.96,0.32
0.28,0.94,0.31
0.28,0.92,0.31
0.3,0.91,0.31
0.32,0.9,0.31
0.33,0.9,0.32
0.36,0.89,0.35
0.36,0.92,0.35
0.33,0.93,0.39
0.33,0.93,0.45
0.38,0.95,0.5
0.41,0.99,0.56
0.43,1.02,0.62
0.49,1.04,0.65
0.56,1.06,0.7
0.63,1.07,0.81
0.74,1.08,0.93
0.84,1.11,1
0.88,1.15,1.04
0.87,1.16,1.06
0.88,1.17,1.1
0.92,1.18,1.17
0.96,1.18,1.21
0.99,1.19,1.26
1.03,1.19,1.33
1.08,1.21,1.36
1.1,1.23,1.34
1.08,1.27,1.34
1.07,1.34,1.32
1.06,1.4,1.28
1.05,1.42,1.28
1.07,1.43,1.27
1.11,1.42,1.21
1.21,1.42,1.16
1.25,1.41,1.09
1.27,1.41,1.04
1.25,1.37,1
1.2,1.31,0.94
1.14,1.24,0.9
1.08,1.18,0.85
1.06,1.12,0.78
1.03,1.07,0.72
0.97,1.02,0.69
0.92,0.99,0.65
0.96,0.96,0.59
1,0.9,0.55
0.94,0.83,0.52
0.92,0.75,0.48
0.9,0.68,0.44
0.83,0.64,0.41
0.74,0.59,0.38
0.72,0.56,0.34
0.69,0.53,0.34
0.66,0.47,0.34
0.63,0.4,0.36
0.6,0.32,0.35
0.53,0.25,0.32
0.45,0.2,0.32
0.39,0.12,0.31
0.26,0.09,0.32
0.24,0.04,0.3
0.24,-0.01,0.3
0.19,-0.09,0.32
0.15,-0.15,0.31
0.14,-0.13,0.29
0.11,-0.16,0.28
0.08,-0.24,0.25
0.06,-0.29,0.23
0.01,-0.31,0.24
-0.03,-0.37,0.24
-0.05,-0.34,0.22
-0.09,-0.27,0.21
-0.16,-0.3,0.19
-0.24,-0.36,0.17
-0.29,-0.36,0.15
-0.32,-0.35,0.13
-0.37,-0.37,0.08
-0.43,-0.37,0.02
-0.48,-0.37,-0.02
-0.54,-0.39,-0.03
-0.57,-0.43,-0.05
-0.55,-0.45,-0.12
-0.57,-0.5,-0.17
-0.61,-0.57,-0.18
-0.59,-0.55,-0.28
-0.71,-0.56,-0.31
-0.75,-0.57,-0.31
-0.8,-0.57,-0.32
-0.84,-0.57,-0.36
-0.89,-0.56,-0.39
-0.91,-0.55,-0.39
-0.92,-0.57,-0.41
-0.94,-0.57,-0.43
-0.93,-0.58,-0.43
-0.95,-0.65,-0.45
-0.98,-0.69,-0.47
-0.96,-0.67,-0.47
-0.97,-0.65,-0.45
-0.98,-0.68,-0.42
-0.96,-0.74,-0.38
-0.93,-0.8,-0.36
-0.9,-0.83,-0.37
-0.89,-0.84,-0.36
-0.85,-0.84,-0.35
-0.81,-0.84,-0.3
-0.77,-0.87,-0.24
-0.71,-0.91,-0.22
-0.68,-0.94,-0.21
-0.66,-0.94,-0.21
-0.62,-0.91,-0.18
-0.59,-0.87,-0.07
-0.5,-0.88,-0.04
-0.46,-0.91,-0.03
-0.42,-0.92,-0.02
-0.39,-0.91,-0.01
-0.35,-0.89,0.02
-0.32,-0.89,0.06
-0.28,-0.92,0.09
-0.25,-0.94,0.12
-0.23,-0.97,0.14
-0.23,-0.99,0.17
-0.23,-0.98,0.2
-0.2,-0.97,0.22
-0.16,-0.97,0.25
-0.14,-0.99,0.26
-0.13,-1,0.26
-0.13,-0.97,0.25
-0.15,-0.95,0.26
-0.16,-0.95,0.26
-0.17,-0.97,0.24
-0.17,-0.96,0.23
-0.15,-0.94,0.23
-0.13,-0.91,0.22
-0.26,-0.8,0.12
-0.27,-0.8,0.12
-0.29,-0.81,0.12
-0.31,-0.81,0.11
-0.32,-0.8,0.08
-0.34,-0.79,0.07
-0.35,-0.76,0.06
-0.35,-0.73,0.06
-0.35,-0.71,0.05
-0.36,-0.68,0.04
-0.38,-0.66,0.03
-0.42,-0.63,0
-0.45,-0.59,-0.02
-0.47,-0.55,-0.04
-0.48,-0.51,-0.07
-0.49,-0.48,-0.1
-0.49,-0.46,-0.13
-0.49,-0.44,-0.14
-0.47,-0.42,-0.17
-0.46,-0.4,-0.2
-0.44,-0.37,-0.22
-0.42,-0.34,-0.18
-0.46,-0.32,-0.14
-0.47,-0.33,-0.17
-0.5,-0.32,-0.22
-0.56,-0.29,-0.24
-0.54,-0.28,-0.24
-0.5,-0.25,-0.23
-0.45,-0.21,-0.22
-0.38,-0.2,-0.17
-0.32,-0.21,-0.12
-0.25,-0.22,-0.08
-0.19,-0.23,-0.06
-0.16,-0.21,-0.02
-0.14,-0.17,0.04
-0.1,-0.13,0.09
-0.05,-0.1,0.14
-0.01,-0.08,0.16
-0.01,-0.1,0.15
0.04,-0.12,0.18
0.06,-0.13,0.27
0.14,-0.09,0.33
0.27,0,0.34
0.35,0.08,0.36
0.45,0.23,0.38
0.58,0.34,0.43
0.76,0.38,0.54
0.9,0.38,0.69
1.02,0.37,0.71
1.03,0.42,0.72
1.05,0.51,0.72
1.04,0.64,0.72
1.01,0.74,0.77
1.05,0.77,0.84
1.18,0.82,0.9
1.26,0.87,0.94
1.27,0.91,0.93
1.24,0.99,0.9
1.15,1.09,0.86
1.03,1.22,0.83
0.94,1.37,0.83
0.94,1.48,0.91
1.01,1.61,0.99
1.03,1.72,1.06
1.01,1.77,1.09
0.98,1.84,1.09
0.89,1.95,1.05
0.81,2.07,1
0.77,2.16,1.01
0.76,2.21,1.04
0.77,2.24,1.05
0.74,2.22,1.07
0.75,2.16,1.06
0.77,2.09,1.02
0.87,1.89,1.01
0.91,1.75,0.98
0.93,1.62,0.95
0.92,1.52,0.94
0.9,1.42,0.95
0.86,1.32,0.96
0.8,1.24,0.98
0.73,1.18,0.99
0.66,1.13,1.01
0.59,1.09,1.03
0.51,1.05,1.05
0.42,1.02,1.05
0.35,0.99,1.04
0.28,0.97,1.02
0.23,0.95,0.98
0.19,0.94,0.93
0.16,0.96,0.89
0.14,0.98,0.83
0.12,1.01,0.78
0.13,1.06,0.72
0.15,1.1,0.67
0.16,1.14,0.62
0.17,1.15,0.56
0.17,1.16,0.51
0.16,1.16,0.46
0.14,1.16,0.39
0.08,1.17,0.36
0.04,1.17,0.33
0,1.17,0.31
-0.04,1.16,0.3
-0.06,1.13,0.28
-0.1,1.08,0.24
-0.14,1.03,0.21
-0.18,0.98,0.19
-0.2,0.94,0.18
-0.2,0.92,0.18
-0.22,0.91,0.18
-0.23,0.91,0.18
-0.21,0.91,0.17
-0.19,0.91,0.15
-0.17,0.9,0.14
-0.13,0.9,0.13
-0.11,0.89,0.12
-0.12,0.88,0.11
-0.12,0.87,0.11
-0.09,0.87,0.12
-0.07,0.87,0.14
-0.06,0.86,0.15
-0.03,0.86,0.16
0.01,0.86,0.16
0.06,0.85,0.16
0.1,0.86,0.19
0.15,0.85,0.2
0.18,0.83,0.22
0.19,0.83,0.25
0.2,0.84,0.27
0.18,0.86,0.27
0.17,0.86,0.27
0.17,0.87,0.27
0.18,0.88,0.29
0.19,0.87,0.3
0.2,0.84,0.3
0.22,0.8,0.3
0.22,0.76,0.31
0.21,0.73,0.32
0.22,0.73,0.33
0.21,0.77,0.33
0.2,0.86,0.34
0.21,0.99,0.37
0.24,1.12,0.39
0.25,1.2,0.4
0.25,1.24,0.4
0.24,1.22,0.39
0.22,1.17,0.39
0.22,1.11,0.4
0.22,1.07,0.43
0.21,1.04,0.44
0.18,1.01,0.43
0.12,0.98,0.42
0.11,0.98,0.4
0.09,0.98,0.37
0.08,0.98,0.34
0.08,0.97,0.31
0.09,0.97,0.29
0.09,0.97,0.28
0.09,0.96,0.27
0.09,0.95,0.28
0.1,0.92,0.3
0.12,0.9,0.32
0.12,0.89,0.34
0.12,0.89,0.37
0.12,0.89,0.41
0.15,0.91,0.46
0.21,0.92,0.5
0.28,0.93,0.54
0.34,0.97,0.58
0.39,1.03,0.65
0.44,1.09,0.72
0.48,1.15,0.77
0.51,1.2,0.81
0.54,1.23,0.85
0.6,1.24,0.9
0.65,1.24,0.97
0.7,1.25,1.06
0.76,1.27,1.06
0.76,1.29,1.08
0.76,1.3,1.11
0.75,1.31,1.13
0.76,1.3,1.15
0.8,1.25,1.14
0.82,1.18,1.14
0.86,1.12,1.18
0.92,1.11,1.22
0.96,1.1,1.22
0.96,1.06,1.19
0.96,1,1.16
0.98,0.94,1.15
0.98,0.9,1.17
1,0.88,1.2
1.02,0.83,1.23
1.06,0.72,1.24
1.12,0.6,1.25
1.16,0.51,1.24
1.18,0.52,1.24
1.17,0.59,1.23
1.13,0.68,1.21
1.08,0.77,1.17
1.03,0.84,1.14
0.97,0.83,1.09
0.92,0.75,1.07
0.94,0.66,0.97
0.98,0.66,0.92
0.92,0.64,0.88
0.85,0.62,0.8
0.74,0.6,0.72
0.59,0.51,0.64
0.47,0.35,0.63
0.42,0.3,0.62
0.41,0.27,0.57
0.32,0.28,0.54
0.24,0.27,0.5
0.2,0.21,0.43
0.16,0.13,0.39
0.18,0.07,0.34
0.16,0.07,0.27
0.07,0.07,0.21
0.02,0.07,0.15
-0.05,0.05,0.11
-0.08,0.04,0.08
-0.09,0.03,0.03
-0.11,0.06,0.03
-0.12,0.1,0
-0.16,0.06,-0.07
-0.2,0.01,-0.1
-0.23,-0.02,-0.12
-0.25,-0.06,-0.14
-0.28,-0.18,-0.14
-0.38,-0.24,-0.17
-0.45,-0.27,-0.19
-0.5,-0.24,-0.21
-0.58,-0.23,-0.24
-0.69,-0.25,-0.25
-0.77,-0.28,-0.24
-0.8,-0.34,-0.23
-0.79,-0.41,-0.25
-0.78,-0.47,-0.29
-0.79,-0.47,-0.32
-0.8,-0.47,-0.34
-0.83,-0.51,-0.36
-0.86,-0.59,-0.36
-0.87,-0.68,-0.33
-0.87,-0.73,-0.31
-0.91,-0.76,-0.31
-0.94,-0.77,-0.32
-0.95,-0.76,-0.33
-0.94,-0.77,-0.31
-0.91,-0.81,-0.3
-0.87,-0.83,-0.32
-0.84,-0.82,-0.28
-0.78,-0.79,-0.25
-0.71,-0.74,-0.19
-0.68,-0.71,-0.1
-0.67,-0.72,-0.04
-0.71,-0.75,-0.08
-0.74,-0.78,-0.12
-0.77,-0.81,-0.13
-0.79,-0.82,-0.12
-0.8,-0.81,-0.09
-0.79,-0.79,-0.05
-0.78,-0.77,-0.02
-0.77,-0.75,0.01
-0.74,-0.74,0.02
-0.72,-0.72,0.03
-0.7,-0.7,0.01
-0.67,-0.68,-0.01
-0.65,-0.66,-0.02
-0.64,-0.65,-0.02
-0.63,-0.65,0.01
-0.61,-0.67,0.03
-0.6,-0.68,0.03
-0.61,-0.68,0.03
-0.61,-0.67,0.02
-0.61,-0.64,0.01
-0.6,-0.6,-0.01
-0.58,-0.56,-0.03
-0.56,-0.54,-0.05
-0.54,-0.51,-0.05
-0.51,-0.48,-0.04
-0.49,-0.48,-0.01
-0.47,-0.47,0
-0.45,-0.44,0
-0.43,-0.41,0
-0.42,-0.37,0
-0.4,-0.34,0
-0.37,-0.34,0.03
-0.31,-0.33,0.06
-0.26,-0.32,0.08
-0.2,-0.28,0.09
-0.12,-0.21,0.07
-0.07,-0.16,0.08
-0.03,-0.13,0.13
0.04,-0.11,0.18
0.11,-0.09,0.21
0.16,-0.07,0.22
0.19,-0.08,0.21
0.22,-0.03,0.21
0.24,0.08,0.21
0.27,0.17,0.21
0.32,0.25,0.24
0.44,0.36,0.29
0.59,0.4,0.3
0.7,0.4,0.3
0.78,0.4,0.31
0.81,0.43,0.31
0.8,0.49,0.29
0.77,0.73,0.33
0.86,0.88,0.38
0.97,0.92,0.39
1.06,0.94,0.41
1.18,1.01,0.5
1.24,1.05,0.58
1.23,1.02,0.6
1.17,0.99,0.6
1.08,1.02,0.63
1.05,1.16,0.71
1.04,1.31,0.77
1.1,1.46,0.81
1.23,1.63,0.84
1.31,1.67,0.86
1.4,1.57,0.88
1.45,1.48,0.88
1.44,1.46,0.86
1.36,1.44,0.84
1.23,1.49,0.83
1.18,1.6,0.81
1.17,1.67,0.84
1.18,1.64,0.95
1.21,1.57,1.01
1.18,1.51,1.01
1.13,1.44,0.95
1.05,1.39,0.92
1,1.37,0.87
0.99,1.37,0.84
0.98,1.35,0.85
0.99,1.31,0.87
0.99,1.25,0.86
0.94,1.21,0.84
0.89,1.19,0.84
0.85,1.16,0.84
0.81,1.12,0.84
0.77,1.09,0.84
0.71,1.07,0.83
0.66,1.05,0.82
0.63,1.02,0.81
0.59,1.02,0.79
0.51,1.01,0.79
0.44,0.98,0.81
0.43,0.97,0.81
0.43,0.97,0.79
0.4,0.97,0.77
0.37,0.96,0.73
0.35,0.96,0.68
0.32,0.97,0.63
0.29,0.98,0.6
0.27,0.98,0.56
0.27,0.98,0.52
0.24,0.98,0.46
0.19,0.96,0.42
0.21,0.95,0.39
0.21,0.96,0.36
0.2,0.98,0.34
0.2,0.98,0.3
0.21,0.99,0.27
0.18,0.99,0.24
0.19,0.99,0.21
0.22,0.99,0.19
0.15,0.98,0.19
0.09,0.97,0.21
0.1,0.98,0.21
0.11,0.98,0.2
0.11,0.96,0.19
0.1,0.95,0.19
0.09,0.93,0.18
0.09,0.92,0.17
0.1,0.9,0.17
0.1,0.9,0.19
0.1,0.91,0.23
0.13,0.9,0.27
0.15,0.89,0.28
0.13,0.89,0.3
0.1,0.9,0.33
0.11,0.9,0.37
0.14,0.91,0.5
0.12,0.93,0.57
0.13,0.94,0.6
0.15,0.97,0.61
0.16,1.01,0.65
0.18,1.03,0.71
0.22,1.04,0.76
0.25,1.04,0.82
0.27,1.05,0.87
0.3,1.05,0.91
0.33,1.03,0.96
0.35,1.02,1.02
0.37,1.04,1.08
0.38,1.08,1.13
0.38,1.12,1.17
0.37,1.16,1.19
0.37,1.21,1.22
0.37,1.24,1.26
0.4,1.27,1.31
0.41,1.31,1.35
0.42,1.38,1.39
0.41,1.45,1.42
0.41,1.49,1.45
0.43,1.52,1.46
0.45,1.53,1.43
0.47,1.52,1.39
0.51,1.53,1.39
0.59,1.58,1.38
0.59,1.58,1.35
0.59,1.57,1.33
0.59,1.57,1.35
0.6,1.55,1.34
0.6,1.5,1.29
0.59,1.47,1.28
0.61,1.52,1.3
0.65,1.57,1.28
0.64,1.55,1.23
0.61,1.46,1.25
0.62,1.42,1.28
0.61,1.4,1.29
0.57,1.36,1.27
0.57,1.33,1.23
0.58,1.33,1.17
0.55,1.34,1.11
0.51,1.32,1.04
0.47,1.27,0.96
0.48,1.19,0.9
0.48,1.11,0.9
0.48,1.07,0.91
0.46,1.03,0.88
0.44,0.99,0.8
0.41,0.97,0.72
0.35,0.91,0.56
0.32,0.76,0.55
0.29,0.65,0.56
0.32,0.62,0.49
0.3,0.63,0.4
0.19,0.55,0.31
0.08,0.38,0.22
0.04,0.34,0.16
-0.02,0.4,0.12
-0.07,0.34,0.06
-0.14,0.21,-0.02
-0.1,0.19,-0.08
-0.06,0.17,-0.09
-0.08,0.08,-0.14
-0.11,0.02,-0.21
-0.18,-0.02,-0.31
-0.28,-0.04,-0.41
-0.35,-0.07,-0.45
-0.42,-0.13,-0.44
-0.46,-0.18,-0.39
-0.51,-0.31,-0.37
-0.54,-0.42,-0.34
-0.54,-0.48,-0.35
-0.56,-0.54,-0.37
-0.61,-0.55,-0.4
-0.65,-0.56,-0.45
-0.64,-0.58,-0.51
-0.69,-0.66,-0.64
-0.7,-0.7,-0.67
-0.72,-0.71,-0.69
-0.73,-0.71,-0.71
-0.7,-0.73,-0.75
-0.69,-0.73,-0.78
-0.69,-0.74,-0.76
-0.69,-0.76,-0.74
-0.68,-0.79,-0.72
-0.65,-0.81,-0.71
-0.65,-0.82,-0.67
-0.64,-0.83,-0.62
-0.62,-0.85,-0.58
-0.6,-0.87,-0.56
-0.56,-0.87,-0.53
-0.5,-0.87,-0.47
-0.45,-0.87,-0.39
-0.39,-0.88,-0.33
-0.34,-0.88,-0.3
-0.32,-0.88,-0.29
-0.3,-0.88,-0.27
-0.27,-0.87,-0.24
-0.26,-0.87,-0.22
-0.26,-0.88,-0.2
-0.25,-0.9,-0.19
-0.27,-0.93,-0.17
-0.27,-0.93,-0.13
-0.29,-0.89,-0.11
-0.31,-0.85,-0.11
-0.34,-0.81,-0.12
-0.38,-0.79,-0.15
-0.42,-0.78,-0.16
-0.44,-0.77,-0.17
-0.46,-0.75,-0.17
-0.5,-0.73,-0.18
-0.53,-0.72,-0.21
-0.55,-0.7,-0.25
-0.56,-0.67,-0.27
-0.56,-0.65,-0.29
-0.55,-0.62,-0.31
-0.55,-0.6,-0.31
-0.55,-0.57,-0.32
-0.53,-0.55,-0.33
-0.52,-0.53,-0.34
-0.51,-0.5,-0.36
-0.49,-0.46,-0.37
-0.46,-0.41,-0.39
-0.43,-0.35,-0.39
-0.4,-0.3,-0.39
-0.36,-0.27,-0.37
-0.3,-0.23,-0.32
-0.24,-0.19,-0.21
-0.18,-0.09,-0.18
-0.14,-0.02,-0.16
-0.13,0.04,-0.15
-0.13,0.1,-0.14
-0.13,0.14,-0.12
-0.08,0.18,-0.07
-0.01,0.23,-0.02
0.08,0.28,0.02
0.14,0.35,0.06
0.19,0.44,0.07
0.23,0.49,0.06
0.29,0.55,0.07
0.33,0.61,0.1
0.4,0.61,0.15
0.51,0.64,0.23
0.61,0.76,0.33
0.71,0.94,0.42
0.8,1.12,0.48
0.83,1.28,0.58
0.86,1.35,0.71
0.88,1.31,0.77
0.83,1.27,0.81
0.8,1.36,0.86
0.82,1.52,0.89
0.83,1.67,0.92
0.86,1.85,1.02
0.91,1.95,1.18
0.81,1.85,1.27
0.76,1.8,1.34
0.74,1.86,1.4
0.68,1.97,1.45
0.6,2.06,1.46
0.56,2.19,1.43
0.52,2.29,1.44
0.46,2.23,1.5
0.47,2.11,1.53
0.47,2.03,1.51
0.42,1.94,1.5
0.42,1.87,1.46
0.46,1.82,1.4
0.47,1.77,1.34
0.45,1.75,1.31
0.42,1.77,1.29
0.4,1.77,1.28
0.38,1.73,1.26
0.35,1.65,1.23
0.32,1.55,1.18
0.27,1.48,1.15
0.23,1.39,1.15
0.24,1.32,1.14
0.22,1.26,1.11
0.13,1.21,1.11
0.07,1.1,1.11
0.15,1.08,1.11
0.03,1.03,1.3
-0.14,1.02,1.47
0.06,1.02,1.32
0.15,1.01,1.08
-0.02,1.03,0.9
0,1.04,0.79
0.05,1.02,0.71
0.08,0.98,0.61
0.18,1,0.55
0.18,1.03,0.49
0.09,1.07,0.37
0.08,1.11,0.24
0.1,1.1,0.14
0.1,1.09,0.06
0.07,1.08,0.01
0.03,1.05,-0.01
0.01,1.01,-0.04
-0.03,0.97,-0.06
-0.05,0.94,-0.06
-0.07,0.94,-0.06
-0.08,0.95,-0.1
-0.07,0.94,-0.12
-0.07,0.94,-0.1
-0.08,0.94,-0.1
-0.06,0.92,-0.07
-0.04,0.92,-0.04
-0.02,0.92,-0.01
-0.01,0.93,0.02
0,0.95,0.06
0.01,0.96,0.12
0.04,0.96,0.17
0.07,0.96,0.22
0.08,0.96,0.31
0.08,0.99,0.44
0.1,1.03,0.55
0.13,1.04,0.62
0.12,1.04,0.7
0.11,1.04,0.81
0.14,1.07,0.9
0.2,1.1,0.98
0.19,1.11,1.06
0.14,1.1,1.14
0.16,1.08,1.21
0.17,1.08,1.25
0.16,1.12,1.3
0.14,1.14,1.3
0.16,1.15,1.3
0.16,1.18,1.35
0.12,1.23,1.4
0.12,1.28,1.43
0.16,1.35,1.49
0.25,1.47,1.46
0.24,1.51,1.42
0.24,1.53,1.4
0.3,1.54,1.38
0.39,1.56,1.35
0.49,1.61,1.34
0.57,1.61,1.27
0.59,1.59,1.19
0.56,1.6,1.12
0.61,1.66,1.04
0.66,1.71,0.99
0.63,1.7,1
0.63,1.62,0.99
0.67,1.55,0.93
0.73,1.52,0.88
0.8,1.51,0.85
0.86,1.5,0.8
0.87,1.48,0.76
0.84,1.44,0.71
0.83,1.31,0.64
0.87,1.2,0.59
0.91,1.19,0.6
0.91,1.24,0.61
0.86,1.28,0.59
0.8,1.24,0.54
0.77,1.16,0.47
0.74,0.97,0.49
0.78,0.94,0.52
0.82,0.95,0.5
0.77,0.97,0.4
0.71,0.89,0.32
0.67,0.76,0.33
0.59,0.67,0.45
0.53,0.68,0.51
0.55,0.64,0.47
0.55,0.56,0.42
0.51,0.58,0.35
0.5,0.6,0.28
0.41,0.43,0.22
0.34,0.3,0.19
0.36,0.28,0.24
0.34,0.11,0.28
0.4,0.16,0.26
0.39,0.23,0.22
0.24,-0.15,0.14
0.19,-0.17,0.07
0.15,-0.01,0.04
0.08,-0.15,0.02
0.07,-0.18,0.03
0.09,-0.2,0.03
0.08,-0.24,0.01
-0.02,-0.29,-0.09
-0.24,-0.31,-0.17
-0.38,-0.33,-0.19
-0.43,-0.42,-0.18
-0.43,-0.48,-0.15
-0.45,-0.5,-0.11
-0.55,-0.47,-0.09
-0.71,-0.5,-0.08
-0.86,-0.55,-0.07
-0.94,-0.56,-0.04
-0.97,-0.56,0.01
-0.98,-0.58,0.05
-0.98,-0.59,0.08
-0.96,-0.59,0.08
-0.94,-0.6,0.07
-0.93,-0.62,0.07
-0.95,-0.66,0.07
-0.95,-0.7,0.09
-0.93,-0.74,0.1
-0.89,-0.76,0.11
-0.83,-0.74,0.1
-0.77,-0.73,0.1
-0.7,-0.73,0.1
-0.66,-0.73,0.12
-0.67,-0.73,0.14
-0.71,-0.73,0.16
-0.74,-0.73,0.21
-0.78,-0.69,0.2
-0.77,-0.68,0.18
-0.75,-0.66,0.16
-0.73,-0.64,0.16
-0.71,-0.62,0.15
-0.69,-0.62,0.13
-0.66,-0.64,0.09
-0.64,-0.64,0.04
-0.62,-0.62,0
-0.62,-0.59,-0.03
-0.6,-0.55,-0.05
-0.57,-0.51,-0.06
-0.55,-0.46,-0.07
-0.54,-0.43,-0.07
-0.52,-0.41,-0.07
-0.5,-0.37,-0.05
-0.49,-0.34,-0.05
-0.47,-0.31,-0.04
-0.46,-0.27,-0.03
-0.44,-0.24,-0.01
-0.42,-0.22,-0.02
-0.38,-0.17,-0.04
-0.32,-0.1,-0.05
-0.27,-0.03,-0.06
-0.19,0.01,-0.04
-0.1,0.04,-0.01
0.06,0.15,-0.02
0.14,0.24,-0.03
0.21,0.33,-0.04
0.27,0.42,-0.04
0.34,0.53,-0.03
0.38,0.6,-0.02
0.42,0.64,-0.01
0.51,0.67,0
0.58,0.71,0.03
0.66,0.84,0.06
0.71,0.99,0.06
0.75,1.12,0.08
0.83,1.21,0.12
0.91,1.24,0.13
1.06,1.23,0.12
1.21,1.25,0.1
1.32,1.36,0.12
1.43,1.53,0.18
1.49,1.7,0.27
1.55,1.88,0.46
1.67,1.98,0.68
1.71,1.91,0.74
1.59,1.82,0.71
1.47,1.8,0.72
1.46,1.87,0.79
1.52,1.92,0.92
1.63,1.91,0.97
1.64,1.85,0.95
1.62,1.8,0.91
1.59,1.83,0.9
1.55,1.91,0.93
1.5,1.94,0.96
1.44,1.93,0.99
1.4,1.88,1
1.35,1.78,1
1.29,1.67,1.02
1.24,1.58,1.01
1.18,1.51,1.01
1.13,1.48,1.04
1.16,1.46,1.05
1.16,1.42,1.02
1.11,1.39,1.02
1.04,1.37,1.01
0.97,1.35,1
0.9,1.3,1
0.84,1.24,0.98
0.79,1.17,0.94
0.72,1.1,0.9
0.68,1.07,0.89
0.65,1.04,0.9
0.61,1.02,0.89
0.55,1.03,0.93
0.52,0.97,1.02
0.59,1.05,0.92
0.36,1.12,0.84
0,1.12,0.76
-0.15,1.08,0.68
-0.02,1.04,0.57
0.12,1.03,0.45
0.08,1.04,0.39
0.01,1.04,0.34
-0.01,1.02,0.26
0.02,0.99,0.17
0.08,1,0.09
0.1,1,0.05
0.08,0.99,0.02
0.06,0.98,0.01
0.06,0.98,0.01
0.03,0.97,0.02
0,0.96,0.03
-0.01,0.95,0.04
-0.01,0.95,0.05
0,0.96,0.08
0.01,0.97,0.11
-0.01,0.97,0.16
-0.01,0.98,0.21
0.02,0.99,0.26
0.05,1,0.32
0.07,1.02,0.45
0.1,1.06,0.53
0.16,1.09,0.58
0.21,1.11,0.63
0.24,1.1,0.71
0.32,1.1,0.79
0.41,1.11,0.88
0.45,1.12,0.98
0.49,1.15,1.06
0.53,1.19,1.1
0.52,1.22,1.13
0.48,1.21,1.15
0.47,1.21,1.19
0.51,1.24,1.22
0.55,1.29,1.23
0.56,1.32,1.21
0.58,1.32,1.17
0.64,1.3,1.1
0.71,1.32,1.03
0.77,1.37,0.98
0.84,1.44,0.92
0.88,1.48,0.87
0.9,1.52,0.83
0.9,1.57,0.83
0.92,1.57,0.8
0.92,1.55,0.79
0.89,1.47,0.8
0.93,1.45,0.82
0.92,1.44,0.84
0.92,1.49,0.83
0.96,1.51,0.81
0.89,1.48,0.83
0.84,1.42,0.84
0.82,1.36,0.84
0.8,1.34,0.82
0.78,1.34,0.8
0.75,1.36,0.78
0.73,1.33,0.76
0.74,1.29,0.67
0.72,1.26,0.65
0.71,1.21,0.64
0.74,1.13,0.67
0.73,1.05,0.74
0.71,0.98,0.76
0.66,0.94,0.74
0.58,0.93,0.69
0.54,0.81,0.65
0.48,0.77,0.65
0.42,0.81,0.63
0.45,0.68,0.6
0.43,0.56,0.59
0.43,0.49,0.59
0.42,0.51,0.51
0.32,0.43,0.42
0.26,0.34,0.35
0.22,0.24,0.41
0.22,0.09,0.44
0.3,0.05,0.42
0.3,0.05,0.42
0.23,0.04,0.38
0.22,0.03,0.29
0.19,-0.01,0.25
0.14,-0.1,0.25
0.11,-0.25,0.22
0.14,-0.35,0.2
0.23,-0.34,0.15
0.23,-0.32,0.13
0.21,-0.28,0.13
0.19,-0.24,0.11
0.15,-0.23,0.11
0.13,-0.3,0.12
0.12,-0.36,0.07
0.08,-0.37,0.02
0,-0.33,-0.01
-0.08,-0.29,-0.03
-0.18,-0.36,-0.06
-0.24,-0.43,-0.15
-0.31,-0.43,-0.23
-0.41,-0.43,-0.28
-0.61,-0.51,-0.32
-0.77,-0.6,-0.35
-0.85,-0.65,-0.38
-0.91,-0.68,-0.4
-1,-0.67,-0.36
-1.09,-0.68,-0.31
-1.13,-0.7,-0.3
-1.15,-0.71,-0.3
-1.15,-0.72,-0.29
-1.11,-0.76,-0.26
-1.05,-0.76,-0.22
-1,-0.73,-0.17
-0.96,-0.71,-0.14
-0.92,-0.69,-0.11
-0.85,-0.67,-0.09
-0.79,-0.65,-0.06
-0.73,-0.64,-0.03
-0.68,-0.65,-0.02
-0.65,-0.67,-0.02
-0.63,-0.68,-0.02
-0.63,-0.7,-0.02
-0.61,-0.71,-0.01
-0.6,-0.7,0
-0.59,-0.69,0
-0.58,-0.68,-0.01
-0.57,-0.66,-0.03
-0.55,-0.58,-0.04
-0.53,-0.56,-0.04
-0.51,-0.57,-0.05
-0.49,-0.59,-0.07
-0.46,-0.58,-0.11
-0.43,-0.54,-0.13
-0.41,-0.5,-0.14
-0.38,-0.45,-0.16
-0.36,-0.41,-0.16
-0.35,-0.38,-0.17
-0.31,-0.35,-0.16
-0.27,-0.33,-0.15
-0.2,-0.31,-0.15
-0.14,-0.3,-0.15
-0.12,-0.29,-0.15
-0.1,-0.23,-0.15
-0.08,-0.16,-0.15
-0.09,-0.11,-0.13
-0.06,-0.02,-0.09
-0.02,0.08,-0.05
0.02,0.18,0.01
0.05,0.26,0.04
0.08,0.31,0.07
0.09,0.34,0.09
0.13,0.42,0.08
0.18,0.49,0.14
0.32,0.63,0.16
0.37,0.74,0.18
0.42,0.9,0.23
0.48,1.09,0.25
0.52,1.22,0.25
0.57,1.35,0.25
0.67,1.45,0.32
0.82,1.39,0.34
0.99,1.31,0.29
1.11,1.44,0.31
1.16,1.75,0.41
1.24,2.03,0.54
1.28,2.16,0.67
1.32,2.28,0.82
1.34,2.25,0.86
1.31,2.09,0.81
1.29,2.09,0.9
1.35,2.14,1.05
1.43,2.18,1.13
1.43,2.3,1.19
1.39,2.35,1.25
1.32,2.24,1.28
1.25,2.09,1.32
1.2,2.02,1.37
1.16,1.99,1.4
1.12,1.97,1.42
1.13,1.89,1.42
1.09,1.85,1.45
1.05,1.75,1.48
1.01,1.64,1.43
0.96,1.55,1.39
0.92,1.48,1.38
0.92,1.41,1.39
0.96,1.34,1.37
0.99,1.27,1.33
0.97,1.22,1.28
0.94,1.24,1.24
0.89,1.24,1.21
0.81,1.18,1.17
0.71,1.11,1.12
0.55,1.06,1.14
0.35,1.03,1.25
0.29,0.97,1.36
0.47,1.02,1.31
0.44,1.15,1.13
0.08,1.16,0.98
-0.16,1.13,0.84
0.03,1.13,0.63
0.34,1.09,0.42
0.31,1.03,0.32
0.11,1.04,0.31
0.02,1.03,0.21
-0.01,0.98,0.15
0,0.97,0.1
0.03,0.96,0.05
0.08,0.95,0.01
0.12,0.96,-0.02
0.16,0.95,-0.05
0.18,0.94,-0.05
0.15,0.93,-0.05
0.12,0.94,-0.06
0.09,0.96,-0.08
0.05,0.97,-0.08
0.03,0.97,-0.08
0.03,0.96,-0.08
0.03,0.94,-0.08
0.04,0.92,-0.07
0.07,0.91,-0.06
0.11,0.91,-0.05
0.13,0.92,-0.04
0.12,0.94,-0.02
0.1,0.94,-0.01
0.09,0.94,-0.02
0.06,0.93,-0.01
0.06,0.93,0.01
0.1,0.93,0.03
0.13,0.95,0.05
0.13,0.96,0.15
0.12,0.97,0.16
0.12,0.96,0.18
0.13,0.95,0.22
0.16,0.96,0.3
0.22,0.98,0.4
0.26,1,0.49
0.31,1.01,0.55
0.33,1.01,0.6
0.33,1.02,0.66
0.37,1.03,0.74
0.44,1.05,0.8
0.49,1.06,0.87
0.54,1.08,0.97
0.6,1.1,1.07
0.64,1.13,1.14
0.63,1.15,1.2
0.62,1.18,1.29
0.66,1.23,1.4
0.71,1.26,1.43
0.71,1.27,1.39
0.67,1.31,1.38
0.64,1.38,1.36
0.65,1.42,1.32
0.67,1.46,1.27
0.71,1.52,1.22
0.77,1.61,1.1
0.8,1.7,1.05
0.83,1.73,1
0.86,1.73,0.93
0.9,1.73,0.88
0.96,1.72,0.83
1,1.69,0.8
1.03,1.65,0.78
1.04,1.65,0.76
1.05,1.66,0.72
1.1,1.64,0.66
1.05,1.6,0.66
1.02,1.59,0.67
1.05,1.56,0.64
1.03,1.55,0.59
0.98,1.57,0.54
0.94,1.53,0.5
0.9,1.45,0.48
0.87,1.36,0.45
0.86,1.28,0.41
0.9,1.21,0.4
0.93,1.13,0.4
0.87,1.1,0.44
0.81,1.07,0.45
0.78,1.04,0.41
0.68,0.99,0.37
0.63,0.88,0.26
0.58,0.73,0.26
0.61,0.68,0.24
0.6,0.62,0.23
0.59,0.53,0.24
0.59,0.5,0.24
0.57,0.47,0.2
0.54,0.42,0.19
0.41,0.39,0.15
0.27,0.13,0.08
0.3,-0.07,0.15
0.34,-0.01,0.22
0.32,-0.02,0.29
0.27,0.03,0.32
0.17,0.15,0.26
0.12,0.06,0.15
0.06,-0.17,0.13
0,-0.34,0.18
-0.02,-0.37,0.23
-0.02,-0.36,0.28
-0.04,-0.36,0.28
-0.05,-0.36,0.29
-0.09,-0.31,0.25
-0.14,-0.34,0.2
-0.15,-0.47,0.21
-0.1,-0.53,0.22
-0.04,-0.51,0.18
-0.2,-0.44,0.14
-0.3,-0.4,0.14
-0.33,-0.47,0.09
-0.34,-0.53,0.04
-0.39,-0.53,0.03
-0.45,-0.58,-0.01
-0.49,-0.6,-0.05
-0.54,-0.57,-0.06
-0.6,-0.58,-0.05
-0.65,-0.55,-0.02
-0.71,-0.53,-0.03
-0.75,-0.57,-0.09
-0.8,-0.63,-0.14
-0.81,-0.68,-0.18
-0.83,-0.68,-0.17
-0.86,-0.67,-0.12
-0.86,-0.67,-0.11
-0.87,-0.62,-0.1
-0.92,-0.6,-0.1
-0.94,-0.65,-0.15
-0.96,-0.7,-0.18
-0.97,-0.72,-0.19
-0.95,-0.72,-0.18
-0.92,-0.7,-0.17
-0.89,-0.68,-0.15
-0.87,-0.66,-0.14
-0.83,-0.65,-0.14
-0.76,-0.64,-0.12
-0.74,-0.64,-0.11
-0.74,-0.63,-0.1
-0.75,-0.62,-0.08
-0.73,-0.59,-0.08
-0.71,-0.55,-0.09
-0.69,-0.51,-0.09
-0.67,-0.49,-0.1
-0.64,-0.47,-0.12
-0.61,-0.45,-0.13
-0.58,-0.41,-0.13
-0.53,-0.38,-0.12
-0.49,-0.36,-0.1
-0.45,-0.35,-0.09
-0.41,-0.33,-0.11
-0.39,-0.31,-0.12
-0.38,-0.28,-0.12
-0.36,-0.26,-0.12
-0.34,-0.23,-0.12
-0.3,-0.19,-0.1
-0.25,-0.13,-0.07
-0.18,-0.06,-0.03
-0.12,-0.01,0.01
-0.06,0,0.03
-0.01,0.04,0.04
0.01,0.16,0.06
0.12,0.21,0.07
0.19,0.32,0.1
0.26,0.41,0.14
0.29,0.47,0.15
0.32,0.58,0.19
0.37,0.69,0.23
0.41,0.74,0.24
0.46,0.73,0.26
0.57,0.71,0.27
0.66,0.76,0.3
0.71,0.87,0.35
0.78,1,0.41
0.86,1.15,0.48
0.96,1.35,0.5
1.07,1.53,0.5
1.15,1.51,0.54
1.21,1.5,0.62
1.28,1.53,0.7
1.34,1.57,0.75
1.38,1.69,0.81
1.39,1.85,0.88
1.36,1.94,0.98
1.38,1.99,1.15
1.38,1.93,1.29
1.33,1.77,1.29
1.23,1.56,1.12
1.12,1.62,1.19
1.2,1.78,1.29
1.25,1.89,1.39
1.24,1.86,1.44
1.2,1.72,1.42
1.14,1.6,1.35
1.03,1.54,1.24
0.92,1.51,1.17
0.86,1.49,1.16
0.86,1.47,1.14
0.92,1.42,1.09
0.94,1.36,1.06
0.88,1.36,1.04
0.85,1.38,1
0.81,1.36,0.94
0.74,1.32,0.91
0.64,1.29,0.91
0.59,1.24,0.89
0.53,1.22,0.89
0.47,1.21,0.88
0.46,1.21,0.88
0.43,1.22,0.9
0.44,1.18,0.87
0.41,1.14,0.84
0.38,1.12,0.81
0.38,1.06,0.81
0.38,1.08,0.87
0.35,1.09,1.03
0.28,1.09,1.18
0.17,1.1,1.17
0.09,1.12,1.01
0.22,1.13,0.76
0.4,1.07,0.6
0.42,1,0.5
0.37,0.99,0.47
0.32,1.03,0.47
0.33,1.06,0.42
0.41,1.07,0.34
0.45,1.08,0.23
0.47,1.07,0.11
0.55,1.08,0.06
0.59,1.07,0.05
0.61,1.07,0.02
0.67,1.09,0.04
0.72,1.11,0.12
0.61,1.11,0.16
0.55,1.07,0.18
0.63,1.04,0.19
0.65,1.03,0.15
0.66,1.01,0.11
0.7,0.96,0.12
0.76,0.91,0.12
0.82,0.81,0.13
0.76,0.73,0.1
0.69,0.68,0.08
0.67,0.64,0.07
0.68,0.58,0.06
0.67,0.54,0.07
0.66,0.51,0.07
0.63,0.46,0.08
0.58,0.41,0.11
0.57,0.36,0.14
0.56,0.33,0.14
0.52,0.3,0.17
0.51,0.29,0.2
0.52,0.29,0.2
0.56,0.31,0.2
0.6,0.35,0.2
0.61,0.36,0.22
0.61,0.35,0.27
0.6,0.35,0.34
0.56,0.36,0.4
0.51,0.35,0.44
0.47,0.35,0.46
0.47,0.35,0.46
0.51,0.38,0.5
0.53,0.41,0.54
0.51,0.42,0.56
0.38,0.38,0.55
0.41,0.37,0.56
0.47,0.38,0.59
0.46,0.4,0.66
0.47,0.42,0.73
0.54,0.45,0.78
0.55,0.45,0.81
0.55,0.45,0.83
0.53,0.44,0.84
0.48,0.43,0.86
0.45,0.42,0.89
0.43,0.39,0.89
0.43,0.35,0.87
0.46,0.31,0.84
0.5,0.29,0.83
0.52,0.29,0.85
0.5,0.3,0.88
0.48,0.31,0.92
0.44,0.3,0.95
0.42,0.28,0.98
0.4,0.25,0.99
0.38,0.21,0.99
0.35,0.18,0.98
0.34,0.14,0.97
0.38,0.1,0.93
0.47,0.09,0.89
0.53,0.08,0.91
0.47,0.09,0.95
0.44,0.1,1
0.43,0.11,1.02
0.44,0.11,1.04
0.44,0.1,1.05
0.43,0.08,1.04
0.42,0.07,1.03
0.43,0.06,0.99
0.47,0.05,0.96
0.52,0.05,0.94
0.55,0.04,0.93
0.52,0.02,0.93
0.48,0,0.94
0.48,0.03,0.94
0.42,0.01,0.94
0.27,-0.05,0.95
0.12,-0.05,0.96
0.17,0,0.93
0.4,0,0.86
0.58,-0.07,0.82
0.56,-0.07,0.87
0.4,0.01,0.95
0.33,0.01,1
0.32,0.01,1.02
0.33,0.05,1.1
0.32,0.19,1.15
0.47,0.16,1.2
0.55,0.11,1.26
0.56,0.05,1.26
0.46,0.06,1.19
0.37,0.11,1.02
0.37,0.06,0.97
0.26,0.05,0.98
0.25,0.1,0.97
0.35,0.06,0.93
0.37,0.02,0.93
0.34,0.03,0.93
0.3,0.06,0.92
0.29,0.06,0.92
0.28,0.05,0.91
0.28,0.04,0.92
0.31,0.01,0.93
0.36,0,0.93
0.39,0.02,0.95
0.4,0.02,0.97
0.42,0,0.97
0.43,-0.01,0.95
0.45,0.01,0.92
0.47,-0.01,0.89
0.49,-0.01,0.87
0.51,0.03,0.87
0.47,-0.02,0.88
0.44,-0.05,0.88
0.46,-0.03,0.89
0.47,-0.02,0.9
0.49,-0.03,0.91
0.51,0.01,0.9
