Acc_x,Acc_y,Acc_z
-0.15,0.93,-0.66
-0.17,0.93,-0.6
-0.14,0.92,-0.52
-0.1,0.93,-0.45
-0.07,0.93,-0.4
-0.04,0.92,-0.36
-0.01,0.9,-0.33
0.01,0.88,-0.3
-0.02,0.85,-0.3
-0.09,0.8,-0.3
-0.1,0.77,-0.28
-0.08,0.74,-0.26
-0.05,0.73,-0.23
-0.01,0.72,-0.13
0.07,0.71,-0.1
0.1,0.72,-0.09
0.11,0.73,-0.08
0.11,0.75,-0.06
0.08,0.77,-0.03
0.04,0.79,-0.02
0.01,0.81,-0.02
-0.01,0.84,-0.03
0.01,0.87,-0.08
0.04,0.89,-0.16
0.06,0.91,-0.23
0.06,0.9,-0.25
0.04,0.89,-0.22
0,0.87,-0.16
-0.05,0.85,-0.1
-0.07,0.86,-0.05
-0.08,0.88,0
-0.09,0.89,0.06
-0.11,0.91,0.13
-0.11,0.91,0.18
-0.09,0.91,0.21
-0.05,0.9,0.22
-0.02,0.89,0.22
-0.02,0.89,0.21
-0.01,0.9,0.2
0,0.91,0.21
0.02,0.92,0.21
0.03,0.92,0.19
0.05,0.92,0.18
0.05,0.93,0.19
0.05,0.94,0.2
0.06,0.93,0.2
0.06,0.91,0.19
0.04,0.89,0.18
0.04,0.88,0.18
0.05,0.87,0.19
0.05,0.87,0.2
0.05,0.85,0.2
0.05,0.83,0.2
0.05,0.81,0.22
0.05,0.81,0.24
0.06,0.81,0.25
0.07,0.81,0.26
0.08,0.81,0.25
0.1,0.81,0.24
0.13,0.83,0.24
0.13,0.85,0.25
0.12,0.87,0.26
0.12,0.89,0.27
0.14,0.89,0.27
0.16,0.89,0.28
0.17,0.9,0.3
0.17,0.9,0.31
0.16,0.9,0.32
0.16,0.92,0.34
0.16,0.95,0.37
0.15,0.97,0.39
0.15,0.99,0.4
0.13,1.01,0.4
0.13,1.01,0.41
0.11,0.99,0.39
0.1,0.97,0.39
0.11,0.96,0.41
0.11,0.94,0.4
0.1,0.92,0.41
0.07,0.9,0.41
0.05,0.9,0.43
0.03,0.91,0.43
0,0.93,0.43
-0.04,0.96,0.44
-0.03,1,0.45
0.02,1.03,0.43
0.06,1.05,0.4
0.1,1.08,0.37
0.14,1.12,0.35
0.21,1.17,0.31
0.3,1.22,0.27
0.37,1.24,0.17
0.42,1.22,0.13
0.44,1.18,0.1
0.44,1.14,0.07
0.43,1.1,0.07
0.4,1.06,0.07
0.37,1.03,0.07
0.36,1.01,0.07
0.34,1.02,0.07
0.33,1.05,0.08
0.32,1.08,0.09
0.32,1.09,0.1
0.31,1.08,0.1
0.3,1.05,0.1
0.29,1.02,0.09
0.3,0.99,0.09
0.32,0.96,0.08
0.34,0.92,0.1
0.36,0.9,0.13
0.38,0.88,0.17
0.42,0.88,0.2
0.46,0.89,0.22
0.48,0.91,0.26
0.5,0.91,0.29
0.53,0.88,0.28
0.58,0.85,0.27
0.63,0.82,0.32
0.68,0.83,0.37
0.69,0.83,0.43
0.68,0.83,0.47
0.66,0.85,0.5
0.65,0.88,0.52
0.65,0.91,0.52
0.68,0.95,0.5
0.69,0.98,0.5
0.71,1.02,0.51
0.73,1.04,0.53
0.72,1.06,0.59
0.71,1.08,0.65
0.72,1.13,0.7
0.75,1.17,0.75
0.77,1.15,0.74
0.8,1.14,0.68
0.81,1.17,0.65
0.78,1.16,0.64
0.77,1.14,0.63
0.77,1.15,0.65
0.74,1.16,0.66
0.72,1.13,0.67
0.7,1.09,0.68
0.7,1.06,0.66
0.7,1.03,0.64
0.7,1,0.63
0.67,0.95,0.61
0.66,0.93,0.59
0.66,0.9,0.57
0.64,0.87,0.55
0.61,0.82,0.54
0.58,0.77,0.51
0.55,0.73,0.48
0.53,0.68,0.46
0.51,0.63,0.44
0.49,0.59,0.42
0.46,0.55,0.4
0.43,0.51,0.39
0.39,0.46,0.37
0.36,0.41,0.36
0.34,0.36,0.34
0.32,0.31,0.31
0.31,0.27,0.29
0.31,0.23,0.27
0.31,0.18,0.26
0.29,0.14,0.25
0.26,0.12,0.25
0.25,0.11,0.25
0.24,0.1,0.25
0.22,0.09,0.25
0.2,0.08,0.24
0.19,0.07,0.22
0.18,0.04,0.21
0.18,0.04,0.21
0.18,0.03,0.21
0.19,0.02,0.2
0.18,0.02,0.19
0.18,0.02,0.17
0.18,0.04,0.14
0.19,0.07,0.12
0.2,0.12,0.11
0.2,0.16,0.1
0.2,0.18,0.11
0.21,0.19,0.12
0.22,0.21,0.13
0.21,0.23,0.14
0.19,0.24,0.14
0.18,0.25,0.15
0.17,0.25,0.14
0.18,0.29,0.14
0.19,0.34,0.13
0.2,0.4,0.12
0.21,0.46,0.13
0.22,0.52,0.14
0.24,0.6,0.13
0.26,0.68,0.12
0.28,0.77,0.11
0.29,0.85,0.1
0.3,0.99,0.15
0.39,1.03,0.16
0.47,1.1,0.15
0.5,1.18,0.12
0.5,1.3,0.1
0.5,1.48,0.12
0.49,1.61,0.16
0.52,1.71,0.18
0.53,1.84,0.21
0.5,1.99,0.25
0.51,2.19,0.24
0.57,2.37,0.23
0.66,2.5,0.27
0.81,2.59,0.39
0.26,3.31,2.22
1.78,2.44,3.99
1.74,2.15,4
0.2,1.48,2.42
1.4,0.32,0.89
1.02,1.04,0.72
0.39,1.02,0.3
0.53,1.1,0.05
0.29,1.05,0
0.26,0.84,-0.1
0.33,0.59,-0.24
0.22,0.39,-0.31
0.12,0.37,-0.5
0.16,0.41,-0.62
0.24,0.45,-0.67
0.32,0.48,-0.67
0.39,0.51,-0.59
0.45,0.59,-0.43
0.51,0.71,-0.17
0.5,0.82,0.2
0.5,0.93,0.72
0.46,1.01,1.15
0.45,1.13,1.17
0.42,1.22,0.84
0.2,1.16,0.48
0.05,1.12,0.27
0.06,1.1,0.2
0.14,1.07,0.21
0.24,1.11,0.18
0.32,1.1,0.11
0.35,1.02,0.02
0.35,0.97,-0.03
0.35,0.95,-0.04
0.35,0.92,-0.03
0.37,0.86,-0.01
0.39,0.82,0.03
0.36,0.79,0.08
0.34,0.78,0.13
0.36,0.78,0.13
0.45,0.79,0.1
0.49,0.8,0.07
0.49,0.82,0.07
0.47,0.85,0.07
0.47,0.87,0.08
0.48,0.89,0.08
0.48,0.9,0.06
0.49,0.91,0.04
0.5,0.93,0.03
0.51,0.95,0.02
0.51,0.97,0.02
0.51,0.96,0.02
0.5,0.96,0.03
0.49,0.95,0.03
0.48,0.94,0.03
0.47,0.92,0.03
0.47,0.91,0.04
0.46,0.9,0.05
0.45,0.89,0.05
0.44,0.88,0.06
0.43,0.88,0.06
0.43,0.87,0.06
0.42,0.86,0.06
0.42,0.86,0.05
0.43,0.86,0.06
0.43,0.86,0.06
0.43,0.85,0.06
0.43,0.84,0.07
0.43,0.85,0.08
0.43,0.85,0.08
0.43,0.85,0.07
0.43,0.86,0.07
0.44,0.86,0.07
0.44,0.86,0.06
0.45,0.86,0.06
0.45,0.86,0.06
0.45,0.87,0.06
0.45,0.89,0.06
0.44,0.9,0.06
0.44,0.91,0.05
0.45,0.91,0.05
0.46,0.92,0.04
0.46,0.93,0.05
0.46,0.93,0.06
0.47,0.93,0.07
0.47,0.93,0.07
0.47,0.91,0.08
0.47,0.9,0.08
0.47,0.88,0.08
0.46,0.87,0.09
0.46,0.86,0.09
0.46,0.86,0.09
0.46,0.86,0.09
0.45,0.86,0.09
0.44,0.87,0.09
0.43,0.88,0.1
0.44,0.88,0.12
0.45,0.88,0.12
0.44,0.88,0.12
0.45,0.88,0.13
0.45,0.87,0.13
0.46,0.87,0.13
0.46,0.86,0.13
0.46,0.86,0.13
0.45,0.87,0.14
0.42,0.86,0.14
0.42,0.87,0.13
0.41,0.88,0.13
0.4,0.88,0.12
0.4,0.9,0.11
0.4,0.91,0.1
0.4,0.92,0.1
0.41,0.93,0.09
0.41,0.93,0.09
0.41,0.92,0.09
0.4,0.91,0.1
0.39,0.91,0.11
0.37,0.9,0.14
0.33,0.89,0.17
0.3,0.89,0.19
0.28,0.9,0.21
0.27,0.9,0.22
0.28,0.9,0.21
0.28,0.91,0.2
0.29,0.92,0.19
0.31,0.92,0.19
0.32,0.93,0.18
0.35,0.93,0.17
0.37,0.92,0.16
0.39,0.92,0.16
0.4,0.91,0.15
0.41,0.91,0.14
0.41,0.9,0.14
0.41,0.89,0.14
0.41,0.89,0.14
0.4,0.88,0.15
0.4,0.88,0.15
0.4,0.87,0.17
0.41,0.87,0.21
0.41,0.88,0.27
0.43,0.89,0.37
0.46,0.89,0.47
0.5,0.89,0.58
0.54,0.89,0.7
0.7,0.93,0.75
0.82,0.95,0.81
0.95,1,0.88
1.04,1.03,0.93
1.05,1.06,0.96
1,1.11,0.96
0.92,1.15,0.98
0.83,1.18,1
0.77,1.2,1.02
0.75,1.22,1.03
0.73,1.24,1.02
0.71,1.26,1
0.73,1.27,0.96
0.77,1.28,0.89
0.82,1.28,0.82
0.84,1.29,0.77
0.85,1.29,0.74
0.83,1.27,0.71
0.8,1.25,0.67
0.76,1.21,0.64
0.71,1.18,0.61
0.69,1.14,0.59
0.66,1.1,0.59
0.63,1.06,0.58
0.64,1.01,0.56
0.65,0.97,0.55
0.62,0.91,0.55
0.59,0.86,0.55
0.56,0.8,0.54
0.54,0.75,0.53
0.52,0.71,0.52
0.51,0.67,0.51
0.5,0.62,0.47
0.49,0.57,0.45
0.47,0.51,0.46
0.46,0.46,0.47
0.45,0.41,0.49
0.43,0.35,0.51
0.41,0.29,0.54
0.4,0.26,0.55
0.37,0.22,0.55
0.35,0.2,0.53
0.34,0.17,0.52
0.35,0.12,0.5
0.37,0.09,0.48
0.39,0.05,0.48
0.38,0.01,0.49
0.35,-0.01,0.51
0.31,-0.03,0.52
0.28,-0.07,0.55
0.25,-0.09,0.55
0.21,-0.14,0.55
0.22,-0.12,0.55
0.19,-0.21,0.51
0.21,-0.22,0.49
0.2,-0.17,0.49
0.15,-0.18,0.49
0.15,-0.22,0.48
0.16,-0.24,0.47
0.15,-0.24,0.47
0.12,-0.27,0.44
0.1,-0.31,0.39
0.08,-0.27,0.37
0.07,-0.22,0.35
0.08,-0.23,0.34
0.08,-0.23,0.34
0.09,-0.23,0.33
0.09,-0.23,0.34
0.07,-0.22,0.34
0.07,-0.21,0.34
0.06,-0.19,0.33
0.06,-0.17,0.32
0.06,-0.15,0.29
0.07,-0.13,0.25
0.09,-0.09,0.21
0.12,-0.05,0.17
0.15,-0.01,0.14
0.17,0.03,0.12
0.18,0.1,0.13
0.18,0.14,0.15
0.17,0.18,0.15
0.18,0.22,0.15
0.19,0.26,0.14
0.23,0.31,0.13
0.28,0.36,0.11
0.32,0.4,0.12
0.36,0.45,0.13
0.4,0.53,0.14
0.43,0.62,0.17
0.43,0.71,0.21
0.45,0.8,0.24
0.49,0.88,0.27
0.57,0.93,0.29
0.65,0.99,0.3
0.72,1.06,0.32
0.77,1.15,0.33
0.79,1.28,0.33
0.78,1.41,0.35
0.75,1.51,0.37
0.76,1.62,0.4
0.81,1.73,0.41
0.88,1.78,0.4
0.92,1.82,0.42
0.92,1.89,0.46
0.92,2.09,0.48
0.91,2.16,0.43
0.93,2.18,0.38
0.99,2.19,0.35
0.72,1.97,1.62
-0.32,2.76,3.43
1.45,3.74,4
3.74,1.73,1.56
2.53,-0.09,-0.89
1.82,0.72,-0.55
2.06,1.24,-0.15
1.57,1.02,-0.04
0.97,0.96,0.18
0.95,0.98,0.25
0.86,0.89,0.03
0.49,0.72,-0.2
0.37,0.58,-0.33
0.23,0.55,-0.28
0.02,0.56,-0.17
0.02,0.57,-0.17
0.12,0.57,-0.23
0.16,0.59,-0.26
0.18,0.63,-0.25
0.24,0.68,-0.24
0.31,0.72,-0.2
0.35,0.75,-0.15
0.38,0.83,-0.08
0.42,0.85,-0.08
0.44,0.87,-0.1
0.45,0.9,-0.14
0.44,0.93,-0.14
0.45,0.99,-0.12
0.47,1.05,-0.06
0.42,1.06,0.11
0.4,1.07,0.32
0.41,1.09,0.48
0.39,1.08,0.58
0.37,1.07,0.62
0.3,1.05,0.57
0.23,1.02,0.44
0.17,0.98,0.31
0.16,0.96,0.24
0.18,0.95,0.22
0.2,0.96,0.22
0.24,0.96,0.22
0.29,0.96,0.2
0.34,0.95,0.18
0.34,0.94,0.15
0.35,0.93,0.11
0.34,0.92,0.08
0.34,0.92,0.06
0.35,0.91,0.04
0.36,0.9,0.02
0.35,0.89,0.02
0.34,0.89,0.02
0.33,0.88,0.02
0.33,0.87,0.02
0.33,0.88,0.02
0.33,0.88,0.02
0.34,0.88,0.02
0.35,0.88,0.03
0.36,0.89,0.04
0.37,0.9,0.05
0.39,0.91,0.05
0.4,0.91,0.06
0.4,0.91,0.07
0.39,0.92,0.08
0.39,0.93,0.09
0.38,0.93,0.1
0.36,0.94,0.12
0.34,0.94,0.15
0.32,0.95,0.17
0.31,0.95,0.19
0.29,0.94,0.2
0.29,0.93,0.2
0.28,0.93,0.2
0.28,0.92,0.2
0.27,0.92,0.2
0.28,0.92,0.18
0.3,0.92,0.17
0.31,0.92,0.16
0.33,0.92,0.15
0.35,0.92,0.14
0.35,0.93,0.14
0.36,0.93,0.13
0.36,0.93,0.12
0.37,0.93,0.11
0.37,0.92,0.1
0.36,0.91,0.1
0.36,0.91,0.1
0.36,0.91,0.1
0.36,0.9,0.1
0.35,0.9,0.1
0.34,0.9,0.11
0.35,0.91,0.11
0.35,0.91,0.11
0.34,0.92,0.12
0.34,0.92,0.12
0.34,0.92,0.13
0.34,0.92,0.13
0.34,0.92,0.14
0.33,0.92,0.15
0.33,0.92,0.15
0.33,0.92,0.15
0.33,0.92,0.16
0.33,0.92,0.16
0.34,0.92,0.16
0.34,0.92,0.15
0.35,0.92,0.14
0.35,0.91,0.14
0.36,0.91,0.14
0.36,0.91,0.13
0.36,0.91,0.13
0.36,0.91,0.13
0.37,0.91,0.13
0.37,0.91,0.12
0.37,0.91,0.12
0.37,0.9,0.13
0.36,0.9,0.13
0.36,0.9,0.14
0.36,0.9,0.14
0.35,0.9,0.14
0.35,0.9,0.14
0.35,0.9,0.14
0.35,0.9,0.14
0.35,0.9,0.14
0.36,0.9,0.14
0.36,0.9,0.15
0.36,0.9,0.15
0.36,0.9,0.15
0.37,0.9,0.15
0.36,0.91,0.15
0.37,0.91,0.15
0.36,0.91,0.15
0.36,0.92,0.15
0.35,0.92,0.15
0.35,0.91,0.14
0.35,0.91,0.14
0.35,0.91,0.14
0.36,0.91,0.14
0.35,0.91,0.14
0.35,0.91,0.14
0.35,0.91,0.14
0.35,0.91,0.13
0.35,0.91,0.13
0.34,0.91,0.13
0.34,0.91,0.13
0.34,0.91,0.13
0.34,0.91,0.13
0.34,0.92,0.14
0.34,0.92,0.14
0.34,0.91,0.14
0.34,0.91,0.14
0.34,0.91,0.14
0.34,0.91,0.14
0.34,0.91,0.14
0.34,0.91,0.14
0.35,0.92,0.14
0.34,0.91,0.14
0.34,0.91,0.14
0.34,0.91,0.14
0.34,0.91,0.13
0.34,0.91,0.14
0.35,0.91,0.13
0.35,0.91,0.13
0.35,0.91,0.14
0.35,0.91,0.14
0.35,0.91,0.14
0.34,0.91,0.14
0.34,0.91,0.14
0.35,0.91,0.14
0.34,0.91,0.14
0.34,0.92,0.14
0.34,0.92,0.14
0.34,0.91,0.14
0.34,0.91,0.14
0.34,0.91,0.14
0.35,0.91,0.15
0.35,0.91,0.15
0.34,0.91,0.15
0.35,0.91,0.15
0.35,0.91,0.14
0.35,0.91,0.14
0.35,0.92,0.14
0.36,0.92,0.13
0.36,0.91,0.13
0.36,0.91,0.13
0.36,0.91,0.13
0.36,0.91,0.13
0.35,0.91,0.12
0.35,0.91,0.12
0.34,0.92,0.13
0.34,0.92,0.14
0.34,0.92,0.14
0.34,0.92,0.14
0.34,0.91,0.15
0.34,0.91,0.15
0.34,0.91,0.15
0.34,0.9,0.15
0.34,0.9,0.15
0.34,0.9,0.15
0.34,0.9,0.15
0.35,0.9,0.15
0.35,0.9,0.15
0.35,0.91,0.15
0.37,0.9,0.14
0.39,0.9,0.14
0.39,0.9,0.17
0.4,0.9,0.3
0.42,0.92,0.37
0.42,0.94,0.44
0.41,0.96,0.48
0.43,0.96,0.54
0.47,0.95,0.62
0.53,0.97,0.71
0.59,1,0.78
0.66,1.04,0.84
0.74,1.07,0.91
0.81,1.09,0.97
0.87,1.11,1
0.89,1.12,1
0.88,1.12,0.99
0.87,1.13,0.99
0.87,1.14,1.01
0.89,1.16,1.02
0.92,1.19,1.01
0.96,1.23,0.96
1,1.27,0.92
1.02,1.3,0.89
0.98,1.3,0.85
0.91,1.29,0.82
0.85,1.28,0.8
0.82,1.25,0.77
0.81,1.22,0.75
0.81,1.18,0.76
0.79,1.09,0.75
0.78,1.04,0.71
0.76,1,0.67
0.75,0.95,0.64
0.75,0.91,0.62
0.75,0.87,0.6
0.74,0.82,0.6
0.71,0.78,0.62
0.7,0.74,0.64
0.68,0.7,0.65
0.64,0.67,0.63
0.6,0.64,0.61
0.56,0.6,0.58
0.54,0.55,0.57
0.52,0.51,0.58
0.51,0.47,0.59
0.5,0.44,0.58
0.49,0.41,0.56
0.47,0.37,0.51
0.45,0.32,0.46
0.43,0.28,0.41
0.42,0.23,0.39
0.4,0.18,0.4
0.37,0.14,0.43
0.35,0.14,0.45
0.35,0.11,0.45
0.33,0.02,0.44
0.3,-0.01,0.43
0.26,-0.07,0.4
0.26,-0.11,0.4
0.26,-0.05,0.43
0.23,-0.06,0.46
0.19,-0.13,0.49
0.15,-0.2,0.49
0.1,-0.26,0.51
0.06,-0.25,0.53
0.02,-0.19,0.55
-0.01,-0.21,0.56
-0.01,-0.29,0.57
0.02,-0.31,0.57
0.03,-0.26,0.56
0.02,-0.29,0.57
0.04,-0.33,0.56
0.04,-0.34,0.57
0.02,-0.37,0.59
0.01,-0.4,0.59
0.01,-0.38,0.59
-0.01,-0.35,0.59
-0.04,-0.35,0.61
-0.06,-0.35,0.61
-0.06,-0.37,0.58
-0.05,-0.38,0.53
-0.01,-0.34,0.52
0.01,-0.35,0.5
0.03,-0.35,0.49
0.04,-0.34,0.47
0.05,-0.33,0.46
0.05,-0.32,0.45
0.04,-0.32,0.45
0.03,-0.31,0.44
0.03,-0.29,0.43
0.02,-0.28,0.42
0.02,-0.26,0.39
0.02,-0.23,0.36
0.03,-0.21,0.32
0.04,-0.2,0.28
0.06,-0.18,0.26
0.07,-0.15,0.28
0.08,-0.12,0.33
0.09,-0.09,0.37
0.1,-0.04,0.38
0.11,0.01,0.36
0.12,0.05,0.32
0.14,0.08,0.27
0.17,0.11,0.22
0.2,0.13,0.19
0.25,0.17,0.17
0.28,0.21,0.21
0.31,0.32,0.33
0.33,0.4,0.36
0.35,0.48,0.36
0.38,0.57,0.34
0.4,0.66,0.29
0.43,0.73,0.26
0.47,0.75,0.27
0.51,0.76,0.29
0.56,0.82,0.33
0.61,0.92,0.39
0.67,1.06,0.47
0.71,1.2,0.52
0.74,1.29,0.56
0.75,1.36,0.57
0.77,1.41,0.56
0.79,1.47,0.54
0.82,1.55,0.53
0.86,1.61,0.51
0.93,1.66,0.49
0.96,1.71,0.53
0.97,1.72,0.59
1.04,1.79,0.65
1.11,1.82,0.7
1.11,1.79,0.74
1.09,1.81,0.83
1.09,1.83,0.87
1.07,1.84,0.75
1.02,1.8,0.75
-1.49,2.87,2.36
-1.08,2.14,3.98
2.8,1.21,2.72
3.07,1.01,0.28
2.5,0.32,-0.68
2.16,0.98,-0.22
1.4,0.99,0.02
1.14,0.8,0
0.98,0.92,0.1
0.73,0.87,0.13
0.56,0.68,0.02
0.44,0.59,-0.09
0.29,0.55,-0.18
0.16,0.55,-0.24
0.05,0.54,-0.25
0.03,0.56,-0.22
0.15,0.58,-0.24
0.28,0.59,-0.27
0.36,0.63,-0.27
0.39,0.7,-0.25
0.43,0.77,-0.22
0.47,0.82,-0.19
0.49,0.85,-0.17
0.5,0.87,-0.16
0.5,0.93,-0.14
0.55,0.99,-0.14
0.54,0.99,-0.14
0.5,1,-0.02
0.44,1.06,0.22
0.31,1.07,0.45
0.21,1.04,0.63
0.22,1.05,0.74
0.18,1.07,0.74
0.11,1.07,0.6
0.07,1.03,0.43
0.05,0.97,0.29
0.09,0.92,0.22
0.16,0.91,0.17
0.24,0.93,0.14
0.3,0.94,0.13
0.37,0.94,0.12
0.4,0.94,0.12
0.39,0.95,0.12
0.39,0.93,0.12
0.39,0.92,0.1
0.4,0.91,0.08
0.39,0.89,0.06
0.38,0.88,0.06
0.37,0.88,0.05
0.36,0.87,0.04
0.34,0.86,0.03
0.34,0.86,0.03
0.34,0.86,0.04
0.36,0.87,0.05
0.39,0.88,0.06
0.42,0.9,0.07
0.45,0.91,0.08
0.47,0.91,0.09
0.47,0.9,0.1
0.47,0.9,0.11
0.46,0.9,0.13
0.46,0.9,0.14
0.44,0.9,0.15
0.43,0.91,0.16
0.41,0.91,0.17
0.39,0.92,0.18
0.37,0.92,0.19
0.36,0.91,0.2
0.34,0.91,0.2
0.33,0.91,0.19
0.33,0.91,0.18
0.33,0.91,0.17
0.34,0.9,0.17
0.35,0.91,0.15
0.35,0.91,0.13
0.36,0.91,0.12
0.37,0.92,0.11
0.37,0.92,0.11
0.37,0.91,0.11
0.37,0.91,0.11
0.37,0.9,0.12
0.37,0.9,0.12
0.37,0.9,0.12
0.37,0.9,0.13
0.36,0.9,0.13
0.37,0.9,0.13
0.37,0.9,0.13
0.38,0.9,0.14
0.37,0.9,0.14
0.37,0.9,0.14
0.38,0.91,0.14
0.37,0.91,0.15
0.37,0.91,0.15
0.36,0.91,0.15
0.36,0.91,0.15
0.37,0.91,0.15
0.36,0.91,0.15
0.36,0.91,0.15
0.36,0.91,0.14
0.37,0.91,0.13
0.37,0.91,0.13
0.37,0.9,0.13
0.36,0.91,0.13
0.36,0.9,0.13
0.36,0.9,0.13
0.35,0.9,0.13
0.35,0.91,0.13
0.35,0.91,0.13
0.36,0.91,0.13
0.36,0.9,0.13
0.35,0.9,0.13
0.36,0.9,0.13
0.36,0.91,0.13
0.36,0.91,0.13
0.36,0.91,0.13
0.36,0.91,0.14
0.37,0.91,0.14
0.36,0.91,0.14
0.37,0.91,0.14
0.37,0.91,0.14
0.38,0.91,0.14
0.37,0.9,0.14
0.37,0.9,0.14
0.37,0.9,0.14
0.37,0.9,0.14
0.37,0.9,0.14
0.36,0.89,0.14
0.37,0.89,0.14
0.37,0.89,0.14
0.37,0.9,0.14
0.37,0.9,0.14
0.37,0.9,0.14
0.38,0.9,0.13
0.38,0.91,0.13
0.37,0.91,0.13
0.37,0.91,0.14
0.37,0.91,0.14
0.37,0.91,0.15
0.37,0.91,0.15
0.37,0.9,0.15
0.37,0.9,0.15
0.36,0.9,0.15
0.36,0.91,0.15
0.36,0.91,0.15
0.36,0.91,0.15
0.36,0.9,0.15
0.36,0.9,0.15
0.36,0.9,0.14
0.37,0.9,0.15
0.37,0.9,0.15
0.37,0.9,0.15
0.37,0.9,0.14
0.38,0.9,0.14
0.38,0.9,0.14
0.38,0.9,0.14
0.37,0.9,0.14
0.37,0.9,0.15
0.37,0.9,0.15
0.37,0.91,0.15
0.37,0.9,0.15
0.37,0.9,0.15
0.37,0.9,0.15
0.37,0.9,0.15
0.37,0.91,0.14
0.37,0.91,0.14
0.37,0.91,0.15
0.37,0.91,0.15
0.36,0.9,0.14
0.36,0.9,0.14
0.36,0.9,0.14
0.36,0.9,0.15
0.36,0.91,0.15
0.37,0.91,0.15
0.37,0.9,0.15
0.37,0.9,0.15
0.37,0.91,0.15
0.37,0.91,0.15
0.36,0.9,0.15
0.36,0.9,0.15
0.36,0.9,0.15
0.36,0.9,0.15
0.36,0.91,0.15
0.36,0.91,0.15
0.36,0.91,0.15
0.36,0.91,0.16
0.36,0.91,0.16
0.37,0.91,0.16
0.37,0.9,0.16
0.37,0.9,0.16
0.37,0.9,0.16
0.37,0.89,0.16
0.38,0.9,0.16
0.39,0.9,0.18
0.4,0.9,0.2
0.41,0.9,0.24
0.43,0.9,0.3
0.44,0.91,0.35
0.47,0.93,0.41
0.51,0.95,0.46
0.56,0.94,0.5
0.61,0.91,0.55
0.69,0.88,0.62
0.78,0.88,0.69
0.85,0.89,0.75
0.88,0.92,0.8
0.87,0.95,0.84
0.85,0.99,0.88
0.85,1.01,0.89
0.87,1.02,0.92
0.91,1.05,0.93
0.96,1.08,0.92
0.98,1.1,0.9
0.97,1.12,0.89
0.94,1.14,0.88
0.9,1.16,0.87
0.85,1.17,0.85
0.82,1.18,0.83
0.81,1.18,0.82
0.81,1.18,0.8
0.82,1.17,0.77
0.83,1.17,0.76
0.84,1.16,0.76
0.85,1.16,0.76
0.84,1.15,0.74
0.8,1.12,0.72
0.77,1.1,0.71
0.74,1.06,0.69
0.74,1.04,0.68
0.72,1.02,0.7
0.71,1,0.72
0.7,0.97,0.7
0.69,0.93,0.68
0.69,0.88,0.66
0.67,0.81,0.65
0.64,0.77,0.64
0.6,0.74,0.64
0.56,0.68,0.63
0.53,0.61,0.63
0.51,0.57,0.63
0.52,0.53,0.61
0.51,0.44,0.6
0.49,0.39,0.61
0.54,0.37,0.79
0.55,0.26,0.74
0.52,0.21,0.55
0.53,0.23,0.58
0.45,0.18,0.6
0.38,0.12,0.6
0.36,0.08,0.59
0.32,0.02,0.61
0.25,0,0.61
0.25,0,0.59
0.24,-0.12,0.56
0.18,-0.21,0.53
0.17,-0.06,0.56
0.18,0.01,0.55
0.18,-0.2,0.52
0.17,-0.17,0.51
0.14,-0.05,0.49
0.06,-0.18,0.48
0.02,-0.22,0.46
0.02,-0.29,0.45
0,-0.27,0.43
-0.04,-0.31,0.4
-0.04,-0.3,0.4
-0.05,-0.32,0.39
-0.06,-0.33,0.39
-0.05,-0.34,0.39
-0.03,-0.4,0.38
-0.04,-0.44,0.37
-0.04,-0.43,0.38
-0.04,-0.43,0.4
-0.05,-0.48,0.4
-0.05,-0.5,0.41
-0.06,-0.51,0.42
-0.07,-0.52,0.45
-0.08,-0.54,0.47
-0.09,-0.56,0.49
-0.09,-0.56,0.48
-0.09,-0.55,0.47
-0.09,-0.55,0.46
-0.08,-0.53,0.45
-0.08,-0.52,0.46
-0.07,-0.52,0.48
-0.07,-0.52,0.5
-0.08,-0.5,0.53
-0.08,-0.49,0.52
-0.08,-0.47,0.5
-0.07,-0.46,0.47
-0.04,-0.43,0.42
-0.02,-0.39,0.38
0,-0.37,0.36
0,-0.36,0.38
0.01,-0.35,0.41
0.02,-0.34,0.43
0.04,-0.32,0.42
0.03,-0.28,0.39
0.03,-0.23,0.35
0.04,-0.17,0.32
0.06,-0.12,0.27
0.07,-0.09,0.24
0.08,-0.07,0.22
0.1,-0.05,0.22
0.11,-0.02,0.27
0.12,-0.02,0.35
0.16,-0.01,0.39
0.19,0.03,0.41
0.21,0.1,0.4
0.23,0.18,0.36
0.24,0.26,0.32
0.24,0.3,0.29
0.26,0.37,0.22
0.39,0.42,0.23
0.46,0.47,0.3
0.52,0.55,0.4
0.59,0.65,0.49
0.61,0.76,0.54
0.61,0.86,0.54
0.61,0.94,0.46
0.63,1.01,0.35
0.66,1.01,0.3
0.69,0.98,0.3
0.73,1.01,0.34
0.76,1.09,0.42
0.79,1.22,0.48
0.83,1.38,0.51
0.86,1.54,0.52
0.85,1.67,0.49
0.88,1.72,0.44
0.96,1.73,0.39
1,1.73,0.37
1.03,1.8,0.42
1.02,1.87,0.51
0.94,1.92,0.57
0.87,2.01,0.64
0.77,2.04,0.69
0.74,2.03,0.72
0.8,1.99,0.69
0.9,1.95,0.69
-1.51,2.25,2.34
-0.08,1.3,3.99
3.44,1.17,2.84
3,1.25,0.57
2.54,0.43,-0.55
1.9,0.77,-0.38
1.27,0.81,-0.14
0.94,0.8,0.04
1.08,0.81,0.2
1,0.72,0.12
0.68,0.58,-0.16
0.48,0.53,-0.36
0.21,0.56,-0.36
0.02,0.6,-0.28
0.09,0.63,-0.29
0.17,0.67,-0.32
0.19,0.72,-0.33
0.25,0.78,-0.3
0.34,0.82,-0.25
0.4,0.86,-0.21
0.41,0.89,-0.17
0.41,0.9,-0.14
0.42,0.93,-0.12
0.44,0.96,-0.11
0.45,1.03,-0.07
0.38,1.02,0.07
0.34,1.01,0.4
0.21,1.05,0.85
0.03,1.15,1.09
-0.07,1.19,0.92
-0.18,1.1,0.59
-0.17,0.98,0.34
-0.04,0.92,0.18
0.13,0.91,0.1
0.22,0.92,0.09
0.26,0.92,0.1
0.32,0.92,0.12
0.38,0.92,0.14
0.43,0.91,0.14
0.45,0.89,0.12
0.43,0.88,0.08
0.41,0.88,0.04
0.41,0.88,0.01
0.4,0.87,0
0.38,0.86,0
0.37,0.86,0.01
0.36,0.86,0.03
0.36,0.87,0.05
0.38,0.88,0.08
0.41,0.89,0.11
0.43,0.9,0.17
0.42,0.9,0.19
0.41,0.9,0.2
0.39,0.91,0.21
0.37,0.92,0.22
0.34,0.92,0.22
0.32,0.92,0.21
0.31,0.93,0.21
0.3,0.93,0.19
0.31,0.93,0.18
0.32,0.93,0.18
0.32,0.93,0.18
0.32,0.92,0.17
0.32,0.92,0.16
0.32,0.92,0.15
0.32,0.92,0.15
0.32,0.91,0.14
0.32,0.91,0.14
0.32,0.91,0.14
0.32,0.9,0.14
0.32,0.9,0.14
0.33,0.91,0.14
0.33,0.91,0.15
0.33,0.91,0.15
0.34,0.91,0.15
0.35,0.91,0.16
0.35,0.9,0.17
0.36,0.9,0.18
0.36,0.9,0.19
0.37,0.9,0.19
0.37,0.89,0.19
0.36,0.89,0.19
0.36,0.89,0.18
0.37,0.9,0.18
0.37,0.89,0.18
0.37,0.89,0.18
0.38,0.9,0.18
0.38,0.9,0.17
0.39,0.9,0.17
0.38,0.9,0.17
0.39,0.9,0.17
0.4,0.9,0.17
0.39,0.9,0.17
0.38,0.9,0.16
0.38,0.9,0.16
0.38,0.9,0.17
0.37,0.91,0.17
0.37,0.91,0.16
0.36,0.91,0.16
0.36,0.91,0.16
0.36,0.91,0.16
0.36,0.92,0.16
0.36,0.92,0.17
0.35,0.9,0.16
0.35,0.9,0.16
0.35,0.9,0.16
0.34,0.91,0.15
0.34,0.91,0.14
0.34,0.91,0.14
0.35,0.92,0.14
0.35,0.92,0.14
0.35,0.92,0.14
0.35,0.91,0.15
0.36,0.91,0.15
0.36,0.9,0.14
0.36,0.9,0.15
0.37,0.89,0.15
0.37,0.89,0.15
0.37,0.89,0.14
0.36,0.89,0.14
0.36,0.89,0.14
0.36,0.89,0.14
0.36,0.89,0.14
0.36,0.9,0.13
0.36,0.9,0.13
0.36,0.9,0.13
0.36,0.9,0.12
0.36,0.91,0.12
0.36,0.91,0.11
0.36,0.91,0.12
0.36,0.9,0.11
0.36,0.9,0.12
0.36,0.9,0.12
0.35,0.9,0.12
0.35,0.9,0.12
0.36,0.9,0.11
0.36,0.9,0.11
0.36,0.9,0.11
0.36,0.89,0.1
0.36,0.89,0.1
0.36,0.89,0.1
0.36,0.89,0.09
0.36,0.89,0.09
0.35,0.89,0.09
0.36,0.89,0.09
0.36,0.89,0.09
0.36,0.89,0.09
0.36,0.89,0.09
0.36,0.89,0.08
0.36,0.88,0.08
0.36,0.88,0.08
0.36,0.88,0.08
0.36,0.89,0.07
0.36,0.9,0.07
0.36,0.91,0.07
0.38,0.95,0.08
0.39,0.97,0.08
0.4,0.99,0.08
0.4,1,0.08
0.4,1,0.09
0.4,1.01,0.1
0.4,1.01,0.11
0.4,1,0.11
0.4,1,0.11
0.41,0.99,0.11
0.41,0.98,0.1
0.42,0.96,0.1
0.42,0.93,0.09
0.41,0.92,0.09
0.41,0.9,0.09
0.4,0.89,0.09
0.39,0.88,0.09
0.39,0.88,0.08
0.4,0.88,0.08
0.4,0.88,0.08
0.4,0.87,0.08
0.4,0.87,0.08
0.41,0.9,0.08
0.43,0.94,0.08
0.45,0.98,0.08
0.47,1.02,0.08
0.51,1.04,0.09
0.53,0.97,0.1
0.54,0.89,0.11
0.53,0.82,0.12
0.51,0.77,0.12
0.49,0.76,0.12
0.41,0.77,0.14
0.33,0.82,0.16
0.27,0.9,0.18
0.21,0.97,0.21
0.17,1.03,0.25
0.15,1.07,0.28
0.15,1.09,0.31
0.14,1.07,0.31
0.17,1.04,0.27
0.2,1,0.22
0.2,0.95,0.2
0.19,0.92,0.18
0.19,0.89,0.18
0.18,0.86,0.19
0.2,0.86,0.2
0.24,0.85,0.2
0.27,0.85,0.21
0.29,0.85,0.2
0.32,0.87,0.19
0.34,0.87,0.15
0.36,0.87,0.13
0.35,0.87,0.11
0.34,0.86,0.11
0.32,0.86,0.12
0.31,0.86,0.13
0.29,0.86,0.15
0.28,0.87,0.16
0.26,0.88,0.19
0.25,0.89,0.21
0.24,0.9,0.22
0.25,0.9,0.23
0.25,0.9,0.23
0.24,0.9,0.23
0.24,0.91,0.23
0.24,0.92,0.23
0.24,0.92,0.23
0.25,0.92,0.21
0.25,0.92,0.21
0.26,0.92,0.21
0.25,0.91,0.2
0.24,0.91,0.21
0.23,0.9,0.22
0.22,0.89,0.24
0.21,0.89,0.26
0.2,0.9,0.28
0.19,0.9,0.29
0.18,0.91,0.3
0.17,0.91,0.29
0.18,0.9,0.28
0.18,0.9,0.26
0.19,0.89,0.24
0.21,0.88,0.23
0.22,0.89,0.22
0.22,0.9,0.21
0.22,0.91,0.2
0.21,0.92,0.18
0.21,0.93,0.17
0.21,0.93,0.17
0.2,0.94,0.17
0.19,0.94,0.17
0.19,0.95,0.17
0.2,0.95,0.18
0.21,0.98,0.17
0.21,1.01,0.17
0.21,1.05,0.19
0.22,1.08,0.2
0.27,1.08,0.2
0.32,1.07,0.19
0.38,1.03,0.17
0.45,0.97,0.16
0.47,0.9,0.18
0.47,0.84,0.23
0.54,0.81,0.28
0.57,0.83,0.33
0.61,0.85,0.41
0.71,0.87,0.47
0.82,0.9,0.52
0.87,0.92,0.57
0.91,0.97,0.62
0.97,1.03,0.68
1.01,1.1,0.77
1.01,1.15,0.86
1,1.18,0.9
0.97,1.21,0.9
0.96,1.24,0.88
0.96,1.24,0.84
0.99,1.25,0.82
1.03,1.25,0.8
1.06,1.25,0.81
1.05,1.26,0.84
1.02,1.27,0.87
0.97,1.28,0.89
0.93,1.28,0.89
0.91,1.29,0.85
0.92,1.29,0.8
0.93,1.3,0.76
0.95,1.3,0.72
0.96,1.3,0.69
0.97,1.3,0.66
0.91,1.29,0.64
0.86,1.27,0.63
0.81,1.23,0.63
0.77,1.18,0.61
0.73,1.14,0.6
0.69,1.1,0.58
0.66,1.05,0.55
0.64,0.99,0.52
0.62,0.92,0.49
0.61,0.84,0.48
0.6,0.78,0.48
0.57,0.73,0.49
0.51,0.63,0.47
0.45,0.5,0.45
0.43,0.53,0.46
0.36,0.48,0.46
0.32,0.34,0.43
0.34,0.33,0.42
0.33,0.37,0.42
0.32,0.36,0.43
0.32,0.24,0.39
0.26,0.15,0.34
0.24,0.13,0.36
0.22,0.12,0.38
0.22,0.08,0.4
0.23,0.01,0.41
0.16,-0.05,0.42
0.14,-0.12,0.42
0.12,-0.16,0.42
0.11,-0.17,0.44
0.1,-0.18,0.45
0.07,-0.23,0.44
0.05,-0.24,0.42
0.07,-0.24,0.41
0.08,-0.25,0.41
0.07,-0.25,0.4
0.04,-0.3,0.38
0.03,-0.33,0.37
0.04,-0.35,0.37
0.05,-0.36,0.36
0.05,-0.36,0.35
0.05,-0.36,0.34
0.05,-0.36,0.34
0.05,-0.35,0.34
0.05,-0.34,0.35
0.06,-0.32,0.36
0.07,-0.3,0.35
0.07,-0.27,0.34
0.08,-0.25,0.32
0.09,-0.24,0.31
0.09,-0.23,0.3
0.08,-0.22,0.3
0.06,-0.2,0.29
0.05,-0.18,0.28
0.03,-0.16,0.26
0.03,-0.14,0.25
0.04,-0.14,0.22
0.05,-0.14,0.19
0.07,-0.12,0.17
0.09,-0.09,0.15
0.11,-0.03,0.13
0.13,0.03,0.12
0.15,0.1,0.12
0.16,0.16,0.13
0.16,0.2,0.16
0.16,0.21,0.2
0.19,0.2,0.23
0.25,0.21,0.24
0.3,0.25,0.26
0.33,0.31,0.28
0.36,0.4,0.3
0.42,0.51,0.3
0.46,0.63,0.29
0.48,0.76,0.29
0.5,0.85,0.31
0.5,0.9,0.34
0.52,0.93,0.38
0.56,1.05,0.49
0.61,1.12,0.51
0.64,1.27,0.48
0.65,1.37,0.43
0.62,1.4,0.36
0.65,1.46,0.34
0.69,1.5,0.4
0.77,1.59,0.5
0.89,1.73,0.62
0.99,1.89,0.68
1.01,1.99,0.66
0.99,2.09,0.57
0.99,2.2,0.49
1,2.26,0.49
1.02,2.25,0.58
1.06,2.27,0.69
1.07,2.26,0.82
-1.46,2.27,2.43
-0.93,0.75,3.99
3.03,1.07,2.51
3.96,1.39,-0.03
3.31,0.36,-1.03
1.82,1.14,-0.58
1.22,1.23,0.04
1.72,0.96,0.34
1.58,0.79,0.31
1.03,0.85,-0.24
0.49,0.51,-0.41
0.24,0.49,-0.3
0.04,0.6,-0.2
0.09,0.65,-0.22
0.15,0.63,-0.27
0.12,0.66,-0.26
0.15,0.7,-0.22
0.22,0.73,-0.17
0.29,0.76,-0.14
0.33,0.8,-0.12
0.37,0.82,-0.09
0.41,0.84,-0.08
0.44,0.85,-0.1
0.45,0.87,-0.11
0.42,0.9,-0.12
0.39,0.92,-0.11
0.41,0.97,-0.06
0.46,1.02,0.03
0.39,1.05,0.23
0.3,1.05,0.5
0.31,1.06,0.68
0.27,1.06,0.74
0.19,1.05,0.66
0.15,1.03,0.48
0.06,1.01,0.31
0.02,0.98,0.22
0.15,0.95,0.21
0.19,0.96,0.22
0.22,0.96,0.21
0.28,0.96,0.18
0.33,0.95,0.15
0.37,0.94,0.12
0.39,0.93,0.1
0.39,0.92,0.08
0.36,0.91,0.07
0.35,0.9,0.05
0.35,0.89,0.04
0.34,0.89,0.03
0.34,0.88,0.03
0.34,0.88,0.04
0.33,0.88,0.05
0.34,0.88,0.05
0.34,0.88,0.06
0.34,0.89,0.07
0.34,0.9,0.07
0.36,0.91,0.08
0.38,0.91,0.09
0.39,0.92,0.09
0.39,0.93,0.11
0.38,0.93,0.13
0.36,0.93,0.15
0.36,0.93,0.2
0.33,0.93,0.21
0.31,0.93,0.22
0.3,0.93,0.23
0.3,0.92,0.23
0.3,0.92,0.22
0.29,0.91,0.21
0.3,0.91,0.2
0.31,0.91,0.18
0.32,0.91,0.17
0.33,0.91,0.16
0.34,0.9,0.15
0.35,0.89,0.14
0.36,0.89,0.13
0.36,0.9,0.12
0.36,0.9,0.12
0.36,0.9,0.11
0.36,0.91,0.11
0.36,0.92,0.1
0.36,0.93,0.1
0.36,0.93,0.1
0.36,0.93,0.11
0.37,0.93,0.11
0.37,0.93,0.11
0.38,0.93,0.12
0.38,0.92,0.13
0.36,0.91,0.16
0.33,0.9,0.18
0.32,0.89,0.19
0.31,0.89,0.2
0.3,0.89,0.21
0.29,0.9,0.21
0.29,0.89,0.21
0.3,0.89,0.2
0.3,0.9,0.19
0.31,0.9,0.18
0.33,0.91,0.16
0.34,0.91,0.15
0.35,0.92,0.14
0.36,0.92,0.13
0.36,0.92,0.12
0.36,0.91,0.12
0.36,0.92,0.12
0.36,0.93,0.12
0.35,0.92,0.13
0.35,0.92,0.13
0.34,0.92,0.14
0.33,0.92,0.14
0.33,0.92,0.15
0.33,0.91,0.16
0.32,0.91,0.17
0.32,0.9,0.18
0.31,0.89,0.18
0.31,0.89,0.17
0.31,0.9,0.17
0.32,0.9,0.16
0.33,0.91,0.15
0.33,0.92,0.14
0.33,0.94,0.13
0.35,0.95,0.12
0.36,0.96,0.12
0.37,0.96,0.12
0.36,0.96,0.12
0.35,0.96,0.12
0.34,0.94,0.13
0.33,0.93,0.14
0.32,0.92,0.14
0.31,0.9,0.15
0.29,0.89,0.17
0.28,0.89,0.18
0.27,0.88,0.2
0.27,0.88,0.2
0.29,0.88,0.19
0.31,0.88,0.18
0.32,0.89,0.17
0.34,0.89,0.16
0.36,0.89,0.14
0.36,0.89,0.14
0.36,0.91,0.13
0.35,0.92,0.13
0.36,0.93,0.12
0.36,0.92,0.12
0.36,0.92,0.12
0.35,0.92,0.13
0.35,0.92,0.14
0.35,0.91,0.14
0.35,0.91,0.15
0.35,0.91,0.16
0.35,0.89,0.17
0.36,0.88,0.17
0.35,0.88,0.17
0.35,0.89,0.16
0.35,0.9,0.15
0.33,0.91,0.14
0.34,0.92,0.13
0.36,0.93,0.12
0.36,0.94,0.11
0.36,0.95,0.12
0.38,0.97,0.13
0.39,0.97,0.12
0.39,0.96,0.12
0.38,0.94,0.13
0.38,0.92,0.13
0.38,0.9,0.14
0.37,0.89,0.15
0.34,0.87,0.16
0.32,0.87,0.16
0.33,0.87,0.16
0.34,0.88,0.16
0.34,0.88,0.15
0.35,0.89,0.15
0.36,0.89,0.13
0.39,0.89,0.11
0.38,0.9,0.11
0.37,0.91,0.1
0.39,0.91,0.11
0.38,0.91,0.12
0.38,0.92,0.12
0.41,0.91,0.13
0.41,0.92,0.14
0.41,0.91,0.13
0.43,0.9,0.13
0.43,0.9,0.15
0.44,0.9,0.16
0.44,0.89,0.16
0.45,0.87,0.15
0.41,0.87,0.15
0.38,0.87,0.16
0.4,0.86,0.14
0.39,0.85,0.12
0.37,0.86,0.13
0.36,0.87,0.12
0.39,0.89,0.13
0.45,0.91,0.15
0.53,0.94,0.18
0.59,0.98,0.24
0.62,0.99,0.31
0.64,0.98,0.37
0.69,0.95,0.46
0.77,0.89,0.54
0.87,0.87,0.62
0.97,0.88,0.71
1.01,0.87,0.8
1.06,0.87,0.86
1.12,0.89,0.89
1.14,0.92,0.9
1.14,0.96,0.91
1.12,1.01,0.92
1.12,1.03,0.94
1.12,1.06,0.96
1.1,1.1,0.99
1.07,1.14,0.99
1.07,1.18,0.97
1.09,1.21,0.93
1.12,1.23,0.87
1.15,1.24,0.84
1.14,1.26,0.83
1.1,1.27,0.83
0.99,1.27,0.82
0.95,1.27,0.79
0.92,1.26,0.76
0.9,1.25,0.75
0.91,1.24,0.75
0.93,1.23,0.75
0.94,1.22,0.76
0.91,1.2,0.77
0.86,1.17,0.76
0.8,1.11,0.71
0.75,1.04,0.65
0.69,0.98,0.63
0.62,0.91,0.64
0.58,0.86,0.63
0.58,0.83,0.62
0.59,0.77,0.62
0.59,0.71,0.61
0.57,0.66,0.61
0.55,0.58,0.63
0.51,0.51,0.69
0.47,0.46,0.71
0.42,0.4,0.7
0.36,0.4,0.69
0.32,0.36,0.66
0.27,0.22,0.61
0.28,0.34,0.6
0.31,0.32,0.56
0.31,0.27,0.53
0.32,0.23,0.46
0.21,0.11,0.4
0.16,0.08,0.34
0.16,0.15,0.34
0.09,0.09,0.3
0.02,-0.04,0.23
0,-0.07,0.24
-0.02,-0.15,0.22
-0.04,-0.21,0.21
-0.05,-0.22,0.22
-0.06,-0.25,0.21
-0.06,-0.25,0.21
-0.06,-0.24,0.23
-0.08,-0.27,0.24
-0.1,-0.28,0.24
-0.13,-0.3,0.24
-0.15,-0.31,0.24
-0.17,-0.34,0.26
-0.2,-0.37,0.28
-0.22,-0.39,0.3
-0.21,-0.39,0.3
-0.19,-0.38,0.29
-0.18,-0.37,0.27
-0.18,-0.34,0.24
-0.18,-0.33,0.24
-0.18,-0.31,0.26
-0.18,-0.31,0.28
-0.18,-0.31,0.28
-0.16,-0.31,0.27
-0.13,-0.3,0.26
-0.11,-0.28,0.24
-0.08,-0.26,0.21
-0.06,-0.24,0.18
-0.05,-0.21,0.17
-0.05,-0.17,0.18
-0.07,-0.14,0.24
-0.09,-0.1,0.3
-0.09,-0.06,0.33
-0.07,-0.02,0.33
-0.04,0.01,0.3
-0.01,0.04,0.26
0.02,0.06,0.22
0.08,0.08,0.19
0.16,0.11,0.18
0.24,0.17,0.17
0.29,0.25,0.19
0.3,0.32,0.23
0.29,0.4,0.26
0.3,0.47,0.27
0.31,0.51,0.26
0.45,0.52,0.23
0.55,0.59,0.25
0.61,0.68,0.34
0.65,0.8,0.48
0.65,0.94,0.61
0.61,1.09,0.7
0.55,1.19,0.7
0.49,1.22,0.67
0.47,1.22,0.64
0.52,1.24,0.6
0.61,1.32,0.62
0.65,1.37,0.71
0.71,1.44,0.83
0.77,1.56,0.92
0.78,1.68,0.93
0.77,1.75,0.91
0.76,1.76,0.84
0.74,1.75,0.74
0.72,1.77,0.72
0.73,1.84,0.76
0.75,1.92,0.82
0.79,1.96,0.89
0.83,1.95,0.9
0.88,1.92,0.86
0.96,1.91,0.77
1,1.89,2.3
-2.17,0.73,3.99
1.1,1.31,3.53
3.33,1.02,1.19
2.52,0.29,-0.5
2.17,0.93,-0.18
1.58,1.01,-0.07
1.21,0.82,-0.06
1.14,0.86,0.04
0.85,0.91,0.09
0.56,0.79,-0.05
0.38,0.65,-0.21
0.26,0.59,-0.27
0.2,0.59,-0.28
0.2,0.59,-0.29
0.18,0.61,-0.27
0.16,0.64,-0.26
0.18,0.67,-0.25
0.19,0.7,-0.22
0.19,0.76,-0.16
0.22,0.81,-0.1
0.25,0.86,-0.05
0.29,0.9,0
0.35,0.95,0.04
0.4,1,0.09
0.4,1.05,0.19
0.35,1.08,0.56
0.22,1.11,0.76
0.18,1.11,0.76
0.22,1.07,0.57
0.2,1.02,0.35
0.12,0.97,0.2
0.13,0.93,0.13
0.2,0.92,0.12
0.26,0.93,0.13
0.31,0.94,0.14
0.34,0.95,0.15
0.37,0.94,0.14
0.4,0.92,0.14
0.42,0.9,0.12
0.4,0.87,0.09
0.38,0.85,0.06
0.38,0.85,0.04
0.37,0.85,0.02
0.37,0.85,0.03
0.38,0.87,0.05
0.39,0.88,0.08
0.4,0.9,0.12
0.42,0.91,0.14
0.45,0.93,0.15
0.46,0.94,0.15
0.45,0.93,0.15
0.43,0.92,0.13
0.37,0.91,0.12
0.35,0.9,0.11
0.34,0.9,0.12
0.33,0.9,0.12
0.32,0.91,0.13
0.32,0.91,0.14
0.32,0.91,0.15
0.32,0.92,0.15
0.32,0.92,0.15
0.32,0.92,0.14
0.33,0.93,0.14
0.33,0.93,0.13
0.33,0.93,0.13
0.34,0.93,0.11
0.34,0.93,0.11
0.34,0.92,0.12
0.33,0.92,0.13
0.33,0.91,0.13
0.32,0.92,0.13
0.32,0.92,0.14
0.33,0.92,0.15
0.33,0.91,0.15
0.33,0.91,0.15
0.34,0.91,0.15
0.34,0.91,0.14
0.35,0.91,0.14
0.35,0.91,0.13
0.35,0.9,0.13
0.35,0.9,0.13
0.35,0.91,0.13
0.35,0.91,0.13
0.35,0.91,0.13
0.35,0.92,0.13
0.35,0.92,0.13
0.35,0.93,0.13
0.35,0.93,0.13
0.35,0.92,0.14
0.34,0.91,0.14
0.34,0.91,0.14
0.33,0.91,0.15
0.33,0.91,0.15
0.33,0.91,0.15
0.32,0.92,0.15
0.33,0.92,0.15
0.33,0.92,0.14
0.33,0.92,0.14
0.34,0.92,0.13
0.34,0.92,0.13
0.35,0.92,0.13
0.35,0.91,0.14
0.34,0.91,0.14
0.34,0.91,0.14
0.34,0.91,0.14
0.35,0.92,0.13
0.35,0.92,0.13
0.34,0.91,0.13
0.34,0.91,0.14
0.34,0.92,0.14
0.35,0.92,0.14
0.35,0.91,0.14
0.35,0.91,0.14
0.34,0.91,0.14
0.34,0.91,0.14
0.34,0.91,0.14
0.34,0.92,0.14
0.34,0.92,0.13
0.35,0.92,0.13
0.35,0.91,0.13
0.34,0.91,0.13
0.35,0.91,0.13
0.35,0.91,0.13
0.35,0.91,0.13
0.35,0.91,0.14
0.35,0.9,0.14
0.35,0.91,0.14
0.35,0.91,0.13
0.35,0.91,0.12
0.35,0.92,0.11
0.34,0.91,0.11
0.34,0.92,0.11
0.34,0.92,0.1
0.34,0.92,0.1
0.35,0.93,0.09
0.35,0.94,0.09
0.35,0.94,0.08
0.34,0.95,0.05
0.33,0.95,0.03
0.32,0.94,0.02
0.32,0.93,0.02
0.32,0.92,0.01
0.33,0.9,0.02
0.33,0.88,0.02
0.33,0.87,0.03
0.32,0.86,0.04
0.32,0.86,0.04
0.33,0.86,0.04
0.33,0.87,0.04
0.33,0.88,0.04
0.33,0.88,0.03
0.31,0.89,0.02
0.29,0.89,0.01
0.29,0.89,0
0.28,0.9,0
0.28,0.91,0
0.27,0.96,0.02
0.26,1,0.04
0.24,1.02,0.06
0.21,1.04,0.09
0.16,1.05,0.14
0.13,1.06,0.19
0.13,1.06,0.24
0.13,1.07,0.28
0.14,1.09,0.33
0.16,1.1,0.38
0.13,1.1,0.4
0.06,1.14,0.45
-0.01,1.19,0.54
-0.05,1.23,0.59
-0.08,1.26,0.62
-0.06,1.25,0.68
-0.05,1.25,0.78
-0.03,1.25,0.87
0.07,1.2,0.91
0.16,1.17,0.97
0.23,1.19,1.05
0.26,1.19,1.09
0.26,1.2,1.09
0.25,1.22,1.08
0.27,1.24,1.05
0.34,1.28,1.05
0.42,1.45,1.11
0.55,1.52,1.12
0.59,1.56,1.07
0.61,1.58,1
0.64,1.57,0.95
0.67,1.54,0.9
0.71,1.52,0.86
0.75,1.51,0.85
0.8,1.5,0.9
0.84,1.46,0.97
0.84,1.37,1
0.8,1.31,0.98
0.76,1.3,0.93
0.73,1.32,0.87
0.69,1.31,0.78
0.65,1.28,0.7
0.62,1.23,0.63
0.6,1.15,0.56
0.55,1.08,0.51
0.51,1.02,0.48
0.49,0.95,0.45
0.48,0.89,0.42
0.47,0.85,0.39
0.46,0.79,0.36
0.43,0.72,0.3
0.4,0.63,0.23
0.35,0.47,0.12
0.27,0.39,0.08
0.28,0.31,0.04
0.29,0.25,0
0.27,0.2,-0.03
0.25,0.16,-0.06
0.25,0.13,-0.09
0.24,0.07,-0.1
0.24,0.01,-0.11
0.25,-0.04,-0.1
0.25,-0.06,-0.06
0.25,-0.09,-0.06
0.24,-0.14,-0.06
0.22,-0.18,-0.07
0.22,-0.2,-0.09
0.22,-0.23,-0.1
0.21,-0.24,-0.1
0.2,-0.24,-0.09
0.19,-0.24,-0.07
0.2,-0.24,-0.06
0.19,-0.23,-0.06
0.18,-0.23,-0.06
0.16,-0.23,-0.06
0.16,-0.23,-0.05
0.17,-0.21,-0.04
0.17,-0.19,-0.03
0.18,-0.1,0
0.18,-0.05,-0.02
0.18,-0.01,-0.04
0.17,0.03,-0.06
0.19,0.06,-0.07
0.22,0.09,-0.08
0.26,0.13,-0.07
0.3,0.19,-0.07
0.32,0.26,-0.06
0.33,0.32,-0.06
0.35,0.39,-0.08
0.36,0.49,-0.08
0.37,0.58,-0.07
0.41,0.67,-0.02
0.48,0.77,0.07
0.58,0.87,0.14
0.61,0.91,0.17
0.58,1,0.17
0.51,1.05,0.15
0.48,1.16,0.16
0.55,1.38,0.26
0.68,1.4,0.33
0.78,1.4,0.39
0.76,1.52,0.43
0.67,1.6,0.4
0.61,1.65,0.32
0.61,1.78,0.22
0.64,1.87,0.28
0.73,1.93,0.37
0.83,1.94,0.41
0.88,1.96,0.39
0.9,1.98,0.35
0.88,2.01,0.33
0.85,2.05,0.33
0.82,2.06,0.36
0.81,2.07,0.38
0.9,2.04,0.34
1.07,2.01,0.25
-0.3,1.8,2.09
1.1,2.79,3.99
2.94,2.62,1.05
-0.06,-0.27,-0.7
-1.01,-0.61,0.73
0.48,1.04,0.63
1.04,1.44,0.33
1.07,1.45,0.57
1.1,1.3,0.65
0.96,0.99,0.13
0.6,0.98,-0.4
0.24,0.97,-0.47
-0.13,0.77,-0.44
-0.15,0.6,-0.61
-0.11,0.56,-0.72
-0.29,0.63,-0.61
-0.15,0.67,-0.51
0.09,0.7,-0.45
0.23,0.73,-0.42
0.28,0.78,-0.4
0.28,0.83,-0.39
0.26,0.89,-0.36
0.27,0.97,-0.34
0.25,1.03,-0.34
0.2,1.08,-0.34
0.17,1.1,-0.32
0.17,1.09,-0.28
0.2,1.09,-0.19
0.25,1.14,0
0.26,1.17,0.41
0.04,1.3,1.4
-0.15,1.21,1.73
-0.04,0.99,0.83
0.06,1,0.17
0.21,1,-0.02
0.41,1.05,-0.07
0.46,1.09,-0.03
0.45,1.1,0.04
0.42,1.07,0.03
0.36,1.01,0
0.29,0.98,-0.01
0.19,0.91,-0.03
0.13,0.87,-0.04
0.11,0.85,-0.05
0.13,0.84,-0.07
0.16,0.84,-0.09
0.2,0.84,-0.1
0.24,0.85,-0.11
0.26,0.88,-0.12
0.27,0.89,-0.11
0.27,0.92,-0.1
0.29,0.94,-0.1
0.31,0.94,-0.1
0.31,0.94,-0.09
0.31,0.93,-0.09
0.31,0.93,-0.08
0.32,0.93,-0.07
0.33,0.93,-0.06
0.34,0.94,-0.04
0.35,0.95,-0.03
0.34,0.97,-0.03
0.33,0.98,-0.03
0.32,0.99,-0.02
0.31,1,-0.01
0.28,1,0
0.27,0.99,0.01
0.25,0.98,0.03
0.21,0.98,0.05
0.2,0.98,0.07
0.19,0.98,0.09
0.18,0.97,0.11
0.18,0.98,0.12
0.18,0.98,0.11
0.19,0.97,0.1
0.21,0.96,0.09
0.22,0.94,0.08
0.24,0.93,0.06
0.26,0.93,0.05
0.29,0.93,0.04
0.3,0.94,0.03
0.31,0.95,0.02
0.3,0.96,0.02
0.29,0.97,0.02
0.29,0.97,0.02
0.29,0.97,0.01
0.29,0.97,0
0.29,0.98,-0.01
0.3,0.98,-0.01
0.3,0.98,-0.01
0.29,0.97,0
0.29,0.96,0.01
0.28,0.95,0.03
0.26,0.93,0.08
0.24,0.9,0.11
0.23,0.89,0.12
0.23,0.89,0.13
0.24,0.89,0.13
0.24,0.89,0.11
0.24,0.89,0.09
0.25,0.9,0.08
0.27,0.91,0.06
0.27,0.92,0.05
0.28,0.94,0.04
0.29,0.96,0.03
0.3,0.98,0.03
0.31,1.01,0.02
0.33,1.03,0.03
0.33,1.04,0.03
0.33,1.04,0.04
0.33,1.03,0.05
0.33,1.01,0.06
0.31,0.97,0.08
0.29,0.94,0.09
0.29,0.92,0.11
0.28,0.91,0.13
0.28,0.89,0.14
0.27,0.88,0.14
0.27,0.88,0.13
0.29,0.88,0.11
0.3,0.89,0.09
0.3,0.9,0.08
0.3,0.91,0.06
0.3,0.92,0.05
0.31,0.93,0.03
0.31,0.94,0.02
0.31,0.96,0.01
0.32,0.97,0.01
0.32,0.98,0.01
0.32,0.98,0.01
0.32,0.98,0.01
0.32,0.98,0.02
0.32,0.97,0.04
0.31,0.96,0.06
0.3,0.95,0.08
0.29,0.93,0.1
0.28,0.92,0.12
0.27,0.92,0.13
0.26,0.92,0.13
0.26,0.92,0.13
0.25,0.92,0.13
0.25,0.92,0.12
0.25,0.93,0.11
0.25,0.93,0.1
0.25,0.93,0.09
0.26,0.91,0.08
0.26,0.89,0.08
0.26,0.89,0.07
0.26,0.89,0.07
0.27,0.91,0.06
0.27,0.94,0.06
0.28,0.96,0.06
0.29,0.99,0.05
0.3,1.01,0.06
0.3,1.02,0.06
0.3,1.02,0.06
0.29,1,0.07
0.27,0.98,0.09
0.26,0.95,0.11
0.26,0.93,0.13
0.24,0.91,0.15
0.24,0.9,0.15
0.23,0.89,0.15
0.23,0.89,0.14
0.23,0.89,0.12
0.24,0.89,0.11
0.24,0.9,0.1
0.25,0.91,0.08
0.26,0.92,0.06
0.26,0.93,0.05
0.27,0.94,0.04
0.27,0.94,0.02
0.27,0.96,0.02
0.27,0.97,0.02
0.28,0.97,0.02
0.28,0.97,0.03
0.27,0.97,0.05
0.27,0.97,0.07
0.27,0.97,0.09
0.28,0.96,0.11
0.27,0.96,0.13
0.27,0.96,0.15
0.26,0.96,0.17
0.26,0.96,0.17
0.26,0.95,0.16
0.26,0.94,0.16
0.25,0.93,0.15
0.26,0.93,0.16
0.28,0.93,0.17
0.27,0.93,0.19
0.27,0.93,0.21
0.26,0.94,0.23
0.25,0.96,0.26
0.22,0.98,0.28
0.2,1.02,0.32
0.21,1.05,0.36
0.22,1.07,0.4
0.2,1.1,0.43
0.13,1.14,0.56
0.09,1.13,0.63
0.06,1.11,0.68
0.04,1.06,0.72
0.03,1.02,0.78
0.01,0.98,0.84
-0.02,0.97,0.91
-0.03,0.98,0.97
-0.01,0.99,1.02
0.01,1.01,1.04
0.03,1.04,1.04
0.04,1.1,1.05
0.06,1.16,1.05
0.09,1.22,1.04
0.09,1.26,1.04
0.08,1.31,1.04
0.08,1.36,1.04
0.08,1.41,1.08
0.08,1.43,1.1
0.07,1.44,1.1
0.07,1.46,1.09
0.13,1.53,1.05
0.14,1.55,1.07
0.09,1.53,1.11
0.08,1.54,1.05
0.13,1.54,0.97
0.19,1.54,0.91
0.28,1.52,0.88
0.32,1.48,0.87
0.34,1.43,0.84
0.34,1.37,0.81
0.35,1.32,0.78
0.37,1.28,0.72
0.41,1.24,0.64
0.45,1.19,0.6
0.46,1.15,0.61
0.43,1.1,0.62
0.39,1.06,0.6
0.35,1.02,0.55
0.33,0.98,0.48
0.34,0.94,0.41
0.36,0.87,0.36
0.41,0.78,0.32
0.44,0.74,0.31
0.45,0.71,0.33
0.43,0.65,0.33
0.4,0.57,0.28
0.38,0.49,0.23
0.38,0.42,0.2
0.38,0.35,0.16
0.41,0.27,0.12
0.41,0.19,0.09
0.35,0.13,0.06
0.3,0.11,0.07
0.25,0.08,0.11
0.18,0.03,0.12
0.17,-0.03,0.11
0.18,-0.1,0.09
0.17,-0.17,0.07
0.16,-0.23,0.05
0.15,-0.24,0.06
0.13,-0.27,0.08
0.09,-0.32,0.08
0.08,-0.34,0.08
0.07,-0.33,0.09
0.03,-0.34,0.11
0.03,-0.36,0.13
0.05,-0.34,0.15
0.06,-0.29,0.17
0.09,-0.26,0.18
0.1,-0.24,0.19
0.12,-0.23,0.21
0.12,-0.23,0.22
0.13,-0.21,0.23
0.13,-0.19,0.21
0.13,-0.17,0.19
0.13,-0.13,0.18
0.14,-0.07,0.18
0.15,0.06,0.26
0.18,0.09,0.31
0.2,0.12,0.32
0.19,0.13,0.29
0.17,0.15,0.25
0.17,0.22,0.23
0.2,0.29,0.23
0.25,0.38,0.25
0.3,0.48,0.29
0.33,0.55,0.34
0.32,0.59,0.4
0.33,0.58,0.45
0.34,0.55,0.47
0.36,0.56,0.45
0.36,0.67,0.43
0.36,0.81,0.45
0.38,0.91,0.48
0.39,1.01,0.52
0.43,1.09,0.6
0.48,0.95,0.65
0.51,0.86,0.69
0.53,0.99,0.7
0.52,1.11,0.67
0.48,1.19,0.66
0.47,1.27,0.7
0.5,1.36,0.76
0.53,1.39,0.81
0.61,1.34,0.71
0.62,1.3,0.58
0.62,1.32,0.46
0.66,1.37,0.37
0.7,1.44,0.35
0.77,1.5,0.35
0.86,1.57,0.39
0.9,1.58,0.48
0.92,1.5,0.51
0.89,1.46,0.48
0.83,1.45,0.43
0.81,1.43,0.38
0.82,1.43,0.38
0.86,1.46,0.4
0.86,1.5,0.39
0.84,1.55,0.35
0.88,1.55,0.28
1.04,1.77,1.49
0.93,2.3,3.35
1.3,1.62,3.12
0.63,0.12,0.6
-0.04,0.14,-0.63
1.26,0.77,-0.01
1.49,0.99,0.18
1.01,1.3,0.39
0.92,1.39,0.56
0.45,1.13,0.22
0.32,1.04,-0.17
0.09,0.93,-0.28
-0.08,0.78,-0.3
-0.07,0.7,-0.39
-0.01,0.69,-0.52
0,0.69,-0.56
-0.03,0.7,-0.51
0.14,0.73,-0.46
0.32,0.79,-0.4
0.34,0.83,-0.34
0.33,0.88,-0.31
0.3,0.92,-0.3
0.27,0.95,-0.31
0.23,0.96,-0.32
0.19,0.97,-0.32
0.16,0.97,-0.29
0.18,0.97,-0.24
0.23,0.99,-0.17
0.31,1.01,-0.14
0.34,0.99,0.03
0.17,1.07,0.66
-0.05,1.16,1.33
-0.11,1.06,1.24
-0.03,0.95,0.59
0.08,0.91,0.01
0.35,0.99,-0.01
0.42,1.03,0.01
0.44,1.04,0.03
0.43,1.04,0.01
0.39,1.01,0
0.35,0.98,-0.02
0.31,0.96,-0.04
0.26,0.93,-0.06
0.23,0.9,-0.06
0.2,0.87,-0.05
0.18,0.86,-0.05
0.21,0.86,-0.06
0.25,0.88,-0.05
0.3,0.9,-0.01
0.33,0.92,0.03
0.35,0.92,0.06
0.35,0.93,0.08
0.36,0.92,0.07
0.36,0.91,0.07
0.34,0.92,0.08
0.34,0.93,0.08
0.33,0.94,0.07
0.31,0.95,0.07
0.3,0.97,0.07
0.29,0.98,0.07
0.29,0.98,0.05
0.26,0.98,0.04
0.25,0.98,0.02
0.25,0.98,0.01
0.24,0.97,0
0.24,0.95,0
0.23,0.95,0
0.23,0.94,0
0.23,0.94,0
0.23,0.93,0
0.23,0.92,0
0.23,0.92,0.01
0.23,0.92,0.02
0.25,0.92,0.02
0.26,0.92,0.03
0.27,0.93,0.03
0.28,0.95,0.03
0.29,0.96,0.03
0.3,0.96,0.03
0.31,0.96,0.03
0.31,0.95,0.04
0.31,0.95,0.04
0.3,0.94,0.05
0.3,0.93,0.05
0.3,0.93,0.05
0.29,0.94,0.05
0.28,0.95,0.04
0.28,0.96,0.03
0.28,0.97,0.02
0.28,0.96,0.02
0.28,0.96,0.01
0.26,0.96,0.01
0.25,0.96,0
0.26,0.96,0
0.27,0.95,-0.01
0.27,0.95,-0.01
0.27,0.94,-0.01
0.27,0.95,-0.02
0.27,0.96,-0.02
0.26,0.96,-0.03
0.26,0.96,-0.03
0.26,0.96,-0.03
0.26,0.96,-0.03
0.27,0.97,-0.03
0.28,0.97,-0.03
0.28,0.96,-0.02
0.29,0.95,-0.03
0.29,0.95,-0.03
0.3,0.94,-0.03
0.3,0.93,-0.03
0.29,0.92,-0.02
0.28,0.92,-0.01
0.28,0.92,0
0.27,0.92,0
0.27,0.93,-0.01
0.27,0.94,-0.02
0.26,0.96,-0.02
0.27,0.97,-0.03
0.28,1,-0.04
0.28,1.01,-0.04
0.29,1.01,-0.04
0.3,1.02,-0.03
0.31,1.01,-0.02
0.3,1,0.01
0.29,0.97,0.03
0.28,0.96,0.06
0.27,0.94,0.09
0.25,0.93,0.11
0.23,0.91,0.12
0.22,0.9,0.13
0.21,0.9,0.13
0.21,0.9,0.13
0.22,0.91,0.13
0.22,0.92,0.12
0.22,0.93,0.1
0.23,0.94,0.09
0.26,0.96,0.08
0.27,0.97,0.06
0.27,0.98,0.06
0.28,0.96,0.07
0.28,0.95,0.08
0.28,0.92,0.1
0.28,0.89,0.12
0.27,0.88,0.13
0.26,0.87,0.13
0.25,0.89,0.13
0.25,0.93,0.12
0.25,0.98,0.11
0.25,1.03,0.1
0.26,1.07,0.09
0.27,1.08,0.08
0.28,1.07,0.07
0.27,1.03,0.06
0.26,0.98,0.06
0.25,0.92,0.08
0.24,0.88,0.11
0.23,0.86,0.15
0.22,0.85,0.2
0.2,0.85,0.23
0.19,0.86,0.25
0.2,0.87,0.26
0.2,0.88,0.26
0.2,0.9,0.26
0.19,0.93,0.25
0.19,0.97,0.26
0.2,1.04,0.28
0.22,1.07,0.31
0.23,1.08,0.36
0.24,1.07,0.45
0.25,1.05,0.56
0.24,1.04,0.66
0.21,1.05,0.72
0.19,1.07,0.76
0.17,1.08,0.8
0.16,1.09,0.86
0.19,1.1,0.89
0.21,1.1,0.9
0.24,1.09,0.91
0.27,1.09,0.92
0.32,1.11,0.94
0.4,1.14,0.96
0.46,1.16,0.98
0.5,1.19,1.02
0.56,1.23,1.05
0.61,1.28,1.08
0.61,1.32,1.1
0.58,1.35,1.1
0.53,1.37,1.09
0.51,1.39,1.06
0.54,1.41,1.03
0.61,1.45,1
0.72,1.5,0.94
0.75,1.52,0.9
0.76,1.53,0.83
0.76,1.53,0.74
0.74,1.51,0.67
0.72,1.46,0.62
0.69,1.37,0.57
0.68,1.3,0.55
0.67,1.25,0.56
0.67,1.2,0.56
0.68,1.16,0.52
0.68,1.11,0.44
0.69,1.04,0.36
0.69,0.98,0.31
0.69,0.92,0.28
0.7,0.85,0.28
0.67,0.79,0.29
0.66,0.73,0.29
0.62,0.69,0.31
0.58,0.65,0.31
0.54,0.6,0.29
0.5,0.55,0.3
0.47,0.49,0.31
0.45,0.4,0.3
0.42,0.33,0.31
0.36,0.28,0.33
0.33,0.12,0.27
0.26,0.09,0.27
0.23,0.08,0.3
0.22,0.04,0.31
0.18,0,0.3
0.16,-0.01,0.31
0.13,-0.06,0.28
0.14,-0.11,0.25
0.17,-0.13,0.24
0.14,-0.14,0.22
0.13,-0.15,0.24
0.13,-0.22,0.24
0.14,-0.27,0.22
0.17,-0.28,0.21
0.17,-0.2,0.26
0.19,-0.16,0.3
0.2,-0.21,0.3
0.21,-0.19,0.35
0.21,-0.18,0.4
0.19,-0.21,0.43
0.18,-0.24,0.44
0.18,-0.24,0.44
0.19,-0.23,0.44
0.19,-0.22,0.44
0.2,-0.22,0.44
0.19,-0.25,0.5
0.19,-0.28,0.52
0.19,-0.29,0.53
0.19,-0.29,0.54
0.18,-0.29,0.53
0.18,-0.27,0.51
0.18,-0.24,0.49
0.18,-0.22,0.46
0.17,-0.22,0.43
0.18,-0.21,0.4
0.19,-0.18,0.39
0.21,-0.14,0.38
0.22,-0.11,0.38
0.22,-0.08,0.37
0.22,-0.05,0.35
0.22,-0.02,0.33
0.23,0.02,0.32
0.24,0.06,0.34
0.25,0.09,0.37
0.28,0.14,0.38
0.3,0.19,0.38
0.3,0.25,0.38
0.29,0.31,0.4
0.29,0.38,0.45
0.31,0.44,0.53
0.33,0.5,0.55
0.34,0.56,0.56
0.35,0.59,0.53
0.38,0.63,0.49
0.38,0.65,0.45
0.37,0.67,0.45
0.42,0.73,0.49
0.47,0.77,0.53
0.51,0.8,0.56
0.55,0.8,0.59
0.55,0.84,0.6
0.54,0.94,0.56
0.52,0.99,0.49
0.49,1.05,0.45
0.5,1.1,0.47
0.59,1.11,0.5
0.68,1.14,0.53
0.74,1.22,0.56
0.75,1.31,0.59
0.73,1.39,0.59
0.69,1.44,0.52
0.65,1.48,0.44
0.61,1.51,0.35
0.58,1.52,0.28
0.6,1.57,0.26
0.64,1.59,0.26
0.66,1.61,0.3
0.68,1.6,0.34
0.67,1.63,0.37
0.62,1.61,0.28
0.58,1.6,0.21
0.56,1.65,0.26
0.6,1.71,0.4
0.62,1.76,0.6
-0.74,2.87,2.35
0.19,2.45,3.99
1.68,0.64,2.14
0.31,0.04,-0.03
0.8,0.52,0.37
1.26,1.33,0.97
0.65,1.4,0.91
0.53,1.43,0.92
0.14,1.32,0.63
-0.09,1.16,0.18
0.04,1.02,-0.13
0.1,0.94,-0.27
0.07,0.85,-0.4
0.1,0.76,-0.53
0.11,0.7,-0.57
0.03,0.7,-0.48
0.02,0.74,-0.37
0.04,0.81,-0.3
0.03,0.86,-0.26
0.05,0.88,-0.23
0.06,0.91,-0.2
0.09,0.99,-0.21
0.11,0.99,-0.23
0.11,0.99,-0.24
0.11,1,-0.24
0.12,0.98,-0.2
0.14,0.98,-0.15
0.18,0.97,-0.09
0.21,0.96,-0.05
0.21,0.95,-0.01
0.2,0.94,0.01
0.2,0.94,0.02
0.21,0.95,0.02
0.23,0.97,0.03
0.24,0.99,0.04
0.26,1.02,0.04
0.3,1.03,0.03
0.3,1,0.11
0.28,1,0.23
0.21,0.99,0.29
0.14,0.97,0.38
0.13,0.97,0.43
0.17,0.99,0.41
0.17,0.99,0.4
0.15,1,0.39
0.15,1,0.36
0.17,0.99,0.23
0.21,0.98,0.18
0.22,0.99,0.16
0.23,0.99,0.13
0.25,0.99,0.11
0.24,0.98,0.1
0.23,0.97,0.08
0.21,0.95,0.07
0.21,0.95,0.05
0.21,0.96,0.03
0.22,0.97,0.02
0.23,0.97,0.01
0.24,0.96,0.01
0.26,0.94,0.01
0.27,0.93,0.01
0.27,0.93,0.02
0.26,0.94,0.04
0.24,0.95,0.07
0.23,0.96,0.09
0.23,0.96,0.1
0.23,0.95,0.1
0.21,0.94,0.11
0.2,0.93,0.12
0.21,0.91,0.12
0.21,0.89,0.12
0.21,0.89,0.12
0.23,0.88,0.12
0.26,0.92,0.12
0.26,0.96,0.13
0.27,1,0.15
0.28,1.04,0.16
0.27,1.06,0.17
0.26,1.07,0.19
0.24,1.06,0.21
0.23,1.02,0.24
0.26,0.98,0.25
0.27,0.95,0.26
0.28,0.92,0.27
0.31,0.9,0.27
0.34,0.88,0.26
0.36,0.87,0.25
0.36,0.86,0.24
0.35,0.85,0.22
0.33,0.83,0.19
0.3,0.83,0.16
0.29,0.83,0.14
0.3,0.83,0.12
0.3,0.83,0.11
0.31,0.84,0.11
0.31,0.84,0.11
0.32,0.85,0.1
0.32,0.85,0.1
0.32,0.86,0.1
0.33,0.86,0.11
0.33,0.87,0.13
0.34,0.87,0.14
0.34,0.86,0.14
0.34,0.86,0.15
0.35,0.86,0.15
0.36,0.86,0.15
0.37,0.86,0.16
0.37,0.85,0.16
0.38,0.85,0.17
0.37,0.86,0.18
0.37,0.86,0.19
0.39,0.85,0.19
0.39,0.84,0.19
0.4,0.85,0.2
0.41,0.85,0.2
0.41,0.86,0.2
0.41,0.87,0.2
0.39,0.87,0.2
0.37,0.9,0.21
0.37,0.97,0.22
0.38,1.08,0.24
0.4,1.19,0.24
0.43,1.22,0.2
0.4,1.19,0.16
0.34,1.15,0.18
0.22,1.04,0.23
0.18,0.97,0.25
0.15,0.97,0.24
0.13,1.03,0.2
0.14,1.08,0.15
0.16,1.11,0.1
0.16,1.13,0.07
0.16,1.14,0.04
0.18,1.14,0.02
0.18,1.13,0
0.18,1.09,-0.02
0.18,1.04,-0.05
0.18,0.98,-0.06
0.18,0.93,-0.07
0.18,0.88,-0.08
0.17,0.84,-0.09
0.16,0.82,-0.1
0.14,0.81,-0.1
0.12,0.82,-0.09
0.1,0.83,-0.08
0.1,0.86,-0.08
0.11,0.88,-0.08
0.11,0.91,-0.08
0.11,0.95,-0.09
0.12,0.98,-0.1
0.13,1.02,-0.11
0.13,1.02,-0.11
0.14,1.01,-0.12
0.15,1,-0.12
0.15,0.99,-0.12
0.16,0.98,-0.1
0.17,0.98,-0.08
0.17,0.97,-0.06
0.18,0.96,-0.04
0.17,0.95,-0.02
0.17,0.94,0.01
0.17,0.94,0.03
0.17,0.93,0.05
0.18,0.92,0.06
0.19,0.92,0.07
0.21,0.9,0.07
0.24,0.89,0.07
0.25,0.9,0.06
0.27,0.91,0.05
0.27,0.91,0.05
0.27,0.91,0.04
0.26,0.92,0.04
0.25,0.92,0.03
0.25,0.92,0.02
0.24,0.92,0.01
0.24,0.93,0
0.24,0.94,-0.03
0.23,0.97,-0.05
0.23,0.99,-0.06
0.22,1,-0.08
0.22,1.01,-0.09
0.22,1,-0.1
0.22,1,-0.1
0.22,0.99,-0.11
0.22,0.99,-0.11
0.22,0.98,-0.1
0.22,0.97,-0.1
0.23,0.97,-0.1
0.25,0.96,-0.1
0.27,0.97,-0.11
0.29,0.98,-0.11
0.3,0.97,-0.11
0.32,0.96,-0.13
0.35,0.97,-0.14
0.38,0.98,-0.13
0.43,0.98,-0.12
0.41,0.97,-0.1
0.36,0.97,-0.08
0.37,0.96,-0.07
0.38,0.96,-0.06
0.36,0.96,-0.04
0.37,0.96,-0.02
0.45,0.97,-0.01
0.35,0.94,0.04
0.43,0.93,0.05
0.45,0.92,0.03
0.43,0.91,0.04
0.45,0.92,0.08
0.49,0.92,0.08
0.53,0.94,0.09
0.61,0.99,0.11
0.63,1.03,0.16
0.67,1.03,0.21
0.78,1.05,0.24
0.77,1.09,0.27
0.76,1.1,0.27
0.69,1.1,0.29
0.62,1.1,0.32
0.63,1.07,0.31
0.62,0.99,0.31
0.61,0.89,0.31
0.63,0.81,0.33
0.67,0.76,0.34
0.71,0.72,0.34
0.76,0.7,0.34
0.8,0.67,0.35
0.81,0.64,0.34
0.81,0.58,0.33
0.77,0.5,0.35
0.73,0.39,0.4
0.75,0.37,0.41
0.76,0.37,0.41
0.77,0.39,0.44
0.78,0.39,0.46
0.76,0.41,0.46
0.72,0.41,0.44
0.71,0.37,0.45
0.71,0.34,0.46
0.69,0.31,0.45
0.64,0.28,0.45
0.58,0.25,0.45
0.55,0.24,0.45
0.54,0.22,0.45
0.53,0.22,0.46
0.53,0.24,0.48
0.54,0.24,0.47
0.52,0.25,0.49
0.47,0.27,0.54
0.45,0.26,0.56
0.43,0.25,0.58
0.37,0.26,0.6
0.32,0.3,0.62
0.31,0.3,0.62
0.3,0.25,0.56
0.3,0.25,0.53
0.31,0.33,0.51
0.39,0.36,0.53
0.39,0.38,0.56
0.36,0.4,0.59
0.34,0.4,0.65
0.35,0.42,0.67
0.37,0.44,0.69
0.39,0.44,0.73
0.41,0.46,0.74
0.41,0.46,0.73
0.42,0.46,0.73
0.45,0.45,0.75
0.49,0.42,0.73
