Acc_x,Acc_y,Acc_z
0.16,0.11,0.98
0.16,0.1,0.98
0.15,0.1,0.98
0.14,0.11,0.99
0.13,0.11,0.99
0.13,0.11,0.99
0.14,0.11,0.98
0.16,0.11,0.98
0.16,0.11,0.99
0.16,0.11,0.99
0.15,0.11,0.98
0.14,0.11,0.99
0.13,0.11,0.99
0.13,0.11,0.99
0.13,0.11,0.99
0.14,0.11,0.99
0.15,0.11,0.99
0.16,0.11,0.99
0.15,0.11,0.98
0.15,0.11,0.98
0.14,0.11,0.99
0.14,0.11,0.99
0.14,0.11,0.99
0.13,0.11,0.99
0.14,0.11,0.99
0.14,0.11,0.99
0.14,0.11,0.99
0.15,0.11,0.99
0.15,0.1,0.98
0.14,0.11,0.99
0.14,0.11,0.99
0.15,0.11,0.99
0.15,0.11,0.99
0.14,0.11,0.99
0.14,0.11,0.98
0.14,0.11,0.98
0.15,0.11,0.98
0.15,0.1,0.98
0.15,0.1,0.98
0.14,0.1,0.99
0.14,0.1,0.99
0.14,0.1,0.99
0.14,0.1,0.99
0.14,0.1,0.99
0.14,0.11,0.99
0.14,0.11,0.99
0.14,0.11,0.98
0.14,0.11,0.98
0.14,0.11,0.99
0.14,0.1,0.98
0.14,0.1,0.98
0.14,0.1,0.99
0.14,0.1,0.99
0.13,0.11,0.99
0.13,0.11,0.99
0.14,0.11,0.99
0.14,0.11,0.99
0.14,0.11,0.99
0.14,0.1,0.99
0.14,0.1,0.99
0.14,0.11,0.99
0.14,0.11,0.99
0.14,0.1,0.99
0.14,0.1,0.99
0.14,0.1,0.99
0.14,0.1,0.99
0.14,0.1,0.98
0.15,0.1,0.99
0.14,0.1,0.99
0.15,0.1,0.99
0.15,0.1,0.99
0.15,0.1,0.99
0.15,0.1,0.99
0.14,0.1,0.99
0.14,0.11,0.99
0.14,0.11,0.99
0.14,0.1,0.99
0.13,0.1,0.99
0.14,0.1,0.99
0.14,0.1,0.99
0.15,0.1,0.99
0.15,0.1,0.99
0.14,0.1,0.99
0.14,0.1,0.99
0.14,0.1,0.99
0.13,0.1,0.99
0.14,0.1,0.99
0.14,0.1,0.99
0.15,0.1,0.99
0.15,0.1,0.98
0.15,0.1,0.99
0.14,0.1,0.99
0.14,0.1,0.99
0.15,0.1,0.99
0.15,0.1,0.98
0.15,0.09,0.98
0.14,0.09,0.98
0.14,0.1,0.99
0.15,0.1,0.99
0.15,0.1,0.99
0.15,0.1,0.99
0.15,0.1,0.99
0.14,0.1,0.99
0.14,0.1,0.99
0.14,0.1,0.99
0.14,0.1,0.99
0.14,0.1,0.99
0.15,0.1,0.99
0.14,0.09,0.99
0.14,0.09,0.99
0.13,0.1,0.99
0.14,0.1,0.99
0.14,0.1,0.99
0.15,0.1,0.99
0.15,0.1,0.99
0.16,0.1,0.99
0.16,0.1,0.99
0.15,0.1,0.99
0.15,0.1,0.99
0.15,0.09,0.99
0.13,0.09,0.99
0.13,0.09,0.98
0.14,0.09,0.99
0.13,0.09,0.99
0.14,0.1,0.99
0.13,0.1,0.99
0.13,0.1,0.99
0.12,0.1,1
0.13,0.1,1
0.14,0.1,0.99
0.15,0.1,0.98
0.15,0.1,0.99
0.15,0.11,0.99
0.16,0.11,0.97
0.16,0.08,0.98
0.14,0.07,0.98
0.1,0.07,0.99
0.1,0.07,0.99
0.15,0.07,0.99
0.21,0.06,0.99
0.22,0.05,0.99
0.19,0.05,1
0.16,0.05,1
0.18,0.05,0.99
0.21,0.05,1
0.21,0.06,1.02
0.19,0.08,1.03
0.15,0.1,1.03
0.15,0.13,1.02
0.17,0.16,1.01
0.18,0.2,1.01
0.18,0.23,1.03
0.17,0.25,1.05
0.2,0.29,1.05
0.28,0.37,1.05
0.31,0.49,0.96
0.31,0.58,0.85
0.38,0.65,0.78
0.38,0.7,0.81
0.21,0.65,0.98
0.1,0.59,0.96
0.12,0.55,0.93
0.13,0.52,0.91
0.12,0.5,0.89
0.08,0.5,0.88
0.06,0.49,0.88
0.06,0.49,0.88
0.08,0.49,0.9
0.09,0.5,0.92
0.08,0.5,0.91
0.08,0.51,0.91
0.09,0.53,0.91
0.12,0.56,0.89
0.13,0.58,0.87
0.14,0.6,0.86
0.17,0.61,0.86
0.18,0.63,0.88
0.19,0.65,0.89
0.2,0.66,0.89
0.19,0.67,0.88
0.18,0.67,0.87
0.18,0.67,0.86
0.19,0.67,0.82
0.18,0.66,0.78
0.17,0.64,0.75
0.16,0.65,0.72
0.17,0.64,0.71
0.16,0.63,0.71
0.17,0.62,0.71
0.18,0.62,0.69
0.15,0.59,0.69
0.12,0.57,0.68
0.14,0.57,0.66
0.16,0.58,0.68
0.15,0.58,0.69
0.14,0.59,0.69
0.12,0.58,0.67
0.11,0.58,0.64
0.09,0.58,0.58
0.11,0.6,0.53
0.14,0.63,0.55
0.14,0.65,0.63
0.12,0.66,0.72
0.1,0.65,0.8
0.06,0.64,0.82
0.06,0.61,0.79
0.08,0.59,0.74
0.09,0.57,0.71
0.08,0.57,0.7
0.08,0.58,0.7
0.08,0.59,0.68
0.08,0.61,0.67
0.09,0.63,0.68
0.13,0.65,0.69
0.16,0.67,0.7
0.18,0.67,0.7
0.19,0.68,0.69
0.21,0.69,0.67
0.23,0.69,0.66
0.26,0.7,0.67
0.3,0.73,0.67
0.33,0.77,0.68
0.34,0.81,0.69
0.35,0.85,0.69
0.35,0.87,0.68
0.36,0.88,0.66
0.36,0.88,0.63
0.36,0.87,0.59
0.35,0.84,0.54
0.35,0.83,0.5
0.36,0.84,0.5
0.37,0.85,0.52
0.37,0.86,0.55
0.37,0.85,0.57
0.38,0.84,0.57
0.38,0.82,0.55
0.39,0.79,0.51
0.39,0.75,0.48
0.4,0.71,0.45
0.4,0.7,0.46
0.4,0.69,0.47
0.4,0.68,0.48
0.4,0.67,0.48
0.4,0.66,0.47
0.4,0.64,0.45
0.41,0.62,0.43
0.42,0.61,0.39
0.43,0.61,0.37
0.43,0.62,0.38
0.43,0.63,0.42
0.43,0.65,0.45
0.42,0.67,0.46
0.42,0.69,0.48
0.42,0.7,0.49
0.42,0.73,0.5
0.42,0.74,0.5
0.42,0.75,0.5
0.43,0.77,0.5
0.43,0.79,0.5
0.42,0.82,0.5
0.41,0.84,0.51
0.39,0.86,0.52
0.39,0.87,0.54
0.38,0.87,0.55
0.34,0.85,0.52
0.32,0.83,0.46
0.3,0.82,0.39
0.29,0.82,0.33
0.3,0.83,0.3
0.32,0.85,0.3
0.34,0.85,0.31
0.33,0.86,0.33
0.32,0.87,0.33
0.32,0.88,0.32
0.31,0.89,0.3
0.31,0.9,0.28
0.32,0.91,0.26
0.33,0.92,0.25
0.32,0.93,0.23
0.33,0.92,0.2
0.34,0.92,0.16
0.35,0.91,0.11
0.39,0.91,0.07
0.43,0.88,0.04
0.47,0.86,0.02
0.47,0.84,0.02
0.43,0.83,0.03
0.39,0.82,0.05
0.35,0.81,0.07
0.32,0.8,0.07
0.31,0.77,0.07
0.32,0.76,0.07
0.32,0.75,0.06
0.32,0.77,0.04
0.32,0.8,0.03
0.34,0.83,0.01
0.35,0.87,0
0.37,0.89,0.01
0.38,0.91,0.02
0.39,0.94,0.04
0.38,0.97,0.05
0.38,0.99,0.07
0.37,0.99,0.07
0.37,0.98,0.07
0.37,0.98,0.08
0.37,0.96,0.11
0.36,0.95,0.16
0.34,0.94,0.2
0.36,0.93,0.22
0.37,0.93,0.23
0.37,0.93,0.24
0.36,0.94,0.25
0.36,0.94,0.24
0.37,0.96,0.22
0.38,1,0.2
0.42,1.07,0.18
0.4,1.21,0.21
0.28,1.24,0.28
0.28,1.22,0.34
0.28,1.17,0.39
0.24,1.11,0.47
0.19,1.07,0.55
0.16,1.03,0.58
0.17,1.01,0.61
0.19,1.01,0.65
0.26,1,0.69
0.37,0.98,0.7
0.48,0.98,0.69
0.53,0.96,0.7
0.49,0.95,0.76
0.43,0.95,0.85
0.37,0.96,0.92
0.33,0.98,0.96
0.3,1.01,1.01
0.27,1.03,1.04
0.28,1.05,1.05
0.32,1.08,1.05
0.38,1.11,1.08
0.45,1.13,1.11
0.49,1.15,1.16
0.51,1.17,1.2
0.51,1.2,1.2
0.49,1.33,1.2
0.46,1.39,1.2
0.46,1.42,1.18
0.46,1.44,1.15
0.48,1.45,1.13
0.49,1.46,1.1
0.51,1.51,1.09
0.52,1.58,1.06
0.52,1.63,1.04
0.5,1.65,1.03
0.47,1.6,1
0.44,1.53,0.98
0.42,1.45,0.95
0.42,1.37,0.92
0.43,1.3,0.87
0.45,1.27,0.84
0.47,1.24,0.82
0.48,1.19,0.79
0.47,1.12,0.78
0.45,1.05,0.78
0.42,0.99,0.77
0.4,0.92,0.75
0.38,0.85,0.75
0.37,0.8,0.73
0.37,0.73,0.69
0.36,0.69,0.67
0.35,0.6,0.63
0.33,0.52,0.6
0.33,0.44,0.53
0.34,0.38,0.46
0.35,0.34,0.42
0.32,0.32,0.41
0.27,0.32,0.41
0.22,0.23,0.37
0.2,0.22,0.32
0.19,0.14,0.27
0.15,0.09,0.25
0.1,0.12,0.22
0.1,0.06,0.17
0.12,0.11,0.16
0.08,0.05,0.13
0.02,-0.05,0.09
-0.01,-0.07,0.1
-0.05,-0.09,0.12
-0.1,-0.12,0.13
-0.14,-0.17,0.15
-0.16,-0.21,0.15
-0.17,-0.25,0.12
-0.19,-0.29,0.1
-0.2,-0.33,0.08
-0.18,-0.36,0.06
-0.16,-0.36,0.07
-0.14,-0.36,0.06
-0.15,-0.35,0.04
-0.18,-0.35,0.04
-0.2,-0.36,0.04
-0.22,-0.36,0.06
-0.22,-0.37,0.08
-0.21,-0.36,0.11
-0.2,-0.34,0.12
-0.19,-0.3,0.12
-0.18,-0.26,0.11
-0.15,-0.22,0.09
-0.12,-0.19,0.06
-0.11,-0.15,0.05
-0.11,-0.13,0.06
-0.1,-0.12,0.08
-0.09,-0.09,0.13
-0.09,-0.05,0.2
-0.06,-0.02,0.25
-0.03,0.02,0.25
-0.01,0.07,0.22
0.01,0.11,0.16
0.02,0.14,0.13
0.03,0.16,0.16
0.06,0.19,0.23
0.08,0.27,0.32
0.11,0.37,0.41
0.15,0.46,0.46
0.22,0.64,0.42
0.24,0.71,0.36
0.25,0.78,0.32
0.27,0.84,0.31
0.31,0.92,0.33
0.39,0.99,0.37
0.5,1.08,0.46
0.63,1.24,0.52
0.69,1.34,0.56
0.7,1.34,0.55
0.74,1.41,0.46
0.76,1.52,0.35
0.77,1.56,0.23
0.79,1.6,0.23
0.85,1.7,0.39
0.96,1.86,0.59
1.1,2.01,0.78
1.23,2.06,0.89
1.24,2.06,0.88
1.17,2.05,0.82
1.11,2.07,0.78
1.12,2.12,0.75
1.13,2.18,0.71
1.12,2.19,0.72
1.14,2.18,0.72
1.16,2.15,2.35
-1.42,2.29,3.99
-0.03,2.72,3.99
2.8,1.78,1.75
2.16,0.53,-0.63
1.83,0.69,-0.52
1.92,0.81,-0.17
1.14,0.94,0.11
0.81,1.08,0.53
0.87,1.01,0.51
0.71,0.81,-0.03
0.52,0.68,-0.45
0.26,0.59,-0.59
0.01,0.52,-0.54
-0.18,0.55,-0.45
-0.28,0.58,-0.37
-0.21,0.6,-0.29
-0.02,0.62,-0.23
0.18,0.69,-0.19
0.34,0.77,-0.16
0.45,0.83,-0.14
0.47,0.87,-0.14
0.43,0.9,-0.14
0.38,0.94,-0.14
0.33,0.98,-0.14
0.28,1.02,-0.14
0.26,1.04,-0.11
0.3,1.04,-0.07
0.34,1.03,-0.02
0.41,1.07,0.08
0.41,1.11,0.31
0.22,1.13,0.84
0.23,1.1,1.13
0.31,1.03,0.86
0.15,1.03,0.52
0.06,0.99,0.27
0.12,0.95,0.16
0.18,0.95,0.15
0.23,0.96,0.17
0.28,0.97,0.17
0.3,0.97,0.15
0.29,0.95,0.13
0.28,0.94,0.09
0.29,0.93,0.04
0.32,0.93,0.01
0.32,0.91,0
0.29,0.89,0
0.28,0.88,0
0.28,0.88,0
0.27,0.88,0.01
0.27,0.89,0.03
0.28,0.9,0.04
0.33,0.93,0.06
0.35,0.93,0.06
0.36,0.93,0.05
0.36,0.93,0.05
0.35,0.92,0.06
0.34,0.92,0.08
0.33,0.93,0.11
0.33,0.93,0.14
0.33,0.93,0.18
0.34,0.92,0.21
0.35,0.92,0.22
0.36,0.91,0.23
0.36,0.9,0.24
0.37,0.9,0.25
0.39,0.9,0.28
0.41,0.9,0.34
0.44,0.9,0.43
0.46,0.91,0.52
0.46,0.93,0.59
0.46,0.98,0.63
0.47,1.02,0.65
0.52,1.03,0.68
0.59,1.03,0.77
0.63,1.05,0.9
0.61,1.09,1
0.57,1.12,1.05
0.54,1.14,1.11
0.54,1.15,1.16
0.59,1.19,1.2
0.61,1.22,1.24
0.62,1.25,1.28
0.64,1.29,1.28
0.67,1.32,1.26
0.68,1.36,1.22
0.71,1.41,1.17
0.73,1.44,1.13
0.76,1.45,1.11
0.81,1.45,1.1
0.83,1.47,1.07
0.8,1.48,1.04
0.77,1.5,1.02
0.72,1.5,0.98
0.68,1.49,0.94
0.65,1.47,0.9
0.63,1.46,0.88
0.61,1.44,0.83
0.61,1.41,0.77
0.6,1.36,0.71
0.6,1.3,0.69
0.6,1.22,0.67
0.6,1.17,0.65
0.59,1.13,0.61
0.56,1.11,0.57
0.49,0.96,0.45
0.47,0.88,0.42
0.45,0.81,0.43
0.43,0.75,0.46
0.42,0.67,0.44
0.4,0.61,0.39
0.37,0.55,0.35
0.33,0.5,0.34
0.3,0.44,0.32
0.28,0.37,0.31
0.26,0.3,0.3
0.23,0.21,0.27
0.2,0.21,0.26
0.18,0.2,0.24
0.16,0.05,0.23
0.15,-0.02,0.25
0.08,-0.05,0.28
0.06,-0.04,0.26
0.1,-0.05,0.23
0.08,-0.2,0.21
0.07,-0.2,0.19
0.05,-0.19,0.17
0.04,-0.23,0.18
0.05,-0.19,0.2
0.05,-0.22,0.22
0.01,-0.33,0.22
-0.03,-0.32,0.19
-0.07,-0.32,0.17
-0.06,-0.3,0.14
-0.05,-0.31,0.13
-0.05,-0.32,0.12
-0.04,-0.32,0.1
-0.03,-0.33,0.09
-0.02,-0.33,0.08
-0.01,-0.33,0.07
-0.01,-0.32,0.07
-0.01,-0.31,0.07
0,-0.3,0.07
0,-0.29,0.06
0.01,-0.26,0.05
0.02,-0.23,0.05
0.03,-0.2,0.06
0.05,-0.17,0.06
0.06,-0.13,0.05
0.07,-0.08,0.04
0.09,-0.03,0.02
0.1,0.02,0.01
0.11,0.07,0.01
0.12,0.11,0.05
0.16,0.16,0.11
0.22,0.22,0.18
0.27,0.29,0.22
0.3,0.46,0.22
0.32,0.54,0.2
0.33,0.59,0.18
0.35,0.6,0.19
0.43,0.65,0.22
0.54,0.72,0.31
0.66,0.79,0.41
0.75,0.87,0.47
0.77,0.97,0.47
0.74,1.08,0.46
0.65,1.24,0.43
0.57,1.33,0.42
0.55,1.35,0.46
0.58,1.36,0.52
0.67,1.34,0.57
0.77,1.38,0.58
0.81,1.51,0.56
0.82,1.63,0.53
0.81,1.72,0.47
0.82,1.74,0.45
0.88,1.71,0.46
0.96,1.79,0.47
1.03,1.88,0.46
1.08,1.93,0.46
1.09,1.98,0.45
1.05,2,0.45
0.98,2.01,0.47
0.86,1.97,0.49
0.88,1.92,0.47
0.98,1.89,0.42
1,2.79,2.18
2.47,3.78,3.99
2.81,2.04,2.86
0.84,0.4,0.36
1.4,0.8,-0.42
2.35,0.82,0.23
1.84,0.74,0.29
1.56,0.84,0.25
1.36,0.87,0.18
1.27,1.02,-0.01
1.04,1.06,-0.24
0.65,0.91,-0.35
0.23,0.81,-0.32
-0.05,0.82,-0.29
-0.19,0.79,-0.31
-0.23,0.72,-0.35
-0.16,0.71,-0.36
-0.05,0.72,-0.34
0.05,0.74,-0.31
0.11,0.77,-0.27
0.17,0.79,-0.26
0.25,0.81,-0.27
0.3,0.82,-0.34
0.31,0.81,-0.37
0.31,0.83,-0.37
0.27,0.86,-0.34
0.24,0.87,-0.3
0.22,0.88,-0.25
0.21,0.9,-0.22
0.22,0.93,-0.19
0.24,0.95,-0.17
0.28,0.98,-0.13
0.35,1.04,-0.11
0.44,1.07,-0.14
0.51,1.05,-0.06
0.51,1.06,0.07
0.49,1.05,0.23
0.44,1.02,0.44
0.34,1.05,0.63
0.26,1.06,0.89
0.13,1.03,1
0.05,0.99,0.83
0.09,0.95,0.52
0.18,0.94,0.29
0.25,0.96,0.17
0.29,0.99,0.12
0.33,1.01,0.1
0.33,1.02,0.08
0.28,0.97,0.05
0.19,0.95,0.04
0.18,0.93,0.03
0.18,0.92,0.01
0.18,0.91,0
0.2,0.91,-0.01
0.23,0.92,-0.02
0.25,0.92,-0.02
0.25,0.92,-0.02
0.25,0.92,-0.01
0.24,0.92,-0.01
0.23,0.93,-0.01
0.25,0.94,-0.01
0.27,0.93,-0.01
0.29,0.93,-0.01
0.3,0.93,-0.02
0.31,0.92,-0.01
0.32,0.92,0
0.31,0.92,0.02
0.29,0.93,0.04
0.27,0.95,0.06
0.24,0.95,0.09
0.2,0.95,0.12
0.19,0.96,0.13
0.2,0.98,0.14
0.21,0.99,0.15
0.21,1,0.2
0.17,1.01,0.23
0.11,1.02,0.29
0.03,1.04,0.36
-0.02,1.05,0.44
-0.03,1.07,0.52
-0.04,1.12,0.58
-0.1,1.16,0.64
-0.16,1.18,0.72
-0.18,1.17,0.8
-0.14,1.15,0.88
-0.07,1.13,0.96
0.02,1.13,1.05
0.11,1.16,1.16
0.15,1.23,1.25
0.13,1.31,1.32
0.07,1.39,1.36
0,1.45,1.36
-0.05,1.5,1.33
-0.08,1.54,1.27
-0.07,1.58,1.23
-0.02,1.61,1.18
0.08,1.65,1.13
0.15,1.68,1.08
0.21,1.72,1.03
0.27,1.77,0.97
0.29,1.8,0.85
0.26,1.72,0.77
0.27,1.68,0.69
0.3,1.64,0.67
0.33,1.6,0.65
0.36,1.58,0.6
0.4,1.59,0.56
0.41,1.56,0.52
0.4,1.49,0.49
0.4,1.41,0.46
0.39,1.29,0.43
0.37,1.19,0.38
0.35,1.12,0.34
0.32,1.08,0.29
0.31,1.04,0.23
0.3,1.01,0.21
0.31,0.96,0.21
0.33,0.85,0.15
0.35,0.73,0.11
0.37,0.65,0.1
0.37,0.59,0.09
0.34,0.52,0.09
0.26,0.45,0.09
0.2,0.38,0.08
0.15,0.31,0.05
0.14,0.25,0.03
0.17,0.22,0.07
0.19,0.17,0.1
0.19,0.14,0.15
0.19,0.07,0.17
0.18,0,0.15
0.16,-0.06,0.15
0.13,-0.1,0.15
0.12,-0.06,0.16
0.13,-0.01,0.2
0.12,-0.02,0.24
0.11,-0.04,0.28
0.1,-0.06,0.3
0.09,-0.05,0.33
0.11,-0.06,0.38
0.14,-0.09,0.41
0.17,-0.09,0.44
0.19,-0.09,0.46
0.19,-0.04,0.48
0.16,0.01,0.55
0.14,0,0.67
0.14,-0.02,0.72
0.13,-0.02,0.74
0.11,-0.02,0.77
0.13,0.02,0.83
0.14,0.07,0.96
0.13,0.04,1.15
0.1,0.01,1.47
-0.07,0.02,1.56
-0.14,0.02,1.6
-0.13,0.05,1.62
-0.09,0.1,1.69
-0.03,0.12,1.77
0.06,0.06,1.82
0.14,0,1.81
0.2,-0.02,1.74
0.24,0.01,1.62
0.25,0.05,1.53
0.24,0.06,1.48
0.24,0.05,1.43
0.24,0.01,1.37
0.22,0,1.28
0.23,0.03,1.18
0.27,0.02,1.1
0.33,0,1.01
0.34,0.01,0.93
0.35,0.01,0.85
0.34,-0.02,0.78
0.3,-0.04,0.72
0.25,-0.06,0.69
0.22,-0.08,0.66
0.21,-0.09,0.66
0.2,-0.08,0.65
0.17,-0.12,0.63
0.14,-0.17,0.63
0.13,-0.16,0.6
0.11,-0.17,0.58
0.08,-0.16,0.58
0.07,-0.16,0.59
0.06,-0.18,0.61
0.05,-0.2,0.63
0.04,-0.22,0.64
0.03,-0.22,0.64
0.02,-0.2,0.68
0,-0.19,0.71
-0.02,-0.18,0.73
-0.04,-0.17,0.75
-0.05,-0.17,0.79
-0.06,-0.18,0.84
-0.07,-0.17,0.88
-0.07,-0.17,0.94
-0.07,-0.16,1
-0.06,-0.14,1.05
-0.06,-0.13,1.07
-0.06,-0.12,1.08
-0.07,-0.13,1.08
-0.07,-0.13,1.09
-0.06,-0.13,1.1
-0.05,-0.13,1.1
-0.04,-0.14,1.09
-0.01,-0.12,1.09
0,-0.11,1.09
-0.01,-0.12,1.06
-0.02,-0.13,1.04
-0.03,-0.15,1
-0.02,-0.15,0.98
0,-0.14,0.98
0.01,-0.12,0.99
0,-0.11,1
0,-0.11,0.98
-0.01,-0.12,0.97
0,-0.13,0.96
0.02,-0.14,0.95
0.04,-0.14,0.94
0.05,-0.14,0.95
0.03,-0.14,0.95
0.02,-0.13,0.94
0.01,-0.13,0.95
0,-0.14,0.96
0,-0.14,0.98
-0.01,-0.13,0.99
-0.02,-0.13,0.99
-0.04,-0.13,0.99
-0.04,-0.13,0.99
-0.05,-0.13,0.98
-0.06,-0.13,0.96
-0.04,-0.12,0.99
-0.03,-0.12,1
-0.03,-0.11,1.01
-0.03,-0.11,1.01
-0.03,-0.11,1
-0.04,-0.1,0.98
-0.05,-0.1,0.95
-0.05,-0.11,0.92
-0.03,-0.11,0.89
-0.02,-0.1,0.87
-0.01,-0.09,0.84
-0.01,-0.09,0.79
-0.02,-0.08,0.73
-0.01,-0.08,0.65
0.02,-0.07,0.57
0.05,-0.05,0.5
0.06,-0.03,0.46
0.06,0,0.42
0.06,0.01,0.38
0.09,0.01,0.33
0.11,0.03,0.26
0.11,0.07,0.18
0.11,0.11,0.12
0.08,0.16,0.1
0.04,0.21,0.12
-0.01,0.23,0.16
-0.01,0.25,0.21
0.01,0.28,0.22
0.02,0.36,0.19
0.04,0.45,0.16
0.02,0.54,0.16
0.01,0.63,0.19
0.02,0.7,0.26
0.06,0.72,0.32
0.08,0.73,0.32
0.07,0.78,0.3
0.07,0.86,0.29
0.06,0.94,0.29
0.06,1.03,0.35
0.09,1.1,0.44
0.14,1.14,0.51
0.15,1.09,0.6
0.17,1.1,0.59
0.19,1.24,0.5
0.12,1.31,0.44
0.1,1.35,0.41
0.13,1.48,0.47
0.18,1.6,0.57
0.24,1.61,0.61
0.27,1.58,0.65
0.28,1.54,0.67
0.27,1.51,0.63
0.25,1.49,0.53
0.32,1.58,0.49
0.38,1.74,0.45
0.46,1.89,0.48
0.47,1.98,0.5
0.46,1.97,0.47
0.49,1.87,0.41
0.5,1.75,0.37
0.56,1.66,0.35
0.65,1.62,0.36
0.68,1.61,0.4
0.69,1.6,0.44
0.91,1.74,0.83
-0.77,2.92,2.59
-0.68,1.82,3.99
0.45,-0.31,1.73
-0.31,-0.01,-0.25
0.62,0.7,0.44
1.33,1.22,0.76
1.19,1.4,0.74
0.9,1.41,0.67
0.37,1.26,0.42
0.09,1.22,0.23
-0.03,1.14,0.04
-0.08,1.01,-0.23
-0.03,0.88,-0.46
-0.07,0.76,-0.52
0.07,0.77,-0.44
0.24,0.78,-0.38
0.28,0.79,-0.32
0.23,0.8,-0.26
0.16,0.82,-0.21
0.13,0.88,-0.19
0.12,0.95,-0.2
0.11,0.98,-0.23
0.11,1,-0.27
0.13,0.99,-0.3
0.16,0.97,-0.32
0.21,0.95,-0.31
0.23,0.94,-0.28
0.24,0.93,-0.23
0.23,0.92,-0.18
0.19,0.93,-0.14
0.14,0.93,-0.1
0.11,0.94,-0.07
0.1,0.94,-0.04
0.1,0.95,-0.02
0.1,0.96,-0.01
0.13,0.98,0.01
0.18,1,0.03
0.26,1.04,0.01
0.39,1.03,0.03
0.39,1.09,0.8
-0.01,1.11,1.12
0.16,0.98,0.93
0.11,0.92,0.55
0.12,0.92,0.28
0.24,0.94,0.17
0.3,0.97,0.15
0.3,0.99,0.16
0.24,1.03,0.17
0.18,1.06,0.16
0.12,1.05,0.14
0.06,1.03,0.12
0.04,1.02,0.12
0.07,1.01,0.13
0.1,0.99,0.16
0.12,0.98,0.2
0.16,0.99,0.27
0.21,1,0.37
0.24,1.02,0.49
0.25,1.04,0.58
0.26,1.06,0.68
0.26,1.09,0.77
0.22,1.11,0.85
0.18,1.12,0.94
0.15,1.14,1.02
0.08,1.18,1.06
0.01,1.22,1.1
0.04,1.26,1.1
0.09,1.28,1.11
0.13,1.29,1.12
0.15,1.31,1.12
0.18,1.36,1.09
0.21,1.4,1.05
0.25,1.44,1.04
0.27,1.46,1.02
0.25,1.45,0.99
0.27,1.52,1
0.27,1.53,1
0.27,1.53,0.95
0.31,1.55,0.9
0.34,1.54,0.88
0.39,1.53,0.86
0.45,1.53,0.85
0.48,1.51,0.83
0.47,1.45,0.77
0.46,1.44,0.7
0.46,1.44,0.66
0.42,1.4,0.65
0.39,1.35,0.6
0.41,1.32,0.54
0.41,1.27,0.53
0.38,1.19,0.54
0.36,1.13,0.49
0.35,1.02,0.44
0.3,0.93,0.39
0.26,0.86,0.36
0.22,0.82,0.37
0.21,0.78,0.41
0.21,0.72,0.41
0.22,0.63,0.35
0.2,0.58,0.33
0.19,0.55,0.33
0.21,0.43,0.31
0.22,0.35,0.33
0.2,0.31,0.38
0.19,0.27,0.39
0.17,0.25,0.38
0.12,0.13,0.33
0.11,0.08,0.3
0.11,0.07,0.28
0.16,0.04,0.22
0.19,0.02,0.19
0.19,-0.01,0.17
0.19,-0.03,0.16
0.14,-0.08,0.19
0.12,-0.11,0.23
0.11,-0.13,0.25
0.11,-0.15,0.3
0.14,-0.16,0.39
0.17,-0.14,0.42
0.18,-0.15,0.41
0.17,-0.15,0.4
0.16,-0.12,0.41
0.11,-0.15,0.46
0.08,-0.17,0.51
0.09,-0.18,0.55
0.09,-0.17,0.56
0.1,-0.15,0.55
0.1,-0.13,0.53
0.1,-0.12,0.53
0.08,-0.12,0.52
0.06,-0.11,0.54
0.05,-0.12,0.56
0.06,-0.12,0.56
0.07,-0.11,0.54
0.09,-0.09,0.49
0.09,-0.07,0.42
0.1,-0.04,0.34
0.1,0,0.29
0.06,0.03,0.27
0.01,0.06,0.29
-0.01,0.07,0.33
-0.01,0.09,0.36
0.03,0.12,0.35
0.1,0.17,0.2
0.16,0.3,0.15
0.11,0.4,0.16
0.07,0.46,0.19
0.06,0.44,0.22
0.06,0.44,0.27
0.11,0.49,0.31
0.18,0.55,0.29
0.24,0.64,0.24
0.27,0.76,0.18
0.25,0.87,0.16
0.19,0.98,0.23
0.16,1.05,0.33
0.16,1.05,0.36
0.16,1.07,0.35
0.18,1.12,0.29
0.16,1.21,0.28
0.09,1.32,0.32
0.12,1.38,0.34
0.23,1.46,0.38
0.27,1.52,0.47
0.26,1.56,0.52
0.25,1.63,0.51
0.27,1.71,0.47
0.28,1.78,0.46
0.28,1.81,0.52
0.28,1.8,0.67
0.29,1.68,0.66
0.27,1.69,0.65
0.29,1.75,0.69
0.37,1.81,0.71
0.43,1.81,0.7
0.47,1.85,0.69
0.49,1.91,0.7
0.49,1.9,0.69
0.5,1.86,0.69
0.52,1.76,0.73
0.53,1.62,0.76
0.94,2.09,2.34
-0.24,2.48,3.96
-1.01,1.96,4
0.5,0.89,1.95
1.23,0.28,-0.01
1.37,0.8,0.32
1.43,1.4,0.81
1.15,1.45,0.98
0.43,1.32,0.76
-0.19,1.28,0.45
-0.38,1.19,0.18
-0.29,1.08,-0.12
-0.04,0.98,-0.42
0.05,0.85,-0.51
0.01,0.81,-0.39
0.06,0.83,-0.35
0.14,0.79,-0.33
0.14,0.78,-0.3
0.06,0.81,-0.25
0.04,0.87,-0.21
0.08,0.94,-0.2
0.13,0.99,-0.21
0.14,1.02,-0.24
0.14,1.03,-0.3
0.15,1.01,-0.37
0.15,0.97,-0.4
0.15,0.94,-0.39
0.15,0.92,-0.34
0.15,0.91,-0.28
0.14,0.9,-0.23
0.11,0.91,-0.18
0.08,0.92,-0.16
0.07,0.93,-0.15
0.07,0.94,-0.15
0.07,0.96,-0.15
0.07,0.96,-0.15
0.09,0.97,-0.14
0.13,0.98,-0.11
0.17,0.98,-0.08
0.19,0.98,-0.05
0.18,0.97,0.02
0.15,1,0.05
0.23,1.06,0.09
0.28,1.2,0.44
0.01,1.38,1.44
-0.12,1.15,2.02
-0.07,0.93,1.41
-0.12,0.94,0.57
0.01,0.86,0.19
0.26,0.91,0.13
0.44,0.98,0.17
0.48,1.04,0.25
0.35,1.09,0.3
0.13,1.1,0.3
-0.03,1.08,0.27
-0.1,1.05,0.23
-0.07,1.04,0.2
0.03,1.05,0.19
0.12,1.03,0.21
0.14,1,0.25
0.11,0.99,0.33
0.09,1.03,0.41
0.08,1.06,0.47
0.06,1.11,0.55
0.06,1.17,0.65
0.04,1.18,0.72
0.02,1.17,0.77
0.07,1.14,0.83
0.11,1.13,0.85
0.15,1.13,0.87
0.18,1.14,0.9
0.23,1.15,0.92
0.27,1.17,0.92
0.25,1.2,0.94
0.23,1.22,0.96
0.22,1.28,0.97
0.18,1.35,0.99
0.14,1.39,1.01
0.12,1.42,1.03
0.14,1.44,1.04
0.19,1.46,1.06
0.22,1.49,1.05
0.24,1.53,1.03
0.23,1.56,0.99
0.2,1.57,0.94
0.2,1.54,0.89
0.25,1.49,0.87
0.3,1.45,0.85
0.33,1.45,0.81
0.31,1.45,0.8
0.27,1.44,0.77
0.28,1.42,0.76
0.35,1.41,0.79
0.42,1.34,0.76
0.42,1.28,0.69
0.37,1.23,0.61
0.34,1.18,0.53
0.3,1.14,0.46
0.27,1.1,0.42
0.28,1.06,0.42
0.3,1.01,0.4
0.35,0.91,0.35
0.43,0.78,0.3
0.47,0.68,0.27
0.41,0.6,0.23
0.34,0.55,0.19
0.28,0.52,0.15
0.25,0.54,0.1
0.23,0.48,0.01
0.23,0.34,-0.03
0.22,0.24,0
0.17,0.17,0.05
0.12,0.11,0.1
0.09,0.07,0.11
0.07,0.05,0.11
0.06,0.03,0.13
0.08,0.02,0.15
0.11,-0.02,0.17
0.12,-0.08,0.18
0.11,-0.14,0.22
0.01,-0.16,0.2
0,-0.16,0.23
0.02,-0.13,0.27
0.08,-0.12,0.33
0.13,-0.11,0.43
0.13,-0.1,0.57
0.12,-0.14,0.67
0.12,-0.18,0.7
0.1,-0.2,0.68
0.08,-0.21,0.63
0.08,-0.18,0.57
0.07,-0.11,0.51
0.06,-0.05,0.48
0.05,-0.03,0.48
0.05,-0.04,0.48
0.04,-0.05,0.48
0.04,-0.05,0.48
0.07,-0.05,0.45
0.09,-0.04,0.41
0.11,-0.02,0.35
0.1,0.02,0.29
0.06,0.07,0.25
0.02,0.1,0.25
-0.01,0.12,0.27
-0.02,0.13,0.3
-0.01,0.16,0.2
0.04,0.19,0.13
0.05,0.24,0.08
0.05,0.36,0.06
0.02,0.5,0.07
-0.01,0.58,0.13
-0.02,0.59,0.2
0.02,0.59,0.21
0.06,0.58,0.18
0.11,0.58,0.14
0.17,0.64,0.08
0.19,0.8,0.09
0.13,1.04,0.23
0.1,1.24,0.37
0.13,1.32,0.4
0.16,1.34,0.37
0.18,1.32,0.32
0.17,1.25,0.24
0.14,1.3,0.15
0.14,1.48,0.24
0.12,1.62,0.48
0.19,1.73,0.65
0.31,1.8,0.66
0.36,1.83,0.59
0.36,1.85,0.51
0.35,1.87,0.4
0.33,1.94,0.47
0.31,1.97,0.73
0.43,1.94,0.83
0.52,1.9,0.82
0.5,1.92,0.82
0.49,1.96,0.79
0.5,1.98,0.74
0.52,1.99,0.74
0.54,1.98,0.76
0.53,1.92,0.77
0.51,1.83,0.81
0.49,1.64,0.86
-0.47,2.65,2.43
-0.25,3.42,3.99
1.3,1.88,2.21
0.94,0.17,0.1
0.41,0.14,0.19
0.93,0.86,0.62
1.22,1.19,0.93
0.91,1.33,1.12
0.39,1.34,0.77
0.13,1.26,0.38
0.09,1.14,0.15
0.02,1.09,-0.01
0.02,1,-0.21
0.14,0.84,-0.39
0.21,0.75,-0.31
0.08,0.81,-0.2
0.09,0.89,-0.13
0.13,0.94,-0.14
0.09,0.93,-0.18
0,0.94,-0.22
-0.02,0.95,-0.25
0.05,0.96,-0.26
0.13,0.97,-0.27
0.18,0.98,-0.28
0.22,0.98,-0.31
0.26,0.96,-0.35
0.27,0.94,-0.39
0.28,0.92,-0.39
0.26,0.9,-0.38
0.25,0.88,-0.34
0.26,0.88,-0.28
0.27,0.88,-0.22
0.27,0.89,-0.16
0.24,0.91,-0.13
0.22,0.93,-0.11
0.2,0.94,-0.1
0.16,0.94,-0.1
0.14,0.94,-0.09
0.13,0.95,-0.06
0.15,0.97,-0.02
0.17,0.97,0.04
0.17,0.97,0.06
0.17,0.98,0.08
0.16,0.99,0.12
0.24,1.13,0.26
-0.03,1.25,0.78
-0.43,1.3,1.53
-0.12,1.08,1.54
0.17,0.87,0.89
0.08,0.88,0.39
0.14,0.83,0.15
0.29,0.89,0.12
0.43,0.98,0.17
0.5,1.03,0.25
0.41,1.08,0.29
0.27,1.09,0.27
0.15,1.07,0.24
0.08,1.04,0.18
0.05,1.01,0.13
0.08,0.98,0.07
0.14,0.94,0.03
0.18,0.93,0.04
0.19,0.91,0.11
0.2,0.92,0.19
0.2,0.96,0.27
0.18,1.02,0.35
0.17,1.06,0.48
0.09,1.09,0.5
0.07,1.12,0.56
0.08,1.15,0.65
0.08,1.15,0.69
0.06,1.13,0.73
0.06,1.12,0.81
0.05,1.11,0.87
0.06,1.1,0.91
0.08,1.08,0.95
0.12,1.1,1.02
0.17,1.14,1.05
0.24,1.18,1.06
0.29,1.21,1.07
0.29,1.25,1.09
0.25,1.28,1.08
0.23,1.33,1.07
0.23,1.37,1.1
0.23,1.4,1.09
0.23,1.45,1.09
0.23,1.5,1.09
0.22,1.52,1.06
0.23,1.53,1.02
0.26,1.52,0.98
0.28,1.5,0.91
0.32,1.49,0.84
0.37,1.48,0.77
0.42,1.44,0.75
0.44,1.42,0.72
0.46,1.38,0.67
0.47,1.33,0.62
0.45,1.27,0.58
0.41,1.24,0.55
0.4,1.21,0.52
0.4,1.16,0.5
0.39,1.1,0.5
0.39,1.04,0.47
0.4,0.97,0.44
0.39,0.9,0.4
0.41,0.85,0.34
0.4,0.82,0.31
0.4,0.76,0.28
0.41,0.68,0.25
0.41,0.62,0.25
0.37,0.56,0.25
0.31,0.46,0.23
0.26,0.37,0.21
0.21,0.3,0.2
0.2,0.25,0.19
0.23,0.25,0.21
0.25,0.22,0.21
0.26,0.17,0.2
0.23,0.12,0.24
0.13,0.05,0.24
0.08,0.03,0.24
0.06,0.02,0.25
0.1,-0.02,0.27
0.12,-0.04,0.31
0.12,-0.08,0.36
0.13,-0.1,0.4
0.11,-0.07,0.43
0.06,-0.06,0.46
-0.02,-0.08,0.52
-0.05,-0.1,0.56
0,-0.14,0.55
0.04,-0.14,0.53
0.08,-0.11,0.54
0.08,-0.07,0.59
0.04,-0.06,0.67
0.02,-0.09,0.73
0.03,-0.1,0.76
0.02,-0.1,0.77
0.01,-0.09,0.78
-0.02,-0.08,0.8
-0.06,-0.07,0.85
-0.05,-0.08,0.88
-0.04,-0.09,0.89
-0.02,-0.08,0.91
0,-0.05,1
0.03,-0.04,1.02
0.02,-0.05,1.03
-0.01,-0.05,1.05
-0.04,-0.04,1.09
-0.04,-0.04,1.12
-0.01,-0.03,1.14
0.02,-0.03,1.14
0.05,-0.03,1.13
0.08,-0.02,1.13
0.1,-0.01,1.15
0.12,0,1.18
0.14,0,1.2
0.16,-0.01,1.22
0.18,-0.01,1.21
0.19,-0.01,1.18
0.19,0,1.16
0.19,0.01,1.14
0.2,0.01,1.14
0.22,0,1.14
0.23,-0.01,1.13
0.24,-0.02,1.11
0.23,-0.01,1.09
0.22,0,1.08
0.21,0,1.06
0.21,-0.01,1.02
0.21,-0.02,0.95
0.21,-0.03,0.92
0.21,-0.03,0.89
0.21,-0.03,0.87
0.19,-0.02,0.86
0.18,-0.02,0.85
0.17,-0.03,0.85
0.16,-0.03,0.84
0.14,-0.04,0.81
0.11,-0.04,0.77
0.1,-0.04,0.73
0.09,-0.04,0.69
0.08,-0.04,0.68
0.09,-0.05,0.68
0.11,-0.04,0.67
0.1,-0.03,0.65
0.09,-0.02,0.62
0.1,-0.01,0.57
0.12,-0.01,0.5
0.13,0.01,0.42
0.15,0.04,0.36
0.15,0.06,0.32
0.14,0.09,0.3
0.14,0.11,0.28
0.14,0.14,0.26
0.14,0.17,0.24
0.16,0.21,0.19
0.25,0.3,0.08
0.22,0.37,0.08
0.15,0.45,0.15
0.13,0.48,0.22
0.16,0.48,0.23
0.18,0.53,0.21
0.19,0.61,0.18
0.19,0.67,0.15
0.13,0.77,0.22
0.08,0.86,0.33
0.09,0.86,0.37
0.09,0.84,0.39
0.11,0.89,0.4
0.14,1.01,0.34
0.16,1.15,0.34
0.14,1.22,0.45
0.12,1.23,0.5
0.11,1.22,0.49
0.07,1.26,0.49
0.04,1.31,0.47
0.04,1.36,0.45
0.08,1.41,0.43
0.14,1.5,0.43
0.19,1.62,0.5
0.24,1.74,0.58
0.27,1.81,0.65
0.31,1.74,0.63
0.33,1.67,0.55
0.32,1.62,0.45
0.29,1.58,0.36
0.28,1.62,0.36
0.29,1.69,0.43
0.29,1.72,0.52
0.32,1.73,0.58
0.36,1.7,0.59
0.44,1.66,0.52
0.53,1.62,0.45
0.55,1.6,0.44
-0.66,1.74,2.22
-0.66,2.24,3.99
1.26,1.89,2.35
0.73,0.31,0.11
0.36,0.02,0.05
1.24,0.9,0.56
1.28,1.34,0.65
0.96,1.44,0.9
0.39,1.24,0.84
0.1,1.16,0.48
-0.01,1.2,0.33
-0.14,1.14,0.24
-0.14,1,-0.01
0,0.86,-0.47
0.09,0.8,-0.51
0.18,0.83,-0.45
0.22,0.83,-0.35
0.21,0.83,-0.24
0.16,0.82,-0.17
0.13,0.85,-0.16
0.12,0.9,-0.14
0.13,0.95,-0.15
0.15,0.99,-0.18
0.15,1.01,-0.23
0.15,1.02,-0.3
0.16,1,-0.34
0.18,0.95,-0.35
0.2,0.91,-0.34
0.21,0.89,-0.29
0.22,0.87,-0.22
0.23,0.87,-0.17
0.24,0.87,-0.12
0.25,0.89,-0.08
0.25,0.91,-0.05
0.24,0.92,-0.03
0.21,0.93,-0.03
0.17,0.95,-0.03
0.16,0.96,-0.03
0.18,0.97,-0.02
0.2,0.97,0
0.23,0.97,0.06
0.26,0.97,0.08
0.27,0.97,0.08
0.28,0.96,0.09
0.3,0.97,0.1
0.32,0.98,0.12
0.4,1.04,0.15
0.34,1.09,0.43
0.2,1.13,0.96
0.05,1.1,1.26
-0.11,1.04,1.01
-0.1,0.96,0.54
-0.08,0.87,0.27
-0.03,0.9,0.2
0.1,0.95,0.19
0.24,0.99,0.2
0.33,1.03,0.22
0.34,1.07,0.17
0.32,1.07,0.11
0.24,1.04,0.08
0.18,1,0.05
0.17,0.97,0.01
0.2,0.94,-0.02
0.21,0.91,-0.02
0.22,0.89,-0.01
0.24,0.88,0.01
0.25,0.9,0.03
0.25,0.92,0.05
0.26,0.93,0.06
0.27,0.93,0.05
0.26,0.94,0.03
0.26,0.96,0.02
0.26,0.96,0.01
0.26,0.96,0
0.26,0.96,-0.01
0.26,0.95,0
0.25,0.94,0
0.25,0.94,0.01
0.26,0.94,0.03
0.26,0.94,0.04
0.26,0.94,0.05
0.25,0.94,0.06
0.25,0.94,0.06
0.25,0.95,0.06
0.25,0.95,0.06
0.26,0.96,0.07
0.26,0.96,0.07
0.27,0.96,0.08
0.28,0.96,0.08
0.27,0.97,0.08
0.26,0.97,0.08
0.27,0.96,0.09
0.26,0.96,0.12
0.2,0.94,0.15
0.19,0.95,0.17
0.18,0.95,0.19
0.18,0.96,0.2
0.18,0.97,0.2
0.18,0.97,0.2
0.18,0.97,0.2
0.19,0.97,0.18
0.2,0.96,0.17
0.22,0.95,0.16
0.24,0.95,0.14
0.25,0.94,0.13
0.26,0.94,0.12
0.28,0.93,0.11
0.29,0.93,0.1
0.29,0.92,0.09
0.28,0.92,0.09
0.28,0.93,0.09
0.29,0.93,0.09
0.29,0.94,0.08
0.29,0.95,0.07
0.28,0.96,0.07
0.27,0.97,0.07
0.28,0.97,0.06
0.28,0.97,0.06
0.29,0.97,0.06
0.29,0.96,0.06
0.29,0.95,0.06
0.29,0.95,0.07
0.28,0.94,0.07
0.27,0.94,0.08
0.26,0.93,0.1
0.25,0.93,0.11
0.25,0.92,0.12
0.25,0.92,0.13
0.24,0.91,0.15
0.24,0.91,0.17
0.24,0.92,0.18
0.23,0.93,0.19
0.23,0.93,0.18
0.24,0.94,0.17
0.25,0.94,0.16
0.26,0.95,0.14
0.27,0.96,0.12
0.28,0.96,0.11
0.27,0.96,0.11
0.25,0.96,0.1
0.23,0.96,0.1
0.24,0.96,0.1
0.26,0.96,0.09
0.26,0.95,0.08
0.26,0.94,0.08
0.28,0.94,0.08
0.28,0.93,0.08
0.27,0.93,0.09
0.26,0.93,0.09
0.26,0.93,0.08
0.25,0.93,0.08
0.25,0.93,0.08
0.26,0.93,0.09
0.27,0.93,0.09
0.27,0.93,0.1
0.27,0.93,0.1
0.27,0.93,0.1
0.27,0.94,0.11
0.27,0.95,0.11
0.28,0.95,0.12
0.28,0.94,0.12
0.28,0.94,0.12
0.28,0.95,0.13
0.28,0.95,0.13
0.28,0.95,0.14
0.27,0.94,0.14
0.27,0.94,0.13
0.27,0.94,0.13
0.26,0.94,0.12
0.26,0.94,0.12
0.26,0.94,0.11
0.26,0.93,0.11
0.26,0.93,0.11
0.27,0.94,0.1
0.27,0.94,0.1
0.26,0.94,0.1
0.26,0.94,0.1
0.26,0.94,0.1
0.26,0.94,0.09
0.27,0.94,0.1
0.27,0.95,0.1
0.27,0.95,0.1
0.28,0.95,0.11
0.28,0.94,0.11
0.28,0.94,0.12
0.28,0.95,0.12
0.27,0.95,0.12
0.27,0.95,0.11
0.27,0.94,0.11
0.26,0.94,0.11
0.25,0.93,0.12
0.25,0.93,0.12
0.24,0.93,0.12
0.24,0.94,0.12
0.24,0.94,0.12
0.25,0.95,0.12
0.25,0.95,0.1
0.26,0.95,0.1
0.27,0.95,0.1
0.27,0.94,0.1
0.27,0.94,0.1
0.27,0.94,0.11
0.27,0.93,0.11
0.27,0.93,0.11
0.27,0.93,0.11
0.28,0.94,0.11
0.28,0.94,0.11
0.28,0.94,0.11
0.28,0.94,0.11
0.28,0.94,0.11
0.28,0.94,0.11
0.28,0.94,0.11
0.28,0.94,0.11
0.27,0.93,0.11
0.27,0.93,0.11
0.26,0.93,0.11
0.27,0.93,0.11
0.27,0.93,0.11
0.27,0.93,0.11
0.28,0.93,0.11
0.29,0.93,0.11
0.29,0.94,0.11
0.28,0.94,0.11
0.28,0.95,0.1
0.28,0.95,0.1
0.27,0.95,0.1
0.27,0.96,0.1
0.26,0.95,0.1
0.26,0.95,0.1
0.26,0.95,0.11
0.26,0.95,0.11
0.26,0.95,0.12
0.25,0.95,0.13
0.24,0.95,0.13
0.24,0.95,0.14
0.23,0.94,0.15
0.21,0.95,0.16
0.16,0.96,0.19
0.09,0.96,0.24
0.04,0.97,0.3
0,1,0.37
-0.02,1.02,0.43
-0.02,1.02,0.46
-0.05,1.04,0.52
-0.06,1.07,0.6
-0.02,1.09,0.67
0.02,1.1,0.74
0.04,1.13,0.79
0.05,1.16,0.8
0.1,1.15,0.85
0.16,1.16,0.9
0.24,1.16,0.94
0.3,1.17,0.99
0.32,1.22,1.03
0.33,1.26,1.05
0.35,1.28,1.05
0.37,1.31,1.03
0.36,1.33,1
0.36,1.34,0.97
0.35,1.37,0.93
0.33,1.4,0.9
0.33,1.42,0.88
0.33,1.43,0.84
0.32,1.44,0.79
0.32,1.43,0.77
0.34,1.4,0.78
0.36,1.4,0.77
0.38,1.42,0.72
0.39,1.43,0.66
0.4,1.43,0.62
0.42,1.42,0.6
0.45,1.4,0.62
0.48,1.37,0.61
0.49,1.33,0.59
0.5,1.29,0.61
0.52,1.23,0.68
0.58,1.19,0.7
0.52,1.13,0.69
0.48,1.09,0.65
0.44,1.06,0.61
0.4,1.01,0.57
0.41,0.94,0.53
0.41,0.9,0.51
0.42,0.87,0.5
0.44,0.83,0.47
0.45,0.78,0.43
0.44,0.72,0.44
0.43,0.65,0.44
0.42,0.58,0.39
0.42,0.52,0.35
0.41,0.46,0.36
0.4,0.43,0.39
0.36,0.39,0.38
0.34,0.31,0.37
0.34,0.23,0.35
0.32,0.18,0.34
0.3,0.08,0.32
0.26,-0.01,0.31
0.25,0.06,0.38
0.23,0,0.38
0.18,-0.08,0.32
0.16,-0.1,0.21
0.16,-0.05,0.19
0.22,-0.09,0.09
0.26,-0.09,0.08
0.22,-0.13,0.2
0.21,-0.19,0.31
0.21,-0.2,0.37
0.18,-0.19,0.41
0.15,-0.13,0.43
0.09,-0.19,0.43
0.12,-0.25,0.44
0.17,-0.22,0.48
0.19,-0.2,0.49
0.22,-0.18,0.48
0.24,-0.15,0.48
0.21,-0.15,0.49
0.16,-0.16,0.54
0.13,-0.18,0.6
0.13,-0.19,0.64
0.13,-0.19,0.65
0.14,-0.19,0.65
0.16,-0.18,0.64
0.16,-0.16,0.64
0.15,-0.16,0.65
0.15,-0.16,0.65
0.15,-0.16,0.63
0.15,-0.16,0.57
0.16,-0.14,0.52
0.16,-0.11,0.5
0.14,-0.07,0.51
0.15,-0.03,0.52
0.17,0,0.52
0.18,0.01,0.5
0.2,0,0.47
0.22,0.01,0.42
0.21,0.04,0.37
0.21,0.07,0.32
0.21,0.11,0.3
0.19,0.17,0.32
0.2,0.24,0.33
0.22,0.3,0.33
0.22,0.34,0.32
0.21,0.37,0.31
0.2,0.36,0.31
0.21,0.35,0.31
0.2,0.4,0.34
0.21,0.45,0.37
0.24,0.51,0.39
0.25,0.64,0.4
0.28,0.79,0.39
0.29,0.89,0.36
0.27,0.94,0.33
0.25,0.93,0.34
0.26,0.98,0.43
0.32,1,0.5
0.34,0.72,0.47
0.39,0.91,0.46
0.4,1.43,0.45
0.34,1.52,0.33
0.33,1.57,0.27
0.33,1.61,0.31
0.34,1.6,0.36
0.34,1.58,0.45
0.37,1.59,0.54
0.4,1.58,0.56
0.45,1.56,0.52
0.48,1.58,0.44
0.5,1.63,0.34
0.49,1.71,0.27
0.45,1.8,0.24
0.4,1.89,0.32
0.39,1.92,0.49
0.42,1.87,0.66
0.46,1.81,0.73
0.49,1.76,0.72
0.53,1.76,0.7
0.59,1.79,0.68
0.63,1.85,0.7
-1.62,1.98,3.99
1.82,1.62,2.36
0.46,0.41,0.07
0.51,-0.05,-0.19
1.23,1.03,0.31
1.05,1.58,0.69
0.54,1.35,0.94
0.17,1.08,0.68
0.04,1.12,0.27
0.03,0.99,-0.03
0,0.81,-0.25
-0.02,0.76,-0.45
0.02,0.71,-0.6
0.06,0.71,-0.67
0.06,0.73,-0.65
0.11,0.72,-0.55
0.17,0.73,-0.41
0.17,0.77,-0.29
0.15,0.82,-0.21
0.14,0.89,-0.18
0.14,0.96,-0.2
0.14,0.99,-0.24
0.12,1.01,-0.29
0.13,1.01,-0.33
0.16,0.99,-0.34
0.16,0.96,-0.31
0.18,0.94,-0.23
0.24,0.95,-0.16
0.27,0.95,-0.1
0.28,0.95,-0.05
0.26,0.95,-0.02
0.23,0.95,-0.01
0.21,0.95,-0.01
0.21,0.95,0
0.21,0.96,0.01
0.24,0.97,0.04
0.34,1.02,0.06
0.48,1.08,0.07
0.31,1.1,0.61
-0.15,1.15,1.3
-0.16,1.04,1.22
0.05,0.94,0.73
-0.02,0.93,0.35
-0.02,0.87,0.21
0.11,0.92,0.18
0.22,0.99,0.18
0.29,1.03,0.18
0.35,1.06,0.13
0.38,1.08,0.06
0.33,1.06,0.03
0.25,1.02,0.03
0.22,0.99,0.02
0.23,0.99,-0.04
0.23,0.94,-0.05
0.24,0.91,-0.05
0.24,0.9,-0.04
0.24,0.9,-0.03
0.24,0.91,-0.01
0.25,0.91,0
0.26,0.91,0
0.27,0.92,0
0.29,0.93,0
0.31,0.94,-0.01
0.31,0.94,-0.02
0.31,0.95,-0.03
0.3,0.95,-0.03
0.29,0.95,-0.02
0.27,0.95,-0.02
0.25,0.95,0
0.22,0.95,0.01
0.2,0.95,0.02
0.2,0.95,0.03
0.21,0.96,0.03
0.22,0.96,0.03
0.22,0.95,0.04
0.23,0.95,0.04
0.23,0.95,0.04
0.23,0.95,0.04
0.24,0.95,0.01
0.25,0.96,0.01
0.25,0.96,0.02
0.25,0.96,0.03
0.22,0.95,0.06
0.18,0.95,0.1
0.19,0.95,0.12
0.19,0.96,0.13
0.18,0.96,0.14
0.16,0.97,0.16
0.15,0.97,0.16
0.14,0.96,0.17
0.12,0.96,0.17
0.12,0.96,0.16
0.13,0.96,0.15
0.15,0.96,0.13
0.18,0.96,0.11
0.2,0.96,0.09
0.22,0.96,0.08
0.24,0.95,0.07
0.26,0.95,0.06
0.27,0.95,0.05
0.27,0.95,0.04
0.28,0.95,0.03
0.28,0.94,0.03
0.28,0.94,0.03
0.27,0.95,0.04
0.25,0.95,0.05
0.25,0.94,0.05
0.26,0.94,0.05
0.26,0.94,0.05
0.27,0.94,0.05
0.27,0.94,0.05
0.27,0.94,0.05
0.27,0.94,0.06
0.26,0.95,0.06
0.26,0.95,0.06
0.25,0.96,0.06
0.26,0.96,0.06
0.26,0.95,0.07
0.26,0.95,0.08
0.26,0.94,0.08
0.27,0.94,0.08
0.26,0.94,0.09
0.26,0.94,0.1
0.25,0.95,0.1
0.26,0.96,0.11
0.26,0.95,0.11
0.26,0.95,0.1
0.27,0.95,0.1
0.27,0.94,0.09
0.28,0.94,0.08
0.28,0.94,0.08
0.28,0.94,0.08
0.28,0.95,0.07
0.28,0.95,0.06
0.27,0.95,0.06
0.28,0.95,0.06
0.28,0.94,0.06
0.28,0.94,0.06
0.28,0.94,0.05
0.28,0.94,0.05
0.28,0.95,0.06
0.28,0.94,0.06
0.28,0.94,0.06
0.29,0.94,0.06
0.28,0.94,0.06
0.28,0.94,0.06
0.28,0.94,0.06
0.28,0.94,0.05
0.29,0.94,0.05
0.29,0.94,0.06
0.29,0.94,0.06
0.29,0.94,0.06
0.29,0.94,0.06
0.29,0.94,0.06
0.29,0.94,0.06
0.29,0.94,0.07
0.29,0.94,0.07
0.29,0.94,0.08
0.29,0.94,0.08
0.29,0.94,0.08
0.29,0.94,0.08
0.29,0.94,0.08
0.29,0.94,0.08
0.29,0.94,0.08
0.29,0.94,0.08
0.28,0.94,0.08
0.28,0.94,0.08
0.28,0.94,0.08
0.27,0.94,0.08
0.28,0.94,0.07
0.28,0.94,0.07
0.28,0.94,0.07
0.28,0.94,0.07
0.28,0.95,0.07
0.28,0.94,0.07
0.29,0.94,0.07
0.29,0.93,0.07
0.29,0.93,0.07
0.29,0.93,0.07
0.29,0.93,0.07
0.29,0.93,0.07
0.29,0.93,0.07
0.29,0.94,0.07
0.29,0.94,0.06
0.29,0.94,0.06
0.29,0.94,0.06
0.29,0.94,0.06
0.29,0.94,0.07
0.29,0.94,0.07
0.29,0.94,0.07
0.29,0.94,0.07
0.28,0.94,0.08
0.28,0.94,0.08
0.28,0.94,0.08
0.28,0.94,0.08
0.28,0.94,0.08
0.28,0.94,0.08
0.28,0.94,0.08
0.28,0.94,0.08
0.28,0.94,0.08
0.28,0.94,0.08
0.28,0.94,0.08
0.28,0.94,0.07
0.28,0.94,0.07
0.28,0.94,0.07
0.28,0.94,0.07
0.28,0.94,0.08
0.28,0.94,0.07
0.28,0.94,0.07
0.28,0.94,0.07
0.28,0.94,0.07
0.28,0.94,0.07
0.29,0.94,0.08
0.29,0.94,0.08
0.29,0.94,0.08
0.29,0.94,0.07
0.29,0.94,0.08
0.29,0.94,0.08
0.29,0.94,0.08
0.29,0.94,0.08
0.29,0.93,0.08
0.29,0.94,0.08
0.28,0.94,0.08
0.28,0.94,0.08
0.29,0.94,0.08
0.29,0.94,0.08
0.29,0.94,0.08
0.29,0.94,0.08
0.29,0.94,0.08
0.29,0.94,0.09
0.29,0.94,0.09
0.29,0.94,0.09
0.3,0.95,0.1
0.3,0.94,0.13
0.31,0.94,0.16
0.31,0.97,0.21
0.3,0.99,0.26
0.3,1.02,0.31
0.29,1.03,0.35
0.26,1.03,0.39
0.21,1.03,0.42
0.16,1,0.46
0.12,1.02,0.49
0.09,1.06,0.52
0.06,1.05,0.54
0.05,1.04,0.58
0.03,1.04,0.62
0.03,1.05,0.64
0.05,1.07,0.64
0.06,1.07,0.64
0.06,1.07,0.65
0.08,1.07,0.65
0.09,1.08,0.65
0.1,1.1,0.66
0.12,1.13,0.69
0.16,1.14,0.72
0.2,1.14,0.73
0.23,1.14,0.75
0.26,1.13,0.76
0.29,1.14,0.78
0.29,1.16,0.8
0.28,1.24,0.83
0.26,1.28,0.84
0.24,1.31,0.85
0.23,1.31,0.86
0.23,1.3,0.86
0.24,1.28,0.85
0.23,1.29,0.87
0.24,1.31,0.89
0.26,1.32,0.91
0.26,1.31,0.9
0.27,1.3,0.88
0.3,1.28,0.86
0.33,1.27,0.86
0.35,1.27,0.87
0.38,1.3,0.91
0.38,1.32,0.97
0.37,1.31,0.97
0.35,1.27,0.94
0.32,1.22,0.95
0.29,1.17,0.94
0.29,1.13,0.89
0.27,1.11,0.85
0.24,1.1,0.83
0.22,1.05,0.83
0.22,1,0.81
0.24,0.95,0.74
0.26,0.88,0.6
0.32,0.84,0.53
0.35,0.78,0.45
0.4,0.7,0.35
0.46,0.61,0.26
0.46,0.56,0.23
0.41,0.44,0.15
0.37,0.33,0.11
0.37,0.32,0.09
0.32,0.31,0.06
0.27,0.23,0.01
0.26,0.18,-0.01
0.27,0.22,-0.01
0.26,0.09,-0.03
0.24,-0.01,0.01
0.24,0.02,0.11
0.22,-0.03,0.14
0.21,-0.07,0.14
0.2,-0.09,0.14
0.17,-0.07,0.17
0.15,-0.07,0.23
0.16,-0.12,0.28
0.17,-0.15,0.34
0.16,-0.18,0.39
0.14,-0.17,0.44
0.11,-0.14,0.53
0.09,-0.16,0.68
0.13,-0.19,0.71
0.17,-0.16,0.74
0.2,-0.13,0.78
0.2,-0.11,0.82
0.2,-0.1,0.84
0.19,-0.1,0.86
0.18,-0.09,0.89
0.18,-0.1,0.92
0.19,-0.12,0.96
0.22,-0.15,0.99
0.24,-0.16,1.01
0.24,-0.14,1.01
0.23,-0.11,1.02
0.22,-0.1,1.02
0.21,-0.11,1.03
0.21,-0.11,1.03
0.21,-0.12,1.05
0.23,-0.12,1.05
0.24,-0.11,1.04
0.26,-0.11,1.04
0.26,-0.1,1.04
0.25,-0.1,1.04
0.25,-0.1,1.03
0.25,-0.1,1.03
0.25,-0.1,1.03
0.25,-0.1,1.01
0.25,-0.08,0.98
0.24,-0.09,0.96
0.25,-0.09,0.95
0.26,-0.09,0.95
0.28,-0.09,0.95
0.28,-0.09,0.96
0.28,-0.09,0.96
0.27,-0.08,0.95
0.26,-0.09,0.93
0.26,-0.09,0.91
0.26,-0.09,0.91
0.27,-0.1,0.93
0.28,-0.1,0.94
0.28,-0.1,0.96
0.27,-0.09,0.96
0.25,-0.08,0.96
0.25,-0.06,0.95
0.25,-0.06,0.95
0.27,-0.07,0.95
0.3,-0.09,0.96
0.34,-0.09,0.97
0.37,-0.1,0.96
0.37,-0.09,0.95
0.36,-0.08,0.94
0.34,-0.08,0.93
0.32,-0.07,0.94
0.29,-0.07,0.94
0.29,-0.07,0.94
0.3,-0.06,0.94
0.3,-0.06,0.94
0.3,-0.06,0.92
0.29,-0.07,0.91
0.29,-0.07,0.89
0.28,-0.06,0.88
0.25,-0.06,0.88
0.24,-0.07,0.86
0.26,-0.07,0.85
0.27,-0.07,0.84
0.27,-0.07,0.82
0.27,-0.06,0.8
0.27,-0.06,0.76
0.26,-0.06,0.75
0.26,-0.06,0.75
0.28,-0.05,0.74
0.29,-0.04,0.72
0.28,-0.03,0.68
0.27,-0.03,0.63
0.26,-0.03,0.57
0.25,-0.02,0.5
0.23,-0.01,0.45
0.2,0.01,0.44
0.18,0.01,0.48
0.22,0.04,0.48
0.25,0.07,0.45
0.26,0.1,0.4
0.27,0.15,0.33
0.27,0.19,0.25
0.23,0.23,0.22
0.19,0.28,0.25
0.19,0.31,0.29
0.22,0.32,0.31
0.26,0.35,0.29
0.28,0.4,0.25
0.29,0.47,0.17
0.29,0.52,0.1
0.27,0.61,0.11
0.27,0.7,0.18
0.3,0.72,0.26
0.32,0.71,0.29
0.34,0.75,0.3
0.36,0.83,0.3
0.32,0.7,0.21
0.37,0.82,0.17
0.4,1.16,0.19
0.37,1.25,0.21
0.37,1.3,0.3
0.39,1.31,0.41
0.47,1.31,0.53
0.48,1.36,0.52
0.44,1.4,0.47
0.4,1.47,0.45
0.36,1.56,0.51
0.37,1.62,0.61
0.42,1.64,0.63
0.46,1.63,0.62
0.46,1.6,0.62
0.45,1.6,0.6
0.47,1.63,0.57
0.49,1.68,0.57
0.47,1.72,0.59
0.4,1.73,0.59
0.38,1.7,0.57
0.46,1.64,0.57
0.58,1.6,0.57
0.67,1.54,0.57
0.7,1.44,0.58
0.66,1.41,0.6
-0.02,2.7,2.3
0.45,3.15,3.99
1.28,1.29,1.73
0.18,-0.19,-0.3
-0.09,0.15,0.27
0.63,1.03,0.38
0.47,1.27,1.13
0.82,1.29,1.03
0.34,1.24,0.64
0.17,1.2,0.24
0.19,1.01,-0.12
0.12,0.92,-0.27
0.12,0.89,-0.35
0.18,0.83,-0.4
0.19,0.79,-0.35
0.14,0.78,-0.21
0.15,0.8,-0.04
0.22,0.83,0.09
0.29,0.85,0.11
0.33,0.89,0.09
0.3,0.93,0.05
0.27,0.94,-0.02
0.24,0.95,-0.07
0.22,0.95,-0.12
0.21,0.95,-0.15
0.21,0.96,-0.18
0.22,0.95,-0.18
0.24,0.92,-0.18
0.29,0.92,-0.17
0.34,0.92,-0.16
0.37,0.9,-0.15
0.4,0.9,-0.14
0.41,0.88,-0.09
0.36,0.86,-0.07
0.34,0.86,-0.06
0.31,0.87,-0.06
0.29,0.89,-0.04
0.27,0.91,-0.02
0.26,0.92,0
0.25,0.93,0.03
0.27,0.93,0.04
0.28,0.93,0.05
0.28,0.93,0.06
0.29,0.93,0.07
0.28,0.93,0.08
0.27,0.92,0.08
0.28,0.93,0.09
0.29,0.94,0.1
0.29,0.94,0.12
0.29,0.94,0.13
0.29,0.95,0.14
0.29,0.95,0.15
0.29,0.96,0.16
0.29,0.96,0.17
0.29,0.96,0.18
0.3,0.96,0.19
0.29,0.96,0.21
0.29,0.97,0.23
0.3,0.98,0.31
0.2,1.06,0.92
0.19,1,0.96
0.06,1.01,0.84
-0.01,1,0.57
0.08,0.91,0.37
0.12,0.87,0.28
0.16,0.92,0.27
0.23,0.96,0.27
0.33,0.97,0.28
0.45,0.96,0.24
0.44,0.95,0.2
0.33,0.94,0.2
0.26,0.92,0.18
0.3,0.92,0.13
0.34,0.93,0.09
0.33,0.93,0.09
0.31,0.93,0.11
0.3,0.92,0.13
0.29,0.92,0.13
0.28,0.92,0.14
0.29,0.92,0.15
0.29,0.92,0.15
0.29,0.92,0.14
0.3,0.91,0.13
0.31,0.91,0.11
0.33,0.92,0.1
0.33,0.92,0.08
0.34,0.93,0.07
0.35,0.93,0.08
0.35,0.93,0.07
0.34,0.93,0.07
0.34,0.93,0.07
0.34,0.92,0.08
0.33,0.92,0.08
0.32,0.92,0.08
0.32,0.92,0.08
0.32,0.92,0.09
0.32,0.92,0.09
0.32,0.92,0.09
0.32,0.91,0.09
0.32,0.91,0.09
0.32,0.91,0.09
0.32,0.91,0.1
0.31,0.91,0.1
0.31,0.92,0.1
0.31,0.92,0.1
0.3,0.92,0.11
0.3,0.91,0.11
0.3,0.91,0.12
0.3,0.91,0.12
0.3,0.92,0.12
0.29,0.92,0.13
0.29,0.93,0.13
0.28,0.92,0.13
0.28,0.92,0.13
0.27,0.92,0.13
0.26,0.92,0.14
0.26,0.92,0.13
0.26,0.93,0.13
0.27,0.93,0.13
0.28,0.93,0.14
0.29,0.93,0.14
0.29,0.93,0.15
0.29,0.93,0.15
0.28,0.93,0.16
0.28,0.93,0.16
0.27,0.93,0.17
0.27,0.93,0.17
0.28,0.94,0.18
0.28,0.94,0.18
0.28,0.94,0.18
0.28,0.94,0.19
0.29,0.95,0.19
0.29,0.94,0.2
0.29,0.94,0.2
0.3,0.94,0.21
0.3,0.94,0.22
0.31,0.95,0.23
0.33,0.94,0.23
0.35,0.93,0.22
0.34,0.92,0.21
0.32,0.92,0.19
0.31,0.92,0.18
0.3,0.92,0.16
0.31,0.92,0.15
0.31,0.93,0.15
0.31,0.93,0.15
0.31,0.93,0.15
0.3,0.94,0.14
0.3,0.94,0.13
0.31,0.94,0.13
0.31,0.94,0.12
0.32,0.93,0.12
0.32,0.94,0.12
0.32,0.94,0.11
0.31,0.94,0.11
0.31,0.94,0.11
0.31,0.94,0.11
0.31,0.94,0.11
0.31,0.93,0.11
0.31,0.93,0.11
0.31,0.93,0.11
0.3,0.92,0.11
0.3,0.92,0.11
0.3,0.92,0.11
0.29,0.92,0.11
0.29,0.92,0.1
0.29,0.93,0.1
0.29,0.92,0.1
0.29,0.92,0.1
0.29,0.92,0.1
0.29,0.92,0.1
0.29,0.92,0.1
0.29,0.92,0.1
0.28,0.92,0.1
0.28,0.92,0.1
0.28,0.92,0.1
0.28,0.93,0.1
0.28,0.92,0.11
0.28,0.92,0.11
0.26,0.93,0.12
0.25,0.94,0.14
0.25,0.96,0.15
0.24,0.96,0.17
0.22,0.95,0.18
0.21,0.96,0.2
0.21,0.97,0.23
0.2,0.98,0.28
0.19,0.97,0.32
0.2,0.96,0.35
0.2,0.94,0.4
0.16,0.95,0.46
0.13,0.98,0.49
0.1,0.99,0.51
0.09,1.01,0.53
0.08,1.01,0.56
0.07,1.02,0.59
0.06,1.04,0.61
0.06,1.06,0.63
0.06,1.08,0.65
0.09,1.09,0.67
0.12,1.1,0.69
0.13,1.07,0.69
0.13,1.04,0.71
0.12,1.03,0.73
0.1,1.05,0.77
0.08,1.07,0.81
0.06,1.08,0.83
0.07,1.1,0.84
0.08,1.11,0.85
0.11,1.13,0.86
0.14,1.17,0.86
0.16,1.2,0.86
0.16,1.24,0.86
0.16,1.27,0.86
0.17,1.28,0.84
0.19,1.29,0.85
0.22,1.27,0.87
0.22,1.27,0.88
0.2,1.28,0.89
0.19,1.3,0.89
0.19,1.29,0.86
0.2,1.26,0.83
0.23,1.24,0.82
0.26,1.22,0.82
0.28,1.2,0.82
0.29,1.2,0.82
0.28,1.2,0.83
0.25,1.19,0.84
0.24,1.16,0.84
0.24,1.12,0.83
0.24,1.08,0.82
0.24,1.05,0.8
0.23,1.04,0.79
0.2,1.05,0.78
0.18,1.03,0.78
0.18,0.99,0.78
0.2,0.93,0.75
0.19,0.87,0.75
0.18,0.84,0.75
0.19,0.81,0.72
0.2,0.77,0.71
0.22,0.72,0.67
0.19,0.66,0.67
0.2,0.6,0.63
0.22,0.52,0.61
0.21,0.46,0.58
0.2,0.43,0.52
0.2,0.4,0.47
0.18,0.36,0.43
0.16,0.3,0.38
0.15,0.23,0.33
0.12,0.19,0.27
0.12,0.14,0.19
0.21,0.17,0.17
0.24,0.09,0.14
0.21,0.02,0.15
0.22,0.03,0.23
0.18,-0.02,0.3
0.13,-0.02,0.33
0.1,-0.06,0.34
0.06,-0.11,0.35
0.06,-0.1,0.37
0.1,-0.12,0.39
0.12,-0.18,0.4
0.14,-0.2,0.39
0.16,-0.17,0.41
0.15,-0.15,0.46
0.13,-0.17,0.55
0.14,-0.17,0.58
0.15,-0.18,0.59
0.15,-0.18,0.62
0.14,-0.16,0.67
0.12,-0.14,0.73
0.1,-0.13,0.79
0.08,-0.12,0.85
0.05,-0.15,0.88
0.05,-0.16,0.88
0.07,-0.16,0.86
0.08,-0.14,0.86
0.08,-0.12,0.88
0.07,-0.11,0.9
0.05,-0.11,0.94
0.04,-0.12,0.96
0.03,-0.12,0.98
0.03,-0.12,0.99
0.04,-0.1,0.99
0.05,-0.08,1
0.04,-0.06,1
0.05,-0.07,0.98
0.06,-0.08,0.95
0.07,-0.07,0.92
0.08,-0.08,0.91
0.09,-0.07,0.9
0.1,-0.04,0.88
0.11,-0.04,0.85
0.14,-0.04,0.8
0.15,-0.03,0.75
0.15,-0.03,0.7
0.17,-0.03,0.63
0.19,-0.02,0.57
0.2,0,0.52
0.21,0.01,0.47
0.2,0.05,0.43
0.18,0.09,0.42
0.17,0.1,0.38
0.17,0.11,0.31
0.19,0.13,0.25
0.18,0.16,0.17
0.16,0.18,0.11
0.11,0.21,0.1
0.08,0.25,0.15
0.13,0.27,0.22
0.19,0.31,0.29
0.22,0.37,0.31
0.23,0.43,0.26
0.24,0.49,0.16
0.25,0.58,0.08
0.26,0.67,0.04
0.21,0.76,0.12
0.14,0.87,0.42
0.23,0.9,0.43
0.27,0.71,0.32
0.3,0.84,0.27
0.24,1.13,0.24
0.22,1.13,0.09
0.3,1.25,0.05
0.32,1.39,0.13
0.29,1.51,0.32
0.27,1.55,0.49
0.3,1.53,0.52
0.34,1.52,0.45
0.35,1.56,0.38
0.39,1.64,0.31
0.45,1.74,0.24
0.46,1.84,0.25
0.39,1.89,0.37
0.29,1.86,0.54
0.24,1.8,0.64
0.31,1.78,0.62
0.36,1.78,0.53
0.37,1.78,0.47
0.45,1.8,0.4
0.51,1.86,0.36
0.51,1.89,0.37
0.5,1.91,0.38
0.49,1.92,2.23
0.35,3.31,3.99
1.95,1.74,1.98
0.31,-0.17,-0.43
0.43,0.27,0.07
0.89,1.33,0.78
1.09,1.4,0.75
0.83,1.3,0.96
0.19,1.27,0.71
0.27,1.19,0.16
0.2,0.95,-0.16
-0.07,0.84,-0.28
-0.18,0.82,-0.39
-0.09,0.75,-0.56
-0.06,0.67,-0.63
-0.02,0.68,-0.57
0.1,0.74,-0.44
0.24,0.74,-0.33
0.29,0.72,-0.25
0.22,0.78,-0.2
0.19,0.87,-0.19
0.19,0.93,-0.2
0.18,0.98,-0.23
0.17,1.02,-0.28
0.16,1.03,-0.32
0.16,1.04,-0.33
0.17,1.03,-0.31
0.19,1.01,-0.21
0.2,1.01,-0.13
0.21,0.99,-0.05
0.22,0.97,0.01
0.2,0.96,0.05
0.2,1.03,0.17
0,1.06,0.58
-0.26,1.09,1.38
0.02,1.01,1.59
0.33,0.92,0.97
0.28,0.94,0.43
0.3,0.86,0.18
0.42,0.91,0.11
0.48,0.99,0.11
0.43,1.03,0.13
0.3,1.08,0.14
0.18,1.07,0.12
0.12,1.04,0.07
0.12,1,0.03
0.13,0.98,0
0.16,0.97,-0.05
0.19,0.95,-0.05
0.23,0.94,-0.04
0.29,0.93,-0.05
0.34,0.95,0.02
0.31,0.99,0.14
0.26,0.97,0.35
0.11,0.97,0.41
0.09,0.97,0.4
0.09,0.95,0.38
0.06,0.91,0.32
0.16,0.91,0.23
0.26,0.94,0.21
0.24,0.93,0.2
0.28,0.91,0.16
0.33,0.91,0.14
0.34,0.9,0.12
0.34,0.89,0.11
0.34,0.89,0.11
0.33,0.88,0.11
0.32,0.86,0.11
0.33,0.84,0.12
0.31,0.81,0.13
0.3,0.79,0.15
0.29,0.77,0.16
0.29,0.77,0.17
0.3,0.77,0.18
0.32,0.78,0.18
0.33,0.8,0.19
0.36,0.81,0.19
0.38,0.82,0.18
0.41,0.83,0.19
0.42,0.85,0.2
0.42,0.85,0.21
0.42,0.85,0.21
0.42,0.86,0.21
0.43,0.86,0.21
0.44,0.85,0.21
0.45,0.86,0.23
0.48,0.87,0.26
0.51,0.88,0.29
0.53,0.89,0.31
0.56,0.9,0.31
0.56,0.91,0.3
0.54,0.93,0.3
0.52,0.92,0.31
0.5,0.91,0.3
0.47,0.91,0.3
0.47,0.91,0.28
0.47,0.89,0.27
0.43,0.87,0.33
0.4,0.9,0.42
0.44,1.07,0.42
0.59,1.3,0.29
0.63,1.36,0.14
0.5,1.27,0.01
0.39,1.18,-0.06
0.31,1.16,-0.07
0.28,1.01,-0.01
0.29,0.97,-0.01
0.21,0.97,0.01
0.11,0.97,0.03
0.05,0.94,0.01
0.02,0.93,-0.01
0.02,0.92,-0.03
0.04,0.92,-0.06
0.07,0.91,-0.1
0.13,0.91,-0.14
0.18,0.95,-0.17
0.21,1,-0.16
0.24,1.04,-0.17
0.27,1.05,-0.17
0.29,1.05,-0.16
0.33,1.04,-0.15
0.37,1.01,-0.14
0.41,0.97,-0.11
0.39,0.93,-0.08
0.39,0.91,-0.06
0.44,0.92,-0.01
0.47,0.93,0.06
0.48,0.93,0.11
0.49,0.92,0.14
0.46,0.9,0.15
0.43,0.89,0.16
0.41,0.9,0.18
0.41,0.89,0.18
0.45,0.88,0.19
0.5,0.87,0.21
0.51,0.86,0.21
0.53,0.83,0.19
0.54,0.81,0.19
0.53,0.82,0.21
0.53,0.83,0.22
0.58,0.82,0.2
0.61,0.79,0.2
0.59,0.76,0.2
0.58,0.73,0.19
0.56,0.7,0.2
0.53,0.67,0.21
0.53,0.64,0.21
0.57,0.62,0.2
0.64,0.6,0.19
0.69,0.59,0.16
0.73,0.58,0.13
0.77,0.59,0.14
0.82,0.57,0.14
0.81,0.55,0.16
0.79,0.55,0.2
0.77,0.56,0.22
0.72,0.54,0.23
0.66,0.53,0.24
0.61,0.54,0.25
0.6,0.54,0.3
0.58,0.55,0.37
0.59,0.55,0.4
0.58,0.54,0.42
0.56,0.55,0.42
0.5,0.55,0.41
0.46,0.55,0.39
0.5,0.56,0.39
0.54,0.57,0.41
0.58,0.56,0.41
0.58,0.57,0.43
0.55,0.6,0.47
0.51,0.6,0.49
0.5,0.6,0.46
0.49,0.59,0.45
0.47,0.58,0.47
0.48,0.56,0.5
0.48,0.54,0.54
0.46,0.54,0.57
0.45,0.55,0.56
0.47,0.56,0.55
0.47,0.58,0.55
0.47,0.6,0.55
0.48,0.61,0.56
0.45,0.61,0.63
0.37,0.55,0.63
0.38,0.5,0.6
0.39,0.47,0.58
0.41,0.5,0.59
0.41,0.56,0.63
0.36,0.6,0.69
0.31,0.62,0.74
0.28,0.59,0.77
0.29,0.58,0.76
0.31,0.6,0.73
0.33,0.62,0.72
0.32,0.68,0.78
0.29,0.74,0.88
0.3,0.72,0.92
0.3,0.68,0.91
0.27,0.65,0.89
0.23,0.64,0.87
0.2,0.62,0.85
0.19,0.58,0.84
0.16,0.53,0.83
0.15,0.52,0.83
0.16,0.54,0.85
0.16,0.55,0.86
0.16,0.55,0.87
0.17,0.55,0.88
0.19,0.57,0.83
0.22,0.55,0.79
0.22,0.54,0.78
0.22,0.53,0.79
0.24,0.54,0.82
0.25,0.55,0.87
0.27,0.56,0.9
0.29,0.56,0.91
0.29,0.55,0.9
0.27,0.53,0.88
0.24,0.5,0.86
0.21,0.45,0.84
0.21,0.45,0.87
0.23,0.45,0.9
0.26,0.41,0.92
0.27,0.39,0.94
0.27,0.36,0.95
0.26,0.35,0.95
0.26,0.34,0.95
0.28,0.31,0.94
0.3,0.27,0.93
0.29,0.27,0.94
0.31,0.31,0.96
0.37,0.32,0.94
0.41,0.34,0.95
0.41,0.38,1.02
0.37,0.43,1.23
0.33,0.23,1.17
0.35,0.11,1.04
0.39,0.09,0.96
0.41,0.13,0.92
0.4,0.14,0.93
0.38,0.1,0.92
0.35,0.07,0.91
0.32,0.06,0.91
0.32,0.08,0.92
0.34,0.1,0.97
0.34,0.06,0.97
0.32,0.03,0.95
0.32,0.07,0.94
0.35,0.06,0.94
0.38,0.04,0.95
0.33,0.07,0.97
0.23,0.05,0.98
0.14,0.05,0.98
0.1,0.11,0.99
0.13,0.15,0.98
0.17,0.12,0.96
0.22,0.09,0.99
0.24,0.08,1.02
0.21,0.07,1
0.19,0.07,0.99
0.2,0.07,0.92
0.11,0.05,0.91
0.13,0.09,0.96
0.15,0.08,1.01
0.19,0.07,1.04
0.23,0.09,1.04
0.25,0.08,1.02
0.25,0.04,0.98
0.24,0.02,0.94
0.25,0.02,0.91
0.3,0.03,0.94
0.31,0.03,0.98
0.31,0.02,0.96
0.32,0.05,0.94
0.35,0.08,0.93
0.39,0.09,0.94
0.43,0.1,0.94
0.48,0.1,0.93
0.49,0.1,0.92
0.47,0.1,0.89
0.44,0.09,0.89
0.42,0.07,0.91
0.42,0.11,0.92
0.4,0.13,0.94
0.37,0.11,0.95
0.37,0.11,0.96
0.36,0.09,0.93
0.33,0.1,0.94
0.33,0.11,0.94
0.33,0.11,0.94
0.34,0.11,0.94
0.38,0.14,0.94
0.39,0.14,0.93
0.39,0.12,0.92
0.42,0.12,0.92
0.4,0.1,0.91
0.4,0.09,0.91
0.4,0.09,0.92
0.39,0.08,0.93
0.4,0.08,0.93
0.41,0.07,0.92
0.44,0.07,0.91
0.45,0.06,0.9
0.46,0.05,0.89
0.47,0.06,0.9
0.46,0.06,0.91
0.43,0.07,0.91
0.42,0.07,0.91
0.42,0.07,0.91
0.42,0.07,0.9
