Acc_x,Acc_y,Acc_z
0.75,0.51,0.99
0.76,0.57,1
0.79,0.65,1.04
0.79,0.73,1.07
0.76,0.81,1.06
0.71,0.86,1.04
0.67,0.91,1.03
0.64,0.99,1.02
0.61,1.04,1.02
0.6,1.08,0.95
0.61,1.12,0.78
0.63,1.19,0.55
0.62,1.29,0.4
0.6,1.29,0.31
0.54,1.24,0.34
0.48,1.24,0.43
0.38,1.24,0.61
0.32,1.29,0.79
0.39,1.4,0.77
0.46,1.38,0.65
0.44,1.25,0.52
0.41,1.14,0.33
0.41,1.09,-0.02
0.51,0.97,-0.11
0.62,0.89,-0.12
0.69,0.82,-0.08
0.69,0.75,-0.02
0.62,0.69,0.04
0.55,0.63,0.1
0.49,0.58,0.16
0.43,0.52,0.21
0.37,0.47,0.25
0.34,0.43,0.25
0.29,0.39,0.21
0.26,0.35,0.17
0.23,0.33,0.16
0.17,0.33,0.21
0.21,0.34,0.24
0.28,0.32,0.21
0.3,0.3,0.18
0.29,0.3,0.16
0.27,0.32,0.15
0.26,0.35,0.13
0.26,0.39,0.11
0.27,0.42,0.1
0.27,0.45,0.08
0.28,0.49,0.08
0.28,0.53,0.06
0.27,0.58,0.03
0.27,0.69,0.02
0.29,0.75,0
0.32,0.81,-0.01
0.35,0.85,-0.02
0.37,0.91,-0.03
0.39,0.99,-0.02
0.4,1.05,-0.01
0.39,1.08,0.01
0.4,1.1,0.02
0.41,1.09,0.04
0.4,1.07,0.06
0.4,1.06,0.07
0.4,1.05,0.08
0.4,1.02,0.09
0.39,1,0.1
0.37,0.98,0.12
0.35,0.95,0.13
0.31,0.93,0.14
0.28,0.92,0.14
0.28,0.93,0.15
0.28,0.93,0.14
0.28,0.94,0.13
0.29,0.93,0.12
0.3,0.92,0.12
0.31,0.91,0.11
0.32,0.9,0.1
0.32,0.88,0.09
0.33,0.89,0.09
0.33,0.89,0.08
0.35,0.9,0.06
0.36,0.9,0.05
0.36,0.9,0.05
0.37,0.91,0.04
0.37,0.91,0.05
0.37,0.91,0.06
0.37,0.91,0.06
0.37,0.91,0.07
0.37,0.92,0.07
0.37,0.93,0.08
0.37,0.94,0.08
0.37,0.93,0.08
0.37,0.93,0.08
0.38,0.92,0.07
0.39,0.92,0.07
0.4,0.91,0.08
0.39,0.91,0.08
0.39,0.91,0.09
0.39,0.91,0.1
0.39,0.91,0.1
0.39,0.91,0.1
0.38,0.91,0.09
0.38,0.92,0.08
0.38,0.91,0.07
0.37,0.91,0.07
0.36,0.91,0.07
0.36,0.91,0.08
0.36,0.91,0.09
0.37,0.91,0.09
0.38,0.91,0.08
0.39,0.91,0.09
0.39,0.92,0.09
0.39,0.92,0.08
0.4,0.92,0.09
0.4,0.92,0.09
0.4,0.91,0.08
0.4,0.9,0.08
0.41,0.9,0.07
0.4,0.9,0.08
0.4,0.91,0.08
0.39,0.92,0.08
0.38,0.93,0.08
0.38,0.92,0.07
0.39,0.91,0.07
0.42,0.9,0.05
0.41,0.9,0.05
0.37,0.9,0.07
0.38,0.9,0.07
0.37,0.9,0.08
0.4,0.9,0.05
0.4,0.9,0.05
0.4,0.9,0.05
0.43,0.89,0.04
0.45,0.88,0.03
0.43,0.87,0.04
0.4,0.86,0.05
0.41,0.84,0.05
0.42,0.83,0.05
0.42,0.84,0.06
0.41,0.84,0.06
0.39,0.84,0.06
0.39,0.83,0.05
0.41,0.82,0.03
0.42,0.81,0.02
0.44,0.79,0
0.44,0.77,-0.01
0.41,0.75,0
0.39,0.75,0.01
0.4,0.75,0.01
0.4,0.73,0.01
0.38,0.71,0.03
0.36,0.69,0.06
0.33,0.65,0.07
0.33,0.62,0.07
0.34,0.6,0.06
0.34,0.56,0.07
0.37,0.54,0.07
0.37,0.53,0.09
0.35,0.53,0.11
0.32,0.52,0.12
0.32,0.5,0.14
0.33,0.5,0.15
0.35,0.51,0.16
0.38,0.52,0.15
0.42,0.53,0.14
0.48,0.54,0.14
0.49,0.55,0.17
0.46,0.59,0.21
0.43,0.62,0.24
0.42,0.64,0.27
0.44,0.67,0.3
0.48,0.69,0.33
0.52,0.72,0.36
0.56,0.75,0.38
0.62,0.8,0.39
0.6,0.8,0.42
0.54,0.77,0.44
0.54,0.77,0.46
0.53,0.75,0.47
0.55,0.74,0.47
0.59,0.74,0.49
0.62,0.76,0.59
0.69,0.78,0.66
0.7,0.8,0.71
0.69,0.81,0.73
0.67,0.8,0.75
0.64,0.79,0.77
0.64,0.78,0.77
0.65,0.76,0.76
0.66,0.74,0.74
0.67,0.72,0.74
0.68,0.72,0.76
0.68,0.72,0.78
0.67,0.72,0.78
0.66,0.72,0.79
0.62,0.71,0.78
0.59,0.69,0.76
0.58,0.69,0.75
0.57,0.7,0.75
0.57,0.73,0.76
0.62,0.75,0.81
0.74,0.79,0.94
0.9,0.86,1.09
0.99,0.86,1.17
0.97,0.78,1.16
0.85,0.68,1.08
0.74,0.57,0.92
0.64,0.47,0.63
0.46,0.32,0.55
0.44,0.29,0.54
0.46,0.27,0.56
0.49,0.25,0.6
0.5,0.24,0.67
0.5,0.24,0.74
0.51,0.24,0.81
0.53,0.25,0.87
0.55,0.26,0.9
0.56,0.26,0.91
0.56,0.26,0.9
0.56,0.26,0.88
0.56,0.26,0.84
0.58,0.26,0.8
0.6,0.27,0.77
0.6,0.28,0.76
0.61,0.29,0.76
0.61,0.31,0.75
0.6,0.32,0.75
0.59,0.34,0.75
0.58,0.36,0.75
0.57,0.38,0.74
0.56,0.4,0.73
0.54,0.43,0.73
0.53,0.45,0.73
0.53,0.47,0.7
0.54,0.5,0.69
0.54,0.51,0.69
0.54,0.51,0.69
0.53,0.52,0.71
0.52,0.52,0.72
0.5,0.51,0.73
0.48,0.49,0.74
0.48,0.48,0.74
0.48,0.46,0.74
0.48,0.45,0.73
0.49,0.44,0.73
0.51,0.44,0.72
0.53,0.44,0.7
0.53,0.43,0.7
0.54,0.43,0.69
0.54,0.43,0.7
0.55,0.43,0.7
0.55,0.43,0.71
0.55,0.44,0.71
0.56,0.44,0.71
0.56,0.44,0.71
0.56,0.44,0.71
0.56,0.45,0.71
0.56,0.45,0.71
0.57,0.46,0.7
0.57,0.46,0.68
0.56,0.46,0.69
0.56,0.46,0.69
0.56,0.45,0.7
0.56,0.45,0.7
0.56,0.45,0.7
0.55,0.45,0.7
0.55,0.45,0.7
0.56,0.45,0.7
0.56,0.44,0.7
0.56,0.44,0.69
0.56,0.44,0.69
0.57,0.43,0.69
0.57,0.43,0.7
0.57,0.43,0.69
0.57,0.42,0.7
0.57,0.42,0.7
0.58,0.41,0.7
0.58,0.41,0.7
0.59,0.4,0.69
0.59,0.39,0.68
0.57,0.38,0.68
0.55,0.37,0.67
0.54,0.36,0.67
0.53,0.36,0.67
0.54,0.35,0.66
0.54,0.35,0.68
0.57,0.35,0.68
0.58,0.35,0.67
0.58,0.34,0.66
0.58,0.34,0.65
0.58,0.34,0.64
0.57,0.35,0.65
0.57,0.36,0.65
0.57,0.37,0.66
0.59,0.39,0.69
0.65,0.42,0.75
0.74,0.46,0.82
0.83,0.51,0.89
0.87,0.53,0.9
0.82,0.53,0.84
0.73,0.52,0.75
0.67,0.52,0.65
0.65,0.51,0.59
0.7,0.52,0.59
0.75,0.56,0.65
0.77,0.58,0.7
0.78,0.57,0.71
0.8,0.53,0.69
0.83,0.49,0.69
0.84,0.45,0.68
0.82,0.43,0.67
0.82,0.44,0.68
0.76,0.55,0.69
0.69,0.64,0.7
0.64,0.74,0.7
0.62,0.84,0.68
0.62,0.94,0.63
0.61,1.02,0.57
0.59,1.11,0.51
0.56,1.22,0.4
0.54,1.33,0.27
0.53,1.37,0.21
0.55,1.39,0.21
0.59,1.47,0.24
0.61,1.52,0.26
0.59,1.54,0.3
0.6,1.58,0.32
0.58,1.62,0.34
0.52,1.6,0.33
0.45,1.5,0.28
0.34,1.37,0.21
0.24,1.24,0.16
0.17,1.13,0.14
0.11,1.04,0.14
0.11,0.96,0.13
0.08,0.88,0.12
0.02,0.81,0.12
0.01,0.76,0.13
0.05,0.68,0.19
0.06,0.64,0.23
0.08,0.6,0.28
0.13,0.59,0.36
0.16,0.58,0.42
0.18,0.56,0.44
0.2,0.52,0.4
0.22,0.5,0.3
0.26,0.49,0.15
0.31,0.46,0.03
0.31,0.43,-0.04
0.29,0.42,-0.08
0.31,0.43,-0.1
0.34,0.44,-0.1
0.36,0.48,-0.09
0.35,0.53,-0.08
0.33,0.56,-0.09
0.3,0.57,-0.12
0.27,0.59,-0.18
0.24,0.61,-0.22
0.2,0.63,-0.23
0.19,0.67,-0.23
0.18,0.72,-0.22
0.2,0.76,-0.2
0.24,0.79,-0.19
0.28,0.82,-0.17
0.3,0.88,-0.14
0.39,0.9,-0.13
0.44,0.9,-0.14
0.44,0.91,-0.14
0.43,0.9,-0.13
0.42,0.89,-0.1
0.4,0.9,-0.06
0.4,0.9,-0.02
0.4,0.91,0.02
0.38,0.92,0.07
0.36,0.94,0.13
0.36,0.96,0.16
0.35,0.97,0.19
0.31,0.98,0.22
0.28,0.98,0.25
0.27,0.97,0.26
0.26,0.97,0.25
0.28,0.96,0.22
0.3,0.95,0.17
0.3,0.95,0.12
0.3,0.96,0.08
0.29,0.96,0.06
0.27,0.97,0.05
0.27,0.97,0.04
0.27,0.96,0.03
0.27,0.95,0.02
0.27,0.95,0.01
0.24,0.95,0.01
0.24,0.95,0
0.25,0.94,0
0.23,0.94,0
0.22,0.94,0.01
0.21,0.95,0.01
0.2,0.94,0.01
0.22,0.93,0
0.23,0.93,0
0.23,0.94,0.01
0.25,0.94,0
0.25,0.95,-0.01
0.26,0.96,-0.01
0.26,0.96,-0.01
0.24,0.97,0
0.22,0.96,0.02
0.22,0.96,0.03
0.23,0.96,0.03
0.23,0.96,0.02
0.24,0.96,0.02
0.25,0.96,0.01
0.25,0.96,0.01
0.25,0.96,0.01
0.26,0.96,0.01
0.26,0.95,0.01
0.27,0.95,0.02
0.28,0.95,0.02
0.28,0.96,0.01
0.29,0.96,0.01
0.28,0.96,0
0.28,0.96,0
0.27,0.96,-0.01
0.27,0.95,0
0.28,0.95,0
0.28,0.94,0
0.28,0.94,0
0.28,0.94,0
0.29,0.94,0
0.3,0.95,0
0.3,0.95,0
0.29,0.96,-0.01
0.29,0.95,-0.01
0.28,0.95,-0.02
0.28,0.95,-0.02
0.28,0.95,-0.01
0.28,0.95,-0.01
0.28,0.95,-0.01
0.28,0.95,0
0.28,0.94,0.01
0.27,0.94,0.01
0.26,0.95,0.01
0.26,0.95,0
0.25,0.95,0
0.25,0.95,0
0.26,0.95,0
0.27,0.95,0
0.28,0.95,0
0.29,0.95,0
0.29,0.95,0.01
0.29,0.96,0
0.29,0.96,0
0.28,0.95,-0.01
0.28,0.95,-0.01
0.28,0.95,-0.01
0.29,0.94,0
0.28,0.94,0
0.28,0.94,0
0.28,0.94,0.01
0.28,0.95,0.01
0.28,0.95,0.01
0.28,0.95,0.01
0.28,0.95,0
0.28,0.95,0
0.28,0.95,-0.01
0.28,0.95,-0.01
0.28,0.95,0
0.27,0.96,0.01
0.27,0.96,0.02
0.26,0.96,0.02
0.27,0.95,0.03
0.26,0.95,0.02
0.25,0.95,0.03
0.26,0.95,0.02
0.26,0.95,0
0.26,0.96,-0.01
0.26,0.96,-0.02
0.26,0.97,-0.02
0.25,0.96,-0.02
0.27,0.95,-0.02
0.29,0.95,-0.01
0.3,0.95,0
0.28,0.94,0
0.31,0.94,-0.03
0.31,0.94,-0.04
0.3,0.96,-0.01
0.32,0.95,-0.02
0.31,0.94,-0.04
0.31,0.96,-0.04
0.32,0.96,-0.02
0.32,0.92,-0.01
0.31,0.9,-0.02
0.3,0.89,-0.02
0.29,0.89,-0.02
0.29,0.88,-0.03
0.31,0.84,-0.04
0.31,0.82,-0.04
0.31,0.78,-0.05
0.31,0.74,-0.06
0.31,0.7,-0.06
0.32,0.67,-0.07
0.35,0.63,-0.1
0.35,0.59,-0.12
0.31,0.55,-0.13
0.28,0.53,-0.13
0.29,0.52,-0.13
0.27,0.5,-0.1
0.27,0.49,-0.07
0.3,0.5,-0.04
0.28,0.49,0
0.26,0.48,0.03
0.27,0.48,0.02
0.28,0.48,0.03
0.22,0.49,0.05
0.17,0.51,0.08
0.16,0.52,0.1
0.16,0.53,0.14
0.15,0.55,0.18
0.15,0.58,0.22
0.17,0.63,0.3
0.22,0.69,0.4
0.33,0.75,0.4
0.41,0.76,0.39
0.45,0.77,0.37
0.47,0.78,0.36
0.46,0.79,0.38
0.45,0.83,0.41
0.48,0.88,0.46
0.54,0.94,0.55
0.61,1.02,0.63
0.68,1.07,0.68
0.73,1.1,0.7
0.73,1.1,0.69
0.7,1.06,0.63
0.68,1.02,0.54
0.66,0.99,0.47
0.65,0.97,0.43
0.63,0.96,0.44
0.61,0.97,0.48
0.59,0.97,0.52
0.63,0.98,0.54
0.69,1.01,0.57
0.76,1.02,0.57
0.81,1.01,0.58
0.81,1,0.59
0.8,0.97,0.6
0.8,0.96,0.65
0.77,0.96,0.67
0.78,0.96,0.67
0.79,0.97,0.66
0.8,0.98,0.64
0.81,0.98,0.63
0.82,0.98,0.6
0.79,0.95,0.57
0.7,0.89,0.57
0.6,0.78,0.59
0.55,0.67,0.58
0.54,0.59,0.57
0.52,0.53,0.59
0.5,0.47,0.63
0.48,0.43,0.66
0.47,0.41,0.67
0.46,0.39,0.68
0.44,0.38,0.71
0.43,0.38,0.72
0.43,0.38,0.71
0.44,0.38,0.7
0.44,0.4,0.7
0.44,0.43,0.71
0.44,0.45,0.72
0.45,0.47,0.74
0.46,0.49,0.74
0.47,0.51,0.72
0.5,0.52,0.71
0.52,0.53,0.69
0.53,0.54,0.67
0.55,0.54,0.66
0.56,0.55,0.66
0.56,0.55,0.67
0.55,0.55,0.69
0.54,0.55,0.72
0.53,0.55,0.73
0.51,0.54,0.72
0.5,0.52,0.72
0.5,0.51,0.71
0.49,0.5,0.69
0.48,0.49,0.68
0.48,0.49,0.67
0.49,0.5,0.67
0.51,0.51,0.67
0.52,0.52,0.68
0.52,0.52,0.69
0.52,0.53,0.69
0.53,0.54,0.67
0.53,0.54,0.66
0.53,0.54,0.65
0.53,0.54,0.64
0.52,0.54,0.64
0.52,0.54,0.64
0.53,0.53,0.65
0.53,0.53,0.66
0.53,0.52,0.67
0.52,0.51,0.68
0.52,0.51,0.68
0.51,0.5,0.68
0.51,0.5,0.67
0.52,0.5,0.67
0.52,0.5,0.65
0.53,0.51,0.65
0.54,0.52,0.65
0.55,0.52,0.64
0.54,0.53,0.65
0.54,0.53,0.65
0.53,0.53,0.66
0.53,0.53,0.66
0.54,0.53,0.67
0.54,0.54,0.66
0.53,0.54,0.66
0.53,0.54,0.66
0.54,0.54,0.66
0.55,0.54,0.66
0.55,0.53,0.66
0.55,0.53,0.66
0.54,0.53,0.66
0.54,0.53,0.66
0.54,0.52,0.65
0.53,0.52,0.65
0.53,0.52,0.65
0.54,0.53,0.65
0.54,0.52,0.65
0.54,0.52,0.66
0.54,0.52,0.66
0.54,0.52,0.65
0.55,0.51,0.64
0.55,0.51,0.64
0.55,0.51,0.64
0.55,0.51,0.65
0.54,0.51,0.66
0.54,0.51,0.67
0.55,0.51,0.68
0.55,0.51,0.69
0.56,0.5,0.68
0.56,0.49,0.68
0.57,0.48,0.67
0.58,0.48,0.66
0.58,0.49,0.66
0.58,0.49,0.66
0.57,0.48,0.65
0.57,0.48,0.64
0.57,0.48,0.64
0.57,0.47,0.63
0.57,0.47,0.62
0.56,0.46,0.6
0.55,0.45,0.58
0.55,0.44,0.57
0.55,0.44,0.58
0.56,0.44,0.58
0.57,0.45,0.6
0.58,0.45,0.61
0.58,0.45,0.61
0.57,0.45,0.63
0.58,0.45,0.65
0.59,0.45,0.66
0.63,0.47,0.69
0.7,0.51,0.73
0.75,0.55,0.77
0.76,0.58,0.8
0.73,0.58,0.79
0.68,0.55,0.73
0.63,0.53,0.67
0.59,0.51,0.61
0.61,0.51,0.59
0.66,0.54,0.6
0.72,0.59,0.62
0.74,0.61,0.61
0.72,0.6,0.57
0.74,0.6,0.58
0.77,0.58,0.66
0.79,0.58,0.68
0.76,0.59,0.69
0.72,0.63,0.67
0.7,0.71,0.69
0.68,0.81,0.71
0.65,0.9,0.67
0.62,1,0.62
0.57,1.08,0.57
0.54,1.18,0.53
0.54,1.27,0.48
0.57,1.35,0.41
0.59,1.4,0.35
0.58,1.42,0.33
0.58,1.45,0.32
0.55,1.45,0.31
0.49,1.45,0.32
0.45,1.47,0.36
0.44,1.46,0.43
0.45,1.45,0.49
0.42,1.43,0.53
0.39,1.37,0.54
0.36,1.28,0.51
0.33,1.18,0.47
0.31,1.1,0.45
0.3,1.04,0.43
0.27,0.94,0.36
0.24,0.9,0.31
0.19,0.82,0.24
0.15,0.74,0.19
0.16,0.68,0.16
0.19,0.62,0.14
0.22,0.56,0.13
0.25,0.5,0.15
0.25,0.44,0.18
0.22,0.4,0.18
0.22,0.39,0.13
0.23,0.36,0.07
0.2,0.32,0.02
0.2,0.32,-0.02
0.25,0.32,-0.08
0.29,0.31,-0.14
0.31,0.31,-0.18
0.31,0.33,-0.18
0.31,0.35,-0.17
0.29,0.37,-0.15
0.26,0.41,-0.13
0.24,0.45,-0.13
0.2,0.49,-0.12
0.18,0.53,-0.11
0.18,0.56,-0.12
0.2,0.61,-0.13
0.23,0.66,-0.13
0.27,0.77,-0.13
0.3,0.83,-0.1
0.32,0.9,-0.07
0.35,0.98,-0.04
0.37,1.04,0.01
0.37,1.08,0.06
0.38,1.09,0.09
0.42,1.09,0.1
0.46,1.09,0.11
0.51,1.06,0.11
0.53,1.03,0.12
0.51,1,0.15
0.47,0.97,0.17
0.44,0.93,0.17
0.42,0.91,0.15
0.4,0.91,0.12
0.36,0.9,0.09
0.32,0.91,0.07
0.3,0.92,0.05
0.3,0.92,0.02
0.28,0.92,0.01
0.27,0.92,-0.02
0.27,0.92,-0.05
0.26,0.92,-0.06
0.25,0.92,-0.07
0.24,0.92,-0.08
0.25,0.94,-0.07
0.27,0.95,-0.05
0.29,0.94,-0.04
0.31,0.94,-0.02
0.33,0.93,0
0.33,0.93,0.03
0.33,0.93,0.06
0.33,0.93,0.07
0.32,0.94,0.07
0.31,0.95,0.05
0.29,0.96,0.04
0.27,0.96,0.03
0.28,0.96,0.03
0.29,0.95,0.03
0.29,0.94,0.02
0.3,0.93,0.02
0.3,0.93,0.02
0.3,0.94,0.01
0.29,0.95,0.01
0.3,0.96,0
0.3,0.96,0
0.29,0.95,0.01
0.29,0.95,0.01
0.29,0.94,0.02
0.29,0.94,0.04
0.28,0.93,0.05
0.27,0.94,0.04
0.28,0.95,0.03
0.28,0.96,0.02
0.28,0.95,0.01
0.28,0.95,0.01
0.27,0.95,0.02
0.26,0.94,0.02
0.26,0.94,0.03
0.28,0.93,0.03
0.28,0.93,0.03
0.27,0.93,0.02
0.26,0.94,0.01
0.26,0.94,0
0.26,0.95,0
0.26,0.95,0
0.26,0.95,0
0.27,0.95,0.01
0.27,0.94,0.01
0.27,0.94,0.01
0.28,0.94,0
0.28,0.95,0
0.28,0.95,0
0.28,0.94,0
0.28,0.92,0
0.28,0.92,0
0.28,0.93,0
0.29,0.94,-0.01
0.28,0.95,-0.02
0.28,0.96,-0.02
0.27,0.96,-0.02
0.28,0.95,-0.02
0.29,0.95,-0.02
0.28,0.95,-0.01
0.28,0.96,0.01
0.31,0.96,0
0.29,0.96,0.01
0.29,0.97,0.02
0.3,0.96,0.01
0.29,0.95,0.01
0.26,0.95,0.02
0.25,0.95,0.02
0.23,0.94,0.02
0.24,0.94,0.02
0.25,0.94,0
0.25,0.95,-0.01
0.26,0.95,-0.02
0.26,0.94,-0.04
0.23,0.94,-0.04
0.22,0.94,-0.03
0.22,0.93,-0.05
0.24,0.93,-0.05
0.24,0.92,0
0.24,0.93,-0.01
0.24,0.94,-0.01
0.27,0.94,-0.01
0.3,0.94,-0.01
0.3,0.95,0
0.3,0.95,0
0.31,0.94,-0.02
0.31,0.94,-0.02
0.31,0.95,-0.02
0.31,0.95,-0.02
0.3,0.95,-0.02
0.3,0.96,-0.01
0.3,0.97,-0.02
0.3,0.96,-0.02
0.3,0.96,-0.02
0.31,0.95,-0.01
0.33,0.95,0
0.33,0.95,-0.01
0.33,0.95,-0.01
0.32,0.96,-0.01
0.32,0.96,0
0.32,0.96,0
0.3,0.95,0
0.29,0.95,0
0.29,0.94,0
0.29,0.94,0
0.28,0.94,0
0.28,0.95,-0.01
0.27,0.95,-0.01
0.26,0.96,-0.01
0.25,0.96,-0.01
0.25,0.96,-0.01
0.24,0.96,0
0.23,0.96,0.01
0.23,0.96,0.01
0.22,0.97,0.01
0.22,0.97,0.01
0.23,0.96,0.01
0.25,0.96,0.01
0.26,0.95,0.01
0.26,0.94,0
0.26,0.94,0
0.26,0.94,0
0.27,0.94,0
0.27,0.95,0
0.27,0.95,0
0.27,0.95,-0.01
0.27,0.95,-0.01
0.27,0.95,-0.01
0.27,0.95,-0.01
0.27,0.95,-0.01
0.27,0.95,-0.01
0.27,0.95,0.01
0.27,0.95,0.01
0.27,0.95,0.02
0.28,0.95,0.01
0.28,0.96,0.01
0.27,0.96,0
0.27,0.96,0
0.28,0.96,0
0.27,0.97,0
0.27,0.97,0
0.27,0.97,0
0.27,0.96,0
0.27,0.96,0
0.27,0.95,0.01
0.25,0.95,0.02
0.29,0.95,0
0.29,0.95,0
0.26,0.96,0.01
0.26,0.95,0.02
0.31,0.95,-0.01
0.32,0.96,0.01
0.32,0.96,0.02
0.36,0.94,-0.02
0.34,0.93,-0.06
0.31,0.94,-0.05
0.32,0.96,-0.03
0.31,0.93,-0.14
0.31,0.94,-0.13
0.36,0.95,-0.09
0.25,0.93,-0.04
0.27,0.92,-0.03
0.37,0.94,-0.04
0.3,0.93,-0.03
0.29,0.94,-0.02
0.32,0.94,-0.04
0.33,0.93,-0.05
0.31,0.93,-0.04
0.29,0.91,-0.03
0.3,0.9,-0.04
0.29,0.88,-0.03
0.27,0.87,-0.01
0.27,0.85,-0.01
0.27,0.84,-0.01
0.27,0.82,0
0.28,0.8,-0.01
0.3,0.77,-0.02
0.33,0.73,-0.04
0.34,0.69,-0.05
0.33,0.64,-0.06
0.3,0.6,-0.07
0.27,0.57,-0.08
0.26,0.54,-0.1
0.27,0.48,-0.11
0.3,0.45,-0.07
0.26,0.43,-0.03
0.24,0.41,0
0.23,0.39,0.03
0.21,0.38,0.05
0.17,0.38,0.08
0.15,0.4,0.13
0.15,0.42,0.16
0.16,0.43,0.19
0.2,0.44,0.18
0.27,0.47,0.17
0.3,0.49,0.18
0.31,0.52,0.2
0.36,0.59,0.18
0.41,0.67,0.16
0.45,0.78,0.23
0.42,0.85,0.31
0.41,0.9,0.33
0.47,0.95,0.36
0.51,1.01,0.43
0.54,1.07,0.53
0.6,1.14,0.65
0.66,1.21,0.75
0.71,1.24,0.76
0.78,1.2,0.65
0.76,1.06,0.43
0.71,1.04,0.38
0.68,1.04,0.38
0.62,1.05,0.4
0.54,1.03,0.43
0.46,1,0.45
0.44,0.99,0.47
0.45,0.99,0.5
0.49,0.99,0.51
0.51,0.98,0.52
0.54,0.96,0.54
0.58,0.96,0.56
0.63,0.95,0.58
0.66,0.94,0.59
0.66,0.93,0.61
0.65,0.91,0.61
0.67,0.91,0.6
0.72,0.95,0.64
0.76,1.01,0.68
0.79,1.06,0.69
0.79,1.08,0.67
0.78,1.09,0.62
0.76,1.08,0.58
0.71,1.06,0.57
0.6,0.98,0.61
0.52,0.86,0.65
0.52,0.75,0.67
0.52,0.57,0.68
0.52,0.49,0.67
0.49,0.43,0.66
0.5,0.4,0.62
0.51,0.38,0.58
0.51,0.34,0.56
0.52,0.33,0.56
0.52,0.34,0.57
0.51,0.34,0.59
0.5,0.36,0.61
0.47,0.38,0.64
0.46,0.4,0.67
0.47,0.42,0.69
0.48,0.44,0.71
0.49,0.45,0.71
0.51,0.47,0.71
0.55,0.49,0.7
0.58,0.51,0.69
0.61,0.52,0.69
0.64,0.53,0.69
0.67,0.54,0.69
0.67,0.53,0.69
0.67,0.52,0.69
0.66,0.51,0.69
0.64,0.51,0.68
0.61,0.5,0.68
0.55,0.47,0.68
0.53,0.47,0.69
0.5,0.46,0.69
0.48,0.45,0.69
0.47,0.45,0.69
0.47,0.45,0.68
0.48,0.45,0.68
0.49,0.45,0.69
0.5,0.45,0.69
0.52,0.45,0.7
0.53,0.45,0.71
0.54,0.45,0.71
0.55,0.45,0.7
0.56,0.44,0.7
0.58,0.44,0.69
0.59,0.44,0.68
0.6,0.45,0.66
0.62,0.45,0.63
0.63,0.46,0.62
0.63,0.47,0.61
0.62,0.48,0.6
0.6,0.49,0.6
0.59,0.49,0.6
0.58,0.49,0.61
0.58,0.5,0.62
0.57,0.51,0.63
0.57,0.51,0.64
0.57,0.51,0.64
0.56,0.5,0.63
0.55,0.5,0.62
0.56,0.5,0.62
0.56,0.5,0.62
0.57,0.49,0.62
0.58,0.49,0.62
0.6,0.49,0.63
0.61,0.48,0.63
0.62,0.48,0.64
0.63,0.49,0.64
0.62,0.48,0.63
0.61,0.48,0.63
0.61,0.48,0.64
0.6,0.48,0.64
0.6,0.47,0.64
0.61,0.47,0.65
0.61,0.47,0.66
0.61,0.46,0.66
0.61,0.45,0.65
0.61,0.44,0.63
0.61,0.44,0.62
0.61,0.44,0.61
0.61,0.45,0.61
0.62,0.45,0.62
0.63,0.46,0.63
0.65,0.46,0.63
0.65,0.46,0.64
0.66,0.46,0.64
0.67,0.46,0.63
0.7,0.48,0.64
0.77,0.54,0.69
0.86,0.59,0.77
0.91,0.62,0.83
0.91,0.61,0.86
0.86,0.56,0.82
0.74,0.48,0.69
0.62,0.42,0.55
0.62,0.4,0.48
0.79,0.44,0.54
0.97,0.51,0.66
1.03,0.54,0.72
0.96,0.58,0.71
0.87,0.65,0.67
0.81,0.74,0.65
0.75,0.8,0.62
0.65,0.84,0.59
0.55,0.9,0.57
0.5,0.97,0.58
0.46,1.07,0.59
0.42,1.18,0.55
0.41,1.45,0.47
0.42,1.53,0.44
0.46,1.61,0.38
0.44,1.61,0.33
0.39,1.59,0.29
0.34,1.59,0.26
0.33,1.57,0.24
0.33,1.52,0.23
0.3,1.44,0.23
0.29,1.33,0.23
0.3,1.24,0.19
0.26,1.14,0.17
0.18,1.04,0.15
0.18,0.96,0.12
0.23,0.88,0.09
0.26,0.8,0.05
0.29,0.72,0.01
0.33,0.66,-0.03
0.37,0.59,-0.04
0.39,0.52,-0.06
0.38,0.45,-0.08
0.39,0.4,-0.09
0.38,0.37,-0.09
0.37,0.35,-0.11
0.39,0.34,-0.16
0.38,0.34,-0.19
0.31,0.3,-0.22
0.29,0.31,-0.22
0.3,0.34,-0.19
0.32,0.38,-0.15
0.33,0.43,-0.09
0.29,0.47,-0.06
0.26,0.53,-0.03
0.21,0.58,0
0.16,0.64,0.02
0.12,0.69,0.03
0.11,0.74,0.05
0.13,0.78,0.05
0.16,0.82,0.04
0.19,0.86,0.02
0.22,0.89,0.01
0.25,0.93,0
0.28,0.96,-0.01
0.29,0.99,-0.02
0.3,1.01,-0.04
0.31,1.02,-0.05
0.31,1.02,-0.06
0.29,1.01,-0.04
0.29,1,-0.03
0.3,0.97,-0.02
0.32,0.95,-0.01
0.34,0.94,0
0.36,0.92,0
0.34,0.92,0
0.33,0.92,-0.01
0.32,0.92,-0.01
0.3,0.92,-0.01
0.29,0.92,-0.02
0.27,0.93,-0.02
0.25,0.94,0
0.24,0.95,0
0.23,0.95,0
0.22,0.96,0
0.21,0.97,0
0.2,0.98,0
0.19,0.98,0
0.18,0.98,0
0.18,0.97,0
0.18,0.96,0
0.18,0.95,-0.02
0.2,0.96,-0.04
0.19,0.97,-0.04
0.18,0.97,-0.04
0.19,0.97,-0.05
0.18,0.96,-0.04
0.17,0.95,-0.04
0.17,0.94,-0.05
0.17,0.93,-0.04
0.19,0.96,-0.04
0.2,0.96,-0.05
0.23,0.96,-0.04
0.26,0.95,-0.03
0.27,0.95,-0.04
0.27,0.94,-0.05
0.26,0.93,-0.04
0.28,0.93,-0.04
0.33,0.93,-0.05
0.33,0.92,-0.05
0.34,0.92,-0.05
0.36,0.91,-0.05
0.37,0.91,-0.05
0.37,0.92,-0.06
0.38,0.93,-0.07
0.37,0.95,-0.08
0.36,0.96,-0.09
0.35,0.96,-0.09
0.34,0.95,-0.09
0.36,0.95,-0.09
0.37,0.94,-0.1
0.37,0.93,-0.11
0.36,0.93,-0.1
0.34,0.94,-0.07
0.31,0.94,-0.03
0.28,0.94,-0.01
0.25,0.95,0.02
0.22,0.95,0.01
0.22,0.95,0
0.22,0.95,-0.01
0.22,0.96,-0.01
0.22,0.96,-0.01
0.22,0.97,-0.03
0.22,0.97,-0.04
0.22,0.96,-0.05
0.23,0.96,-0.05
0.23,0.96,-0.05
0.23,0.96,-0.04
0.23,0.96,-0.03
0.22,0.96,-0.03
0.22,0.96,-0.04
0.24,0.96,-0.04
0.25,0.96,-0.04
0.26,0.96,-0.03
0.27,0.95,-0.03
0.26,0.95,-0.02
0.25,0.95,-0.01
0.25,0.95,-0.01
0.25,0.95,-0.01
0.24,0.95,-0.02
0.23,0.96,-0.04
0.24,0.97,-0.05
0.26,0.98,-0.05
0.23,0.97,-0.05
0.22,0.96,-0.04
0.21,0.96,-0.03
0.21,0.96,-0.02
0.21,0.95,-0.01
0.21,0.95,-0.01
0.21,0.95,-0.02
0.22,0.95,-0.02
0.23,0.95,-0.03
0.24,0.95,-0.02
0.24,0.95,-0.02
0.24,0.95,-0.02
0.24,0.95,-0.02
0.24,0.95,-0.02
0.24,0.95,-0.02
0.24,0.96,-0.03
0.25,0.96,-0.03
0.24,0.95,-0.04
0.23,0.95,-0.05
0.24,0.94,-0.05
0.25,0.95,-0.04
0.25,0.95,-0.02
0.25,0.95,-0.01
0.26,0.95,-0.03
0.25,0.95,-0.03
0.24,0.94,-0.02
0.25,0.92,-0.01
0.25,0.93,-0.01
0.25,0.93,-0.01
0.26,0.94,-0.01
0.28,0.93,-0.03
0.29,0.92,-0.05
0.3,0.92,-0.05
0.31,0.92,-0.05
0.32,0.92,-0.05
0.32,0.93,-0.06
0.3,0.96,-0.05
0.29,0.97,-0.05
0.31,0.96,-0.05
0.31,0.97,-0.06
0.31,0.99,-0.06
0.33,0.99,-0.06
0.32,0.98,-0.05
0.3,0.99,-0.02
0.22,0.99,0.01
0.16,0.99,0.03
0.18,0.99,0.03
0.19,0.99,0.02
0.21,0.98,0.01
0.23,0.95,0
0.21,0.94,-0.02
0.22,0.94,-0.04
0.2,0.95,-0.02
0.18,0.97,-0.01
0.18,0.98,-0.01
0.17,0.99,-0.03
0.17,0.98,-0.04
0.18,0.97,-0.04
0.19,0.96,-0.03
0.2,0.95,-0.02
0.23,0.94,-0.01
0.25,0.93,0
0.26,0.93,0
0.27,0.92,-0.01
0.27,0.93,-0.01
0.28,0.93,-0.01
0.29,0.94,-0.01
0.29,0.94,0
0.29,0.94,-0.01
0.3,0.95,-0.01
0.29,0.95,-0.02
0.28,0.95,-0.02
0.27,0.96,-0.04
0.27,0.97,-0.05
0.27,0.97,-0.06
0.28,0.97,-0.05
0.27,0.97,-0.03
0.26,0.96,0.01
0.25,0.96,0.03
0.25,0.95,0.03
0.26,0.94,0.02
0.26,0.94,0
0.27,0.94,-0.02
0.27,0.94,-0.02
0.28,0.94,-0.02
0.3,0.94,-0.02
0.31,0.94,-0.02
0.3,0.94,-0.02
0.3,0.94,-0.02
0.3,0.94,-0.03
0.3,0.94,-0.03
0.29,0.95,-0.03
0.29,0.95,-0.02
0.28,0.94,-0.02
0.28,0.94,-0.02
0.29,0.94,-0.02
0.29,0.93,-0.02
0.3,0.94,-0.01
0.3,0.94,-0.02
0.29,0.94,-0.02
0.29,0.94,-0.02
0.29,0.94,-0.02
0.28,0.94,-0.02
0.28,0.94,-0.01
0.28,0.94,-0.01
0.28,0.94,-0.01
0.29,0.94,-0.01
0.29,0.94,-0.02
0.3,0.94,-0.03
0.3,0.94,-0.03
0.3,0.94,-0.03
0.3,0.94,-0.03
0.29,0.94,-0.03
0.3,0.95,-0.02
0.29,0.95,-0.01
0.28,0.95,0
0.27,0.95,-0.01
0.27,0.95,-0.02
0.28,0.96,-0.02
0.27,0.96,-0.01
0.27,0.95,-0.01
0.26,0.95,-0.01
0.26,0.95,-0.01
0.26,0.95,0
0.27,0.95,0
0.28,0.94,0
0.28,0.93,0
0.28,0.93,0
0.28,0.93,-0.02
0.29,0.93,-0.02
0.3,0.94,-0.02
0.3,0.95,-0.01
0.29,0.95,-0.01
0.29,0.95,-0.01
0.29,0.95,-0.01
0.3,0.95,-0.01
0.29,0.95,-0.01
0.28,0.96,-0.01
0.27,0.95,0
0.27,0.95,0
0.28,0.96,0
0.27,0.96,-0.01
0.27,0.96,0
0.27,0.95,0
0.27,0.95,0
0.28,0.96,0
0.29,0.96,-0.01
0.28,0.96,-0.01
0.28,0.97,-0.02
0.28,0.97,-0.02
0.27,0.97,-0.02
0.26,0.97,-0.01
0.25,0.96,-0.01
0.27,0.96,-0.01
0.3,0.95,-0.03
0.3,0.94,-0.05
0.26,0.93,-0.03
0.26,0.94,-0.03
0.25,0.94,-0.03
0.27,0.94,-0.03
0.32,0.95,-0.05
0.33,0.95,-0.07
0.3,0.94,-0.06
0.27,0.93,-0.04
0.26,0.93,-0.03
0.26,0.93,-0.01
0.24,0.93,0.01
0.25,0.92,0
0.26,0.91,-0.02
0.26,0.91,-0.01
0.26,0.9,0
0.27,0.88,-0.01
0.29,0.87,-0.01
0.3,0.85,-0.03
0.33,0.83,-0.05
0.34,0.81,-0.06
0.34,0.81,-0.04
0.32,0.8,-0.03
0.31,0.79,-0.03
0.33,0.77,-0.04
0.36,0.75,-0.05
0.37,0.73,-0.03
0.38,0.69,-0.06
0.44,0.69,-0.08
0.42,0.66,-0.09
0.37,0.63,-0.12
0.35,0.63,-0.13
0.33,0.63,-0.12
0.34,0.63,-0.12
0.37,0.61,-0.15
0.33,0.58,-0.16
0.3,0.57,-0.14
0.34,0.57,-0.13
0.34,0.56,-0.1
0.38,0.6,-0.04
0.44,0.62,0.01
0.42,0.62,0.07
0.38,0.64,0.1
0.36,0.65,0.11
0.32,0.66,0.14
0.29,0.66,0.2
0.31,0.68,0.27
0.35,0.71,0.33
0.38,0.74,0.35
0.4,0.75,0.33
0.38,0.76,0.35
0.4,0.79,0.38
0.44,0.81,0.41
0.46,0.82,0.43
0.51,0.81,0.4
0.54,0.82,0.37
0.55,0.84,0.36
0.55,0.88,0.37
0.56,0.91,0.38
0.56,0.89,0.39
0.59,0.89,0.41
0.63,0.92,0.44
0.64,0.94,0.48
0.66,0.96,0.52
0.69,0.99,0.54
0.7,0.99,0.52
0.68,0.97,0.49
0.67,0.96,0.48
0.7,0.99,0.51
0.73,1.02,0.54
0.72,1.02,0.58
0.69,0.99,0.59
0.68,0.95,0.58
0.7,0.91,0.58
0.76,0.92,0.58
0.83,0.96,0.58
0.86,0.98,0.58
0.82,0.98,0.6
0.79,0.99,0.63
0.76,0.96,0.63
0.72,0.93,0.64
0.63,0.86,0.69
0.55,0.77,0.73
0.52,0.68,0.71
0.53,0.6,0.67
0.57,0.54,0.63
0.61,0.48,0.6
0.62,0.45,0.6
0.62,0.41,0.61
0.58,0.38,0.63
0.53,0.36,0.66
0.5,0.34,0.68
0.46,0.34,0.7
0.45,0.34,0.7
0.45,0.33,0.68
0.47,0.34,0.66
0.5,0.35,0.65
0.53,0.36,0.66
0.56,0.37,0.68
0.58,0.39,0.7
0.6,0.41,0.73
0.62,0.42,0.74
0.64,0.43,0.74
0.64,0.45,0.73
0.64,0.46,0.72
0.62,0.48,0.71
0.6,0.49,0.7
0.59,0.48,0.69
0.58,0.48,0.67
0.57,0.48,0.66
0.56,0.47,0.65
0.57,0.47,0.64
0.57,0.46,0.63
0.56,0.47,0.65
0.55,0.47,0.66
0.53,0.48,0.67
0.51,0.48,0.68
0.51,0.49,0.69
0.51,0.49,0.69
0.52,0.49,0.69
0.53,0.49,0.69
0.54,0.49,0.69
0.56,0.49,0.68
0.56,0.49,0.67
0.57,0.49,0.66
0.58,0.49,0.65
0.59,0.49,0.63
0.61,0.49,0.62
0.63,0.49,0.62
0.64,0.48,0.62
0.64,0.48,0.62
0.63,0.48,0.63
0.61,0.49,0.63
0.59,0.49,0.64
0.58,0.49,0.64
0.57,0.49,0.64
0.57,0.5,0.64
0.58,0.5,0.64
0.59,0.5,0.64
0.59,0.5,0.64
0.59,0.5,0.64
0.59,0.5,0.65
0.59,0.49,0.65
0.58,0.49,0.65
0.58,0.49,0.65
0.58,0.49,0.65
0.57,0.49,0.65
0.56,0.49,0.66
0.58,0.49,0.66
0.59,0.49,0.64
0.61,0.5,0.63
0.62,0.49,0.62
0.62,0.49,0.63
0.62,0.5,0.62
0.62,0.5,0.62
0.63,0.5,0.62
0.62,0.5,0.62
0.61,0.5,0.62
0.6,0.49,0.62
0.6,0.49,0.61
0.6,0.49,0.61
0.6,0.49,0.61
0.62,0.49,0.61
0.62,0.49,0.61
0.63,0.5,0.61
0.63,0.5,0.62
0.63,0.5,0.63
0.63,0.5,0.63
0.62,0.49,0.63
0.61,0.49,0.63
0.6,0.49,0.63
0.6,0.48,0.63
0.6,0.48,0.62
0.6,0.48,0.62
0.6,0.48,0.62
0.61,0.49,0.62
0.61,0.49,0.62
0.6,0.49,0.63
0.6,0.5,0.63
0.6,0.5,0.63
0.6,0.5,0.63
0.6,0.5,0.63
0.6,0.5,0.63
0.6,0.5,0.63
0.61,0.5,0.63
0.61,0.5,0.62
0.61,0.5,0.62
0.62,0.5,0.62
0.62,0.5,0.62
0.62,0.5,0.62
0.62,0.49,0.62
0.62,0.49,0.63
0.61,0.49,0.63
0.61,0.48,0.62
0.61,0.47,0.62
0.61,0.47,0.62
0.62,0.47,0.62
0.62,0.47,0.62
0.62,0.48,0.62
0.62,0.48,0.62
0.62,0.48,0.63
0.62,0.48,0.63
0.61,0.49,0.63
0.61,0.49,0.63
0.61,0.49,0.63
0.6,0.48,0.63
0.61,0.48,0.63
0.61,0.49,0.62
0.61,0.48,0.62
0.61,0.49,0.62
0.62,0.49,0.63
0.62,0.49,0.63
0.62,0.5,0.63
0.62,0.49,0.63
0.61,0.49,0.62
0.61,0.49,0.62
0.61,0.49,0.62
0.61,0.49,0.62
0.61,0.49,0.62
0.62,0.49,0.62
0.62,0.48,0.63
0.62,0.48,0.63
0.62,0.48,0.63
0.62,0.48,0.63
0.62,0.48,0.63
0.61,0.48,0.62
0.61,0.48,0.62
0.61,0.48,0.62
0.61,0.48,0.62
0.61,0.48,0.62
0.61,0.48,0.63
0.62,0.49,0.63
0.62,0.49,0.63
0.63,0.49,0.63
0.62,0.49,0.63
0.62,0.49,0.63
0.61,0.49,0.62
0.61,0.49,0.61
0.61,0.5,0.61
0.62,0.5,0.61
0.62,0.5,0.61
0.62,0.5,0.61
0.62,0.49,0.61
0.61,0.49,0.61
0.61,0.48,0.61
0.61,0.48,0.61
0.61,0.47,0.62
0.61,0.46,0.62
0.62,0.46,0.63
0.62,0.45,0.63
0.62,0.45,0.63
0.62,0.45,0.63
0.62,0.45,0.63
0.62,0.45,0.63
0.62,0.45,0.63
0.62,0.46,0.64
0.62,0.46,0.64
0.62,0.47,0.64
0.61,0.46,0.64
0.6,0.46,0.64
0.6,0.46,0.65
0.6,0.46,0.65
0.6,0.46,0.64
0.62,0.45,0.63
0.62,0.45,0.62
0.62,0.45,0.61
0.62,0.44,0.6
0.63,0.44,0.6
0.63,0.44,0.61
0.63,0.44,0.61
0.62,0.43,0.61
0.62,0.42,0.61
0.62,0.42,0.61
0.63,0.42,0.62
0.64,0.42,0.62
0.64,0.43,0.62
0.65,0.43,0.63
0.68,0.43,0.63
0.72,0.43,0.63
0.74,0.44,0.65
0.77,0.46,0.69
0.81,0.5,0.74
0.83,0.52,0.76
0.83,0.53,0.78
0.82,0.53,0.77
0.76,0.49,0.71
0.68,0.48,0.66
0.64,0.49,0.65
0.63,0.49,0.69
0.82,0.54,0.74
0.93,0.55,0.75
0.95,0.55,0.72
0.94,0.6,0.73
0.91,0.69,0.75
0.88,0.8,0.76
0.81,0.89,0.72
0.76,0.98,0.6
0.69,1.1,0.51
0.65,1.22,0.48
0.72,1.33,0.43
0.77,1.4,0.4
0.75,1.44,0.38
0.69,1.47,0.39
0.63,1.48,0.4
0.58,1.48,0.42
0.54,1.49,0.43
0.49,1.47,0.44
0.45,1.45,0.45
0.43,1.43,0.46
0.41,1.37,0.44
0.37,1.27,0.39
0.32,1.16,0.32
0.29,1.05,0.25
0.29,0.95,0.22
0.27,0.79,0.19
0.27,0.69,0.18
0.23,0.59,0.18
0.15,0.49,0.17
0.11,0.4,0.13
0.11,0.32,0.08
0.11,0.26,0.04
0.11,0.2,0
0.11,0.17,-0.03
0.13,0.17,-0.04
0.16,0.18,-0.04
0.16,0.19,-0.06
0.16,0.22,-0.08
0.18,0.24,-0.11
0.19,0.27,-0.15
0.17,0.31,-0.18
0.14,0.35,-0.2
0.13,0.39,-0.24
0.14,0.44,-0.27
0.16,0.5,-0.29
0.18,0.57,-0.28
0.19,0.65,-0.25
0.22,0.72,-0.24
0.24,0.8,-0.23
0.26,0.87,-0.22
0.26,0.94,-0.2
0.27,1.02,-0.16
0.32,1.05,-0.14
0.32,1.07,-0.13
0.35,1.07,-0.13
0.4,1.07,-0.13
0.45,1.07,-0.14
0.5,1.04,-0.15
0.52,0.99,-0.14
0.51,0.96,-0.09
0.49,0.93,-0.01
0.46,0.92,0.1
0.43,0.93,0.23
0.42,0.94,0.33
0.43,0.97,0.36
0.43,0.99,0.35
0.39,1,0.32
0.37,1.01,0.27
0.36,1,0.22
0.36,0.99,0.16
0.35,0.99,0.11
0.31,0.99,0.08
0.27,0.99,0.05
0.26,1,0.02
0.26,1,-0.01
0.26,1,-0.03
0.25,0.99,-0.04
0.23,0.94,-0.04
0.21,0.92,-0.03
0.22,0.91,-0.03
0.23,0.9,-0.02
0.22,0.9,-0.01
0.21,0.92,-0.01
0.2,0.93,-0.01
0.2,0.94,-0.01
0.21,0.94,-0.02
0.2,0.94,-0.02
0.21,0.94,-0.02
0.21,0.95,-0.01
0.21,0.96,0
0.22,0.97,0
0.22,0.98,0
0.22,0.99,0
0.22,0.99,0
0.21,0.99,0
0.21,0.99,0.01
0.21,0.97,0.01
0.2,0.97,0.02
0.21,0.95,0.02
0.22,0.95,0.02
0.22,0.95,0.02
0.22,0.96,0.01
0.22,0.96,0.01
0.23,0.96,-0.01
0.24,0.95,-0.02
0.24,0.95,-0.02
0.24,0.95,-0.02
0.24,0.95,-0.01
0.24,0.96,-0.01
0.23,0.96,-0.01
0.23,0.96,-0.01
0.23,0.96,-0.01
0.23,0.95,-0.02
0.24,0.95,-0.02
0.24,0.95,-0.02
0.21,0.96,-0.01
0.21,0.97,0
0.21,0.97,0
0.21,0.96,-0.01
0.22,0.96,-0.01
0.22,0.96,-0.01
0.22,0.96,0
0.23,0.95,0.01
0.22,0.95,0.01
0.22,0.95,0.01
0.23,0.95,0
0.23,0.96,-0.01
0.23,0.97,-0.01
0.23,0.97,-0.01
0.22,0.96,-0.01
0.22,0.96,-0.01
0.22,0.96,-0.01
0.22,0.96,0
0.22,0.95,0.01
0.23,0.95,0.01
0.23,0.95,0.01
0.24,0.95,0
0.25,0.95,-0.01
0.25,0.96,-0.01
0.24,0.97,0
0.25,0.97,0
0.25,0.96,0
0.25,0.96,-0.01
0.26,0.96,0
0.26,0.95,0
0.26,0.94,0
0.26,0.94,0.01
0.26,0.95,0
0.26,0.95,-0.01
0.26,0.96,-0.01
0.25,0.96,-0.01
0.25,0.96,-0.01
0.24,0.96,-0.01
0.23,0.95,0
0.24,0.95,0.01
0.24,0.95,0.01
0.25,0.95,0.01
0.26,0.95,0
0.27,0.95,0
0.27,0.95,-0.01
0.26,0.96,-0.01
0.25,0.96,-0.01
0.25,0.96,0
0.24,0.95,0
0.24,0.95,0
0.24,0.95,0.01
0.24,0.95,0.01
0.25,0.95,0.01
0.26,0.95,0
0.26,0.95,0
0.26,0.96,-0.01
0.26,0.95,-0.01
0.25,0.95,-0.01
0.25,0.95,0
0.25,0.95,0
0.24,0.95,0
0.24,0.95,0
0.24,0.95,0
0.25,0.95,0
0.25,0.95,-0.01
0.25,0.95,-0.01
0.25,0.95,-0.01
0.26,0.95,-0.01
0.25,0.95,0
0.25,0.95,0
0.25,0.95,0
0.25,0.95,0
0.25,0.96,0
0.24,0.96,0
0.24,0.95,-0.01
0.24,0.95,-0.01
0.25,0.95,-0.01
0.25,0.95,-0.01
0.25,0.95,-0.01
0.25,0.95,-0.01
0.26,0.95,-0.01
0.26,0.95,-0.01
0.26,0.95,0
0.26,0.96,0
0.27,0.96,0
0.27,0.95,-0.01
0.27,0.95,-0.01
0.28,0.95,-0.02
0.27,0.95,-0.02
0.26,0.96,-0.02
0.26,0.97,-0.02
0.25,0.97,-0.02
0.26,0.97,-0.01
0.25,0.96,0.01
0.26,0.96,0
0.29,0.94,-0.01
0.28,0.94,-0.01
0.27,0.95,-0.01
0.28,0.95,-0.01
0.31,0.95,-0.03
0.33,0.96,-0.05
0.31,0.97,-0.03
0.29,0.97,-0.03
0.35,0.97,-0.05
0.33,0.96,-0.04
0.32,0.96,-0.03
0.35,0.96,-0.05
0.36,0.95,-0.07
0.4,0.95,-0.08
0.39,0.96,-0.08
0.38,0.95,-0.07
0.35,0.94,-0.03
0.3,0.94,0.01
0.28,0.93,0.03
0.28,0.9,0.04
0.3,0.86,0.03
0.31,0.81,0.02
0.32,0.77,-0.01
0.35,0.73,-0.11
0.39,0.63,-0.14
0.37,0.58,-0.15
0.41,0.55,-0.17
0.39,0.52,-0.17
0.33,0.47,-0.18
0.36,0.44,-0.21
0.32,0.42,-0.22
0.27,0.42,-0.22
0.25,0.41,-0.23
0.22,0.41,-0.22
0.18,0.42,-0.18
0.17,0.43,-0.13
0.14,0.46,-0.09
0.07,0.48,-0.03
0.08,0.49,0
0.11,0.49,0.01
0.11,0.51,0.04
0.12,0.54,0.09
0.16,0.58,0.17
0.19,0.62,0.27
0.23,0.66,0.33
0.27,0.72,0.34
0.39,0.82,0.39
0.51,0.91,0.51
0.5,0.92,0.66
0.5,0.92,0.77
0.71,1.01,0.85
0.76,1.03,0.85
0.78,1.01,0.78
0.71,0.98,0.69
0.6,0.97,0.61
0.57,0.94,0.54
0.57,0.9,0.51
0.58,0.92,0.54
0.66,0.94,0.59
0.76,0.96,0.61
0.83,0.94,0.61
0.84,0.93,0.61
0.81,0.92,0.61
0.78,0.91,0.6
0.76,0.91,0.62
0.73,0.91,0.67
0.75,0.93,0.75
0.81,0.96,0.82
0.88,0.97,0.86
0.91,0.95,0.83
0.91,0.93,0.75
0.92,0.91,0.66
0.94,0.88,0.6
0.92,0.86,0.58
0.88,0.85,0.57
0.83,0.82,0.58
0.74,0.62,0.64
0.55,0.51,0.64
0.51,0.43,0.66
0.49,0.37,0.67
0.49,0.32,0.67
0.49,0.28,0.67
0.49,0.25,0.65
0.49,0.24,0.65
0.48,0.24,0.68
0.48,0.25,0.72
0.46,0.26,0.75
0.45,0.28,0.78
0.45,0.3,0.8
0.48,0.32,0.8
0.51,0.34,0.8
0.55,0.37,0.78
0.6,0.41,0.74
0.66,0.44,0.71
0.7,0.47,0.68
0.71,0.5,0.66
0.7,0.52,0.65
0.69,0.52,0.64
0.66,0.51,0.64
0.64,0.51,0.64
0.62,0.5,0.64
0.61,0.49,0.64
0.6,0.47,0.64
0.6,0.46,0.64
0.6,0.46,0.63
0.6,0.46,0.63
0.6,0.46,0.62
0.59,0.46,0.62
0.59,0.46,0.61
0.59,0.46,0.61
0.58,0.46,0.63
0.58,0.45,0.63
0.59,0.45,0.62
0.62,0.46,0.62
0.63,0.46,0.63
0.65,0.45,0.64
0.66,0.45,0.65
0.66,0.45,0.65
0.66,0.44,0.64
0.66,0.44,0.64
0.66,0.43,0.64
0.65,0.43,0.64
0.64,0.43,0.64
0.63,0.42,0.65
0.62,0.42,0.65
0.62,0.42,0.66
0.63,0.42,0.66
0.63,0.43,0.65
0.63,0.44,0.64
0.61,0.45,0.65
0.61,0.45,0.65
0.61,0.45,0.64
0.61,0.45,0.64
0.62,0.45,0.64
0.62,0.45,0.64
0.62,0.45,0.65
0.63,0.45,0.65
0.63,0.45,0.64
0.63,0.45,0.64
0.63,0.45,0.64
0.63,0.45,0.63
0.63,0.45,0.63
0.63,0.45,0.62
0.63,0.45,0.62
0.63,0.46,0.61
0.64,0.46,0.61
0.64,0.46,0.61
0.65,0.46,0.6
0.65,0.46,0.6
0.65,0.46,0.61
0.65,0.47,0.62
0.66,0.47,0.61
0.66,0.47,0.61
0.66,0.47,0.6
0.67,0.46,0.6
0.66,0.46,0.6
0.65,0.46,0.6
0.64,0.46,0.61
0.64,0.46,0.61
0.65,0.46,0.61
0.65,0.46,0.61
0.65,0.46,0.62
0.65,0.46,0.62
0.65,0.46,0.62
0.66,0.46,0.62
0.66,0.46,0.62
0.65,0.46,0.62
0.65,0.46,0.62
0.64,0.46,0.62
0.64,0.46,0.62
0.63,0.46,0.62
0.63,0.46,0.61
0.64,0.46,0.62
0.64,0.46,0.62
0.64,0.46,0.61
0.65,0.46,0.62
0.65,0.46,0.62
0.65,0.47,0.62
0.66,0.47,0.62
0.66,0.47,0.61
0.65,0.46,0.61
0.63,0.46,0.61
0.64,0.46,0.61
0.65,0.46,0.6
0.66,0.46,0.6
0.66,0.46,0.6
0.66,0.47,0.6
0.66,0.47,0.61
0.66,0.47,0.61
0.65,0.47,0.61
0.65,0.46,0.6
0.65,0.46,0.6
0.65,0.47,0.6
0.65,0.47,0.6
0.65,0.47,0.59
0.66,0.47,0.6
0.66,0.47,0.6
0.66,0.47,0.6
0.66,0.47,0.61
0.66,0.47,0.61
0.65,0.47,0.6
0.66,0.47,0.6
0.66,0.47,0.6
0.65,0.47,0.6
0.65,0.47,0.6
0.65,0.47,0.6
0.65,0.47,0.6
0.65,0.47,0.6
0.66,0.47,0.6
0.68,0.47,0.6
0.67,0.47,0.59
0.66,0.47,0.59
0.65,0.47,0.59
0.64,0.47,0.6
0.64,0.47,0.6
0.66,0.47,0.59
0.65,0.46,0.59
0.65,0.46,0.6
0.66,0.46,0.6
0.66,0.46,0.6
0.66,0.45,0.6
0.65,0.45,0.6
0.65,0.45,0.6
0.65,0.44,0.61
0.64,0.43,0.61
0.64,0.43,0.6
0.64,0.42,0.61
0.61,0.41,0.62
0.6,0.4,0.61
0.6,0.38,0.6
0.6,0.38,0.59
0.61,0.38,0.6
0.64,0.39,0.62
0.69,0.42,0.63
0.7,0.44,0.63
0.69,0.45,0.61
0.68,0.45,0.58
0.67,0.44,0.55
0.66,0.43,0.52
0.67,0.43,0.5
0.7,0.45,0.52
0.74,0.48,0.57
0.77,0.51,0.61
0.79,0.56,0.65
0.82,0.6,0.7
0.84,0.63,0.76
0.79,0.61,0.78
0.71,0.57,0.77
0.65,0.53,0.74
0.62,0.5,0.7
0.64,0.52,0.68
0.67,0.51,0.63
0.7,0.49,0.59
0.79,0.49,0.6
0.88,0.5,0.61
0.92,0.5,0.61
0.93,0.52,0.61
0.91,0.56,0.62
0.86,0.62,0.63
0.82,0.78,0.59
0.78,0.85,0.53
0.74,0.92,0.48
0.73,1,0.45
0.72,1.09,0.43
0.67,1.17,0.44
0.58,1.25,0.43
0.52,1.33,0.38
0.47,1.38,0.33
0.46,1.39,0.32
0.54,1.45,0.31
0.6,1.53,0.31
0.63,1.56,0.3
0.6,1.55,0.27
0.52,1.55,0.26
0.41,1.51,0.25
0.35,1.44,0.24
0.33,1.36,0.2
0.29,1.27,0.16
0.22,1.15,0.12
0.21,1.05,0.09
0.27,0.96,0.07
0.33,0.88,0.05
0.36,0.8,0.03
0.37,0.71,0.01
0.36,0.63,-0.02
0.33,0.49,-0.05
0.14,0.42,-0.04
0.07,0.35,-0.02
0.06,0.3,-0.01
0.1,0.26,-0.03
0.15,0.23,-0.06
0.2,0.23,-0.08
0.23,0.22,-0.11
0.24,0.22,-0.13
0.22,0.22,-0.14
0.22,0.25,-0.16
0.23,0.29,-0.18
0.23,0.35,-0.19
0.22,0.4,-0.19
0.22,0.45,-0.2
0.23,0.52,-0.22
0.25,0.6,-0.22
0.26,0.67,-0.22
0.26,0.73,-0.21
0.26,0.81,-0.2
0.27,0.89,-0.2
0.27,0.96,-0.19
0.28,1.03,-0.18
0.28,1.08,-0.17
0.29,1.12,-0.15
0.29,1.14,-0.13
0.31,1.09,-0.09
0.33,1.05,-0.06
0.35,1.01,-0.04
0.37,0.98,-0.02
0.38,0.95,0.01
0.37,0.93,0.04
0.36,0.92,0.06
0.35,0.92,0.09
0.32,0.93,0.12
0.3,0.94,0.14
0.27,0.95,0.15
0.24,0.95,0.15
0.21,0.96,0.15
0.19,0.96,0.14
0.19,0.96,0.12
0.19,0.97,0.09
0.19,0.97,0.07
0.2,0.98,0.04
0.2,0.99,0.01
0.21,0.99,0
0.21,0.99,-0.01
0.21,0.99,-0.02
0.2,0.98,-0.03
0.19,0.97,-0.03
0.19,0.96,-0.03
0.19,0.96,-0.04
0.2,0.96,-0.06
0.2,0.97,-0.07
0.2,0.97,-0.07
0.2,0.97,-0.07
0.19,0.96,-0.06
0.18,0.96,-0.05
0.16,0.95,-0.04
0.15,0.95,-0.04
0.14,0.96,-0.04
0.14,0.96,-0.03
0.14,0.96,-0.03
0.14,0.96,-0.03
0.15,0.96,-0.03
0.14,0.96,-0.02
0.14,0.96,-0.02
0.14,0.97,0
0.13,0.97,0.01
0.14,0.98,0.02
0.15,0.98,0.01
0.16,0.98,0.01
0.17,0.98,0
0.18,0.97,-0.01
0.18,0.97,-0.01
0.18,0.96,-0.01
0.18,0.96,0
0.19,0.96,0.01
0.2,0.97,0
0.21,0.98,-0.01
0.21,0.98,-0.02
0.21,0.97,-0.03
0.21,0.97,-0.03
0.21,0.97,-0.03
0.22,0.96,-0.02
0.21,0.96,-0.01
0.21,0.96,-0.01
0.21,0.96,-0.01
0.2,0.96,-0.01
0.2,0.96,-0.01
0.2,0.96,-0.02
0.19,0.96,-0.03
0.2,0.96,-0.03
0.22,0.96,-0.03
0.21,0.96,-0.02
0.2,0.96,-0.01
0.19,0.96,-0.01
0.18,0.97,0
0.18,0.98,0.01
0.18,0.98,0
0.18,0.98,0
0.19,0.97,-0.01
0.19,0.96,-0.01
0.21,0.96,-0.01
0.21,0.96,0.01
0.2,0.96,0.01
0.19,0.97,0.01
0.19,0.97,0
0.19,0.97,-0.01
0.19,0.97,-0.01
0.19,0.96,-0.01
0.2,0.96,-0.01
0.22,0.96,-0.01
0.23,0.96,-0.01
0.23,0.96,-0.01
0.23,0.96,-0.02
0.22,0.96,-0.02
0.22,0.96,-0.02
0.21,0.95,-0.01
0.2,0.95,0
0.2,0.95,0.01
0.2,0.95,0.02
0.2,0.96,0.02
0.2,0.96,0.01
0.21,0.97,0.01
0.21,0.97,0
0.21,0.97,-0.01
0.21,0.96,-0.01
0.21,0.96,0
0.2,0.96,0
0.21,0.96,0
0.2,0.96,0
0.19,0.96,0
0.19,0.96,0
0.2,0.96,-0.01
0.2,0.96,-0.01
0.21,0.96,-0.01
0.21,0.96,-0.01
0.21,0.96,-0.01
0.21,0.96,-0.01
0.21,0.96,0
0.21,0.96,0
0.21,0.95,0
0.21,0.95,0
0.21,0.96,0
0.2,0.96,0
0.2,0.96,0
0.2,0.96,0
0.21,0.96,0
0.21,0.96,0
0.21,0.96,0
0.22,0.96,0
0.22,0.96,-0.01
0.23,0.96,-0.01
0.22,0.96,-0.01
0.22,0.97,-0.01
0.22,0.97,-0.01
0.22,0.95,-0.01
0.22,0.96,-0.01
0.22,0.96,0
0.23,0.96,0
0.23,0.95,0
0.23,0.95,0
0.23,0.96,0
0.22,0.96,0
0.22,0.96,-0.01
0.22,0.96,-0.01
0.22,0.96,-0.01
0.22,0.96,0
0.22,0.96,-0.01
0.22,0.96,0
0.21,0.96,0
0.21,0.96,-0.01
0.21,0.96,-0.01
0.21,0.96,-0.01
0.21,0.96,-0.01
0.21,0.96,-0.01
0.22,0.96,0
0.22,0.96,0
0.22,0.96,0
0.23,0.96,0
0.23,0.96,-0.01
0.23,0.96,-0.01
0.23,0.96,0
0.23,0.96,0
0.23,0.96,0
0.23,0.96,0.01
0.23,0.96,0.01
0.23,0.96,0.01
0.23,0.96,0
0.23,0.97,0
0.23,0.97,-0.01
0.23,0.96,-0.01
0.23,0.96,-0.01
0.23,0.96,-0.01
0.23,0.96,-0.01
0.23,0.96,-0.01
0.24,0.96,0
0.24,0.95,0
0.25,0.95,0
0.25,0.95,0
0.25,0.95,0
0.25,0.95,0
0.25,0.95,0
0.24,0.95,0
0.24,0.95,0
0.24,0.95,0
0.24,0.95,0
0.24,0.95,0.01
0.24,0.95,0.01
0.25,0.96,0.01
0.25,0.96,0
0.25,0.96,0
0.25,0.96,-0.01
0.25,0.97,-0.01
0.25,0.96,-0.01
0.26,0.96,-0.01
0.26,0.96,0
0.25,0.96,0.01
0.26,0.96,0.02
0.25,0.97,0.01
0.24,0.98,0.01
0.24,0.98,0.01
0.23,0.98,0
0.23,0.98,-0.01
0.24,0.98,-0.01
0.25,0.97,0
0.27,0.96,-0.01
0.29,0.96,-0.01
0.3,0.95,-0.02
0.31,0.95,-0.02
0.31,0.95,-0.02
0.29,0.94,0
0.3,0.94,0
0.3,0.95,0.01
0.26,0.96,0.03
0.28,0.97,0.02
0.32,0.98,-0.01
0.38,0.97,-0.06
0.43,0.95,-0.09
0.44,0.94,-0.08
0.41,0.92,-0.05
0.36,0.91,-0.02
0.32,0.91,0.01
0.29,0.91,0.03
0.26,0.89,0.03
0.26,0.86,0.03
0.28,0.83,0.02
0.31,0.78,0
0.34,0.75,-0.05
0.38,0.71,-0.1
0.39,0.68,-0.11
0.36,0.65,-0.11
0.31,0.61,-0.13
0.3,0.56,-0.14
0.3,0.52,-0.15
0.29,0.5,-0.14
0.29,0.5,-0.11
0.25,0.49,-0.07
0.22,0.5,-0.03
0.22,0.49,-0.01
0.21,0.46,0.03
0.17,0.45,0.06
0.2,0.44,0.07
0.24,0.45,0.05
0.33,0.49,0.03
0.37,0.53,0.03
0.34,0.54,0.05
0.29,0.57,0.09
0.3,0.6,0.12
0.32,0.62,0.14
0.32,0.63,0.17
0.31,0.67,0.2
0.36,0.72,0.22
0.41,0.74,0.24
0.4,0.78,0.31
0.45,0.84,0.34
0.51,0.88,0.35
0.51,0.93,0.39
0.49,0.98,0.41
0.5,1.01,0.44
0.46,1.02,0.53
0.44,1.07,0.63
0.54,1.12,0.68
0.66,1.14,0.68
0.73,1.15,0.67
0.73,1.14,0.65
0.72,1.11,0.57
0.66,1.09,0.54
0.65,1.06,0.51
0.63,1.02,0.48
0.58,0.98,0.45
0.57,0.95,0.43
0.57,0.93,0.43
0.6,0.92,0.44
0.64,0.91,0.47
0.67,0.92,0.54
0.7,0.93,0.62
0.73,0.97,0.72
0.73,1.03,0.82
0.7,1.06,0.9
0.64,1.06,0.94
0.59,1.05,0.91
0.57,1.01,0.84
0.56,0.94,0.79
0.53,0.85,0.77
0.57,0.76,0.74
0.62,0.67,0.71
0.64,0.58,0.7
0.62,0.51,0.7
0.6,0.45,0.7
0.59,0.37,0.69
0.56,0.31,0.69
0.5,0.25,0.69
0.46,0.24,0.68
0.46,0.23,0.67
0.44,0.23,0.67
0.44,0.24,0.67
0.45,0.24,0.68
0.47,0.25,0.69
0.49,0.26,0.72
0.51,0.28,0.74
0.54,0.3,0.77
0.57,0.32,0.78
0.61,0.34,0.79
0.66,0.36,0.79
0.69,0.38,0.78
0.71,0.41,0.74
0.71,0.43,0.71
0.7,0.46,0.68
0.68,0.49,0.67
0.66,0.49,0.67
0.62,0.5,0.66
0.59,0.5,0.66
0.55,0.5,0.66
0.53,0.51,0.66
0.52,0.51,0.66
0.52,0.52,0.67
0.51,0.52,0.67
0.51,0.53,0.67
0.5,0.53,0.67
0.49,0.53,0.67
0.5,0.52,0.68
0.5,0.51,0.67
0.52,0.5,0.67
0.53,0.5,0.67
0.54,0.49,0.68
0.55,0.49,0.68
0.56,0.48,0.68
0.57,0.47,0.69
0.57,0.47,0.69
0.57,0.47,0.68
0.57,0.46,0.68
0.57,0.46,0.67
0.56,0.46,0.67
0.56,0.47,0.67
0.56,0.47,0.67
0.57,0.48,0.66
0.57,0.48,0.66
0.57,0.49,0.67
0.56,0.49,0.67
0.55,0.48,0.68
0.55,0.48,0.68
0.55,0.48,0.68
0.55,0.48,0.69
0.56,0.48,0.68
0.57,0.47,0.67
0.57,0.46,0.66
0.58,0.47,0.66
0.58,0.47,0.66
0.58,0.47,0.66
0.58,0.47,0.66
0.58,0.47,0.66
0.58,0.48,0.66
0.58,0.48,0.65
0.58,0.49,0.65
0.59,0.49,0.65
0.59,0.49,0.65
0.59,0.49,0.65
0.59,0.48,0.65
0.59,0.48,0.65
0.58,0.48,0.65
0.58,0.48,0.65
0.58,0.48,0.65
0.58,0.48,0.65
0.58,0.48,0.65
0.59,0.48,0.65
0.59,0.49,0.64
0.6,0.49,0.64
0.6,0.49,0.64
0.6,0.5,0.63
0.59,0.5,0.63
0.57,0.49,0.65
0.58,0.5,0.65
0.6,0.51,0.64
0.6,0.51,0.64
0.6,0.51,0.64
0.61,0.5,0.63
0.6,0.5,0.63
0.6,0.5,0.63
0.6,0.5,0.62
0.6,0.51,0.63
0.6,0.51,0.63
0.6,0.51,0.63
0.6,0.51,0.63
0.59,0.51,0.63
0.58,0.5,0.63
0.58,0.5,0.63
0.59,0.51,0.63
0.6,0.51,0.62
0.6,0.51,0.62
0.6,0.5,0.62
0.6,0.5,0.62
0.61,0.5,0.63
0.61,0.5,0.63
0.61,0.5,0.63
0.61,0.5,0.63
0.6,0.5,0.63
0.61,0.5,0.63
0.6,0.5,0.62
0.61,0.49,0.62
0.61,0.49,0.62
0.62,0.5,0.62
0.63,0.49,0.62
0.62,0.5,0.62
0.62,0.49,0.62
0.61,0.49,0.62
0.6,0.49,0.63
0.61,0.49,0.63
0.61,0.49,0.62
0.61,0.49,0.61
0.61,0.49,0.6
0.62,0.49,0.6
0.62,0.5,0.61
0.63,0.5,0.61
0.63,0.5,0.62
0.62,0.49,0.62
0.61,0.49,0.62
0.61,0.49,0.62
0.61,0.49,0.61
0.6,0.48,0.62
0.59,0.48,0.63
0.6,0.47,0.63
0.62,0.47,0.62
0.62,0.47,0.62
0.62,0.47,0.63
0.61,0.46,0.62
0.6,0.45,0.62
0.58,0.44,0.61
0.57,0.43,0.62
0.58,0.42,0.62
0.61,0.42,0.62
0.63,0.43,0.64
0.64,0.44,0.65
0.66,0.45,0.66
0.66,0.45,0.66
0.65,0.45,0.65
0.64,0.45,0.63
0.63,0.45,0.62
0.61,0.45,0.61
0.61,0.46,0.6
0.62,0.47,0.6
0.63,0.48,0.61
0.64,0.49,0.61
0.64,0.49,0.6
0.63,0.51,0.6
0.64,0.52,0.6
0.63,0.51,0.59
0.62,0.52,0.57
0.61,0.53,0.55
0.63,0.52,0.56
0.63,0.53,0.56
0.64,0.53,0.55
0.64,0.53,0.55
0.66,0.53,0.55
0.66,0.54,0.55
0.66,0.54,0.55
0.66,0.55,0.53
0.66,0.56,0.52
0.66,0.56,0.52
0.64,0.55,0.53
0.64,0.55,0.52
0.65,0.57,0.52
0.65,0.58,0.52
0.65,0.58,0.51
0.65,0.57,0.52
0.65,0.57,0.53
0.63,0.56,0.53
0.64,0.57,0.53
0.64,0.57,0.52
0.63,0.57,0.52
0.63,0.57,0.52
0.62,0.58,0.52
0.63,0.57,0.52
0.63,0.58,0.52
0.64,0.58,0.53
0.64,0.58,0.54
0.64,0.58,0.54
0.63,0.57,0.54
0.63,0.57,0.54
0.63,0.56,0.55
0.62,0.56,0.54
0.61,0.56,0.54
0.62,0.56,0.54
0.63,0.56,0.54
0.62,0.56,0.54
0.63,0.56,0.53
0.62,0.56,0.54
0.62,0.55,0.54
0.62,0.55,0.54
0.62,0.56,0.54
0.62,0.55,0.55
0.63,0.55,0.55
0.63,0.55,0.55
0.63,0.55,0.54
0.63,0.56,0.52
0.63,0.56,0.53
0.63,0.55,0.53
0.63,0.55,0.52
0.63,0.56,0.51
0.63,0.56,0.51
0.62,0.55,0.51
0.63,0.56,0.51
0.65,0.55,0.49
0.67,0.56,0.5
0.7,0.57,0.52
0.74,0.59,0.57
0.79,0.62,0.62
0.81,0.64,0.67
0.8,0.66,0.71
0.77,0.68,0.73
0.69,0.64,0.69
0.6,0.59,0.59
0.58,0.56,0.54
0.62,0.57,0.55
0.7,0.58,0.6
0.77,0.56,0.62
0.79,0.53,0.58
0.79,0.53,0.54
0.8,0.57,0.54
0.82,0.63,0.54
0.84,0.7,0.53
0.85,0.75,0.5
0.85,0.81,0.49
0.82,0.88,0.48
0.78,0.94,0.49
0.73,1,0.49
0.7,1.06,0.43
0.65,1.25,0.34
0.63,1.31,0.32
0.65,1.33,0.32
0.63,1.35,0.34
0.58,1.37,0.36
0.5,1.39,0.36
0.43,1.4,0.37
0.42,1.4,0.35
0.45,1.36,0.3
0.44,1.33,0.24
0.4,1.32,0.2
0.37,1.29,0.16
0.36,1.26,0.12
0.36,1.21,0.11
0.37,1.17,0.1
0.4,1.12,0.06
0.39,1.05,0.02
0.38,0.97,-0.01
0.38,0.9,-0.02
0.36,0.83,0
0.34,0.76,0.01
0.34,0.7,0.02
0.34,0.64,0.01
0.34,0.58,0
0.33,0.52,-0.01
0.3,0.47,0
0.27,0.38,0
0.23,0.34,-0.03
0.23,0.3,-0.07
0.2,0.28,-0.08
0.18,0.28,-0.08
0.18,0.3,-0.07
0.18,0.32,-0.06
0.17,0.35,-0.05
0.17,0.38,-0.06
0.18,0.42,-0.08
0.18,0.46,-0.1
0.18,0.5,-0.12
0.18,0.52,-0.14
0.19,0.55,-0.15
0.19,0.59,-0.16
0.19,0.65,-0.16
0.19,0.72,-0.16
0.22,0.79,-0.17
0.25,0.86,-0.18
0.26,0.92,-0.19
0.3,0.97,-0.2
0.32,1.02,-0.2
0.32,1.05,-0.2
0.35,1.07,-0.2
0.38,1.05,-0.18
0.4,1.04,-0.15
0.41,1.03,-0.06
0.41,0.96,-0.03
0.38,0.95,0.01
0.36,0.95,0.04
0.35,0.95,0.07
0.34,0.95,0.09
0.32,0.96,0.12
0.31,0.96,0.14
0.31,0.96,0.15
0.3,0.96,0.16
0.28,0.96,0.16
0.26,0.96,0.15
0.23,0.97,0.13
0.22,0.97,0.1
0.21,0.97,0.06
0.19,0.98,0.03
0.19,0.99,0
0.19,0.99,-0.01
0.19,0.99,-0.02
0.2,0.99,-0.02
0.19,1,-0.02
0.19,1,-0.02
0.18,0.99,-0.03
0.18,0.98,-0.04
0.17,0.98,-0.05
0.17,0.98,-0.05
0.16,0.98,-0.06
0.15,0.98,-0.07
0.15,0.97,-0.07
0.14,0.97,-0.07
0.14,0.97,-0.07
0.13,0.97,-0.07
0.13,0.97,-0.08
0.13,0.97,-0.07
0.13,0.97,-0.07
0.13,0.96,-0.06
0.13,0.96,-0.06
0.13,0.96,-0.06
0.14,0.96,-0.06
0.16,0.96,-0.06
0.17,0.96,-0.05
0.18,0.96,-0.05
0.19,0.97,-0.04
0.2,0.97,-0.03
0.2,0.97,-0.02
0.21,0.97,-0.03
0.21,0.97,-0.03
0.21,0.97,-0.04
0.21,0.97,-0.05
0.21,0.96,-0.05
0.21,0.96,-0.04
0.22,0.96,-0.04
0.22,0.96,-0.02
0.22,0.96,-0.01
0.21,0.95,-0.01
0.21,0.95,-0.02
0.21,0.95,-0.03
0.21,0.96,-0.04
0.21,0.97,-0.04
0.22,0.97,-0.04
0.22,0.98,-0.04
0.22,0.98,-0.04
0.21,0.98,-0.03
0.21,0.97,-0.03
0.21,0.97,-0.02
0.22,0.96,-0.02
0.22,0.96,-0.02
0.22,0.97,-0.02
0.21,0.97,-0.03
0.21,0.98,-0.03
0.21,0.97,-0.04
0.21,0.97,-0.04
0.21,0.97,-0.03
0.21,0.97,-0.02
0.22,0.96,-0.02
0.22,0.96,-0.01
0.22,0.96,-0.01
0.21,0.96,-0.01
0.21,0.96,-0.01
0.22,0.95,-0.02
0.23,0.95,-0.03
0.23,0.95,-0.04
0.25,0.94,-0.04
0.26,0.93,-0.03
0.26,0.91,-0.03
0.26,0.9,-0.03
0.26,0.88,-0.03
0.26,0.88,-0.03
0.26,0.86,-0.04
0.27,0.85,-0.04
0.27,0.85,-0.06
0.29,0.84,-0.07
0.3,0.83,-0.07
0.31,0.82,-0.09
0.33,0.81,-0.1
0.34,0.8,-0.11
0.37,0.79,-0.12
0.39,0.77,-0.12
0.39,0.75,-0.1
0.34,0.73,-0.06
0.27,0.71,-0.02
0.25,0.69,0
0.34,0.68,-0.03
0.43,0.67,-0.04
0.47,0.67,-0.12
0.46,0.65,-0.15
0.44,0.63,-0.17
0.43,0.62,-0.18
0.46,0.62,-0.18
0.5,0.6,-0.19
0.51,0.59,-0.22
0.52,0.57,-0.24
0.49,0.56,-0.23
0.46,0.54,-0.21
0.44,0.55,-0.18
0.43,0.56,-0.16
0.44,0.54,-0.13
0.42,0.55,-0.08
0.48,0.54,-0.06
0.46,0.53,-0.02
0.48,0.54,0.03
0.57,0.56,0.04
0.52,0.59,0.07
0.48,0.63,0.11
0.53,0.65,0.12
0.48,0.68,0.16
0.41,0.74,0.24
0.45,0.77,0.3
0.5,0.79,0.34
0.49,0.83,0.39
0.51,0.85,0.53
0.53,0.86,0.62
0.61,0.92,0.65
0.64,0.99,0.68
0.65,1.04,0.71
0.67,1.06,0.73
0.65,1.02,0.74
0.63,0.99,0.76
0.63,0.98,0.75
0.65,0.97,0.72
0.65,0.97,0.69
0.65,0.98,0.66
0.65,0.99,0.66
0.63,0.99,0.67
0.66,1.01,0.69
0.75,1.03,0.75
0.81,1.05,0.84
0.83,1.07,0.92
0.77,1.06,0.97
0.67,1.02,0.97
0.56,0.97,0.91
0.48,0.89,0.8
0.44,0.79,0.69
0.46,0.69,0.58
0.52,0.61,0.53
0.57,0.55,0.53
0.59,0.5,0.57
0.56,0.42,0.67
0.53,0.39,0.7
0.49,0.37,0.72
0.47,0.35,0.73
0.47,0.33,0.72
0.47,0.32,0.72
0.48,0.33,0.75
0.5,0.33,0.78
0.5,0.34,0.82
0.5,0.35,0.85
0.49,0.37,0.85
0.48,0.38,0.84
0.46,0.4,0.83
0.46,0.42,0.82
0.48,0.44,0.8
0.51,0.45,0.78
0.53,0.47,0.76
0.54,0.48,0.74
0.55,0.49,0.73
0.55,0.51,0.73
0.56,0.52,0.73
0.56,0.53,0.72
0.55,0.53,0.72
0.53,0.51,0.71
0.5,0.49,0.7
0.49,0.47,0.68
0.49,0.45,0.68
0.51,0.45,0.68
0.53,0.45,0.68
0.55,0.45,0.69
0.57,0.45,0.71
0.58,0.45,0.71
0.58,0.45,0.72
0.58,0.45,0.72
0.58,0.44,0.73
0.56,0.44,0.73
0.55,0.43,0.72
0.53,0.42,0.71
0.52,0.41,0.7
0.52,0.4,0.68
0.51,0.4,0.67
0.51,0.39,0.66
0.52,0.39,0.66
0.54,0.38,0.67
0.55,0.38,0.69
0.57,0.38,0.71
0.57,0.39,0.73
0.58,0.4,0.74
0.58,0.41,0.74
0.57,0.42,0.73
0.56,0.43,0.72
0.55,0.44,0.72
0.55,0.45,0.71
0.54,0.45,0.71
0.54,0.46,0.71
0.55,0.48,0.73
0.56,0.5,0.73
0.58,0.52,0.75
0.6,0.55,0.78
0.6,0.59,0.82
0.57,0.62,0.85
0.52,0.63,0.87
0.51,0.68,0.88
0.64,0.76,0.91
0.81,0.85,0.97
0.95,0.88,1.02
0.98,0.84,1.06
0.91,0.78,1.1
0.85,0.73,1.16
0.79,0.69,1.23
0.79,0.63,1.3
0.87,0.57,1.34
0.94,0.51,1.32
0.93,0.43,1.23
0.88,0.31,1.08
0.86,0.2,0.98
0.86,0.1,1.01
0.79,0.04,1.06
0.68,-0.03,1.07
0.4,-0.17,1.05
