Acc_x,Acc_y,Acc_z
0.36,0.17,0.94
0.37,0.16,0.92
0.38,0.16,0.9
0.4,0.15,0.9
0.42,0.14,0.92
0.44,0.13,0.94
0.44,0.12,0.94
0.42,0.1,0.93
0.39,0.09,0.92
0.37,0.08,0.91
0.38,0.08,0.9
0.41,0.07,0.88
0.43,0.05,0.85
0.46,0,0.75
0.52,-0.02,0.71
0.53,-0.06,0.7
0.52,-0.08,0.71
0.5,-0.1,0.78
0.46,-0.1,0.84
0.42,-0.12,0.86
0.4,-0.15,0.83
0.37,-0.19,0.77
0.4,-0.22,0.71
0.46,-0.25,0.66
0.5,-0.29,0.65
0.49,-0.32,0.68
0.46,-0.32,0.74
0.42,-0.32,0.81
0.4,-0.3,0.86
0.39,-0.31,0.85
0.36,-0.34,0.78
0.36,-0.38,0.71
0.36,-0.41,0.68
0.37,-0.42,0.68
0.37,-0.42,0.69
0.39,-0.4,0.71
0.43,-0.38,0.74
0.46,-0.37,0.77
0.46,-0.37,0.81
0.45,-0.39,0.8
0.41,-0.41,0.77
0.39,-0.4,0.74
0.41,-0.37,0.74
0.44,-0.34,0.74
0.46,-0.33,0.73
0.45,-0.33,0.71
0.43,-0.33,0.7
0.41,-0.33,0.71
0.39,-0.33,0.72
0.36,-0.33,0.73
0.35,-0.3,0.75
0.36,-0.25,0.77
0.4,-0.19,0.79
0.48,-0.14,0.82
0.53,-0.1,0.84
0.53,-0.07,0.84
0.5,-0.06,0.81
0.48,-0.05,0.76
0.45,-0.05,0.72
0.46,-0.04,0.71
0.5,-0.01,0.74
0.57,0.05,0.81
0.68,0.14,0.91
0.78,0.22,1
0.8,0.25,1.04
0.77,0.24,0.94
0.7,0.25,0.86
0.7,0.25,0.82
0.74,0.29,0.84
0.8,0.38,0.93
0.85,0.48,1.01
0.9,0.55,1.06
0.93,0.59,1.02
0.92,0.65,0.92
0.92,0.72,0.77
0.96,0.77,0.65
0.97,0.88,0.6
0.88,0.97,0.53
0.91,1.04,0.62
0.96,1.14,0.89
0.99,1.26,1.03
1.12,1.32,1.03
1.06,1.33,1.12
0.87,1.4,1.29
0.77,1.44,1.32
0.82,1.41,1.1
0.94,1.38,0.72
1,1.36,0.33
0.91,1.3,0.09
0.88,1.28,0.01
0.87,1.22,-0.02
0.72,1.17,0.13
0.52,1.09,0.14
0.51,1.03,0.15
0.41,0.96,0.18
0.32,0.91,0.2
0.33,0.91,0.23
0.39,0.91,0.25
0.43,0.89,0.23
0.45,0.85,0.22
0.43,0.79,0.18
0.4,0.72,0.12
0.37,0.66,0.08
0.36,0.61,0.06
0.32,0.55,0.05
0.28,0.47,0.06
0.28,0.39,0.06
0.29,0.34,0.05
0.29,0.31,0.04
0.27,0.28,0.05
0.22,0.25,0.06
0.18,0.23,0.06
0.16,0.23,0.06
0.17,0.23,0.07
0.18,0.25,0.05
0.2,0.27,0.03
0.24,0.29,-0.01
0.28,0.32,-0.07
0.32,0.37,-0.08
0.31,0.41,-0.09
0.29,0.45,-0.1
0.29,0.49,-0.1
0.29,0.54,-0.1
0.27,0.6,-0.1
0.27,0.68,-0.12
0.28,0.78,-0.14
0.32,0.9,-0.15
0.37,1.04,-0.15
0.4,1.17,-0.15
0.42,1.25,-0.12
0.41,1.28,-0.06
0.41,1.27,0.01
0.41,1.23,0.09
0.41,1.19,0.17
0.4,1.13,0.23
0.4,1.07,0.29
0.41,1.02,0.31
0.41,0.97,0.28
0.38,0.92,0.23
0.36,0.88,0.18
0.34,0.87,0.15
0.32,0.88,0.13
0.31,0.89,0.12
0.29,0.9,0.1
0.22,0.93,0.09
0.18,0.94,0.08
0.17,0.95,0.06
0.18,0.95,0.04
0.19,0.96,0.01
0.21,0.96,-0.01
0.24,0.96,-0.01
0.27,0.95,-0.02
0.29,0.96,-0.03
0.3,0.97,-0.02
0.32,0.97,-0.02
0.33,0.96,-0.01
0.34,0.95,0
0.33,0.94,0.01
0.31,0.92,0.03
0.3,0.91,0.04
0.27,0.91,0.07
0.25,0.92,0.09
0.24,0.92,0.09
0.25,0.92,0.09
0.26,0.93,0.09
0.26,0.94,0.08
0.28,0.94,0.06
0.31,0.94,0.04
0.34,0.96,0.03
0.34,0.96,0.03
0.35,0.94,0.03
0.35,0.94,0.03
0.35,0.94,0.03
0.33,0.94,0.04
0.32,0.95,0.04
0.31,0.96,0.05
0.3,0.96,0.05
0.29,0.96,0.04
0.28,0.95,0.04
0.28,0.94,0.04
0.27,0.93,0.04
0.28,0.93,0.05
0.3,0.93,0.05
0.33,0.93,0.06
0.35,0.93,0.07
0.36,0.93,0.07
0.38,0.93,0.08
0.38,0.93,0.08
0.37,0.92,0.08
0.37,0.93,0.09
0.36,0.93,0.1
0.35,0.93,0.1
0.34,0.93,0.1
0.35,0.94,0.1
0.39,0.94,0.08
0.41,0.94,0.07
0.41,0.94,0.06
0.43,0.92,0.06
0.43,0.91,0.08
0.42,0.9,0.1
0.42,0.89,0.1
0.44,0.88,0.1
0.45,0.88,0.08
0.47,0.89,0.06
0.51,0.9,0.04
0.52,0.91,0.03
0.51,0.91,0.04
0.5,0.89,0.04
0.49,0.88,0.05
0.47,0.87,0.05
0.47,0.84,0.03
0.51,0.79,-0.04
0.57,0.75,-0.12
0.61,0.68,-0.19
0.61,0.63,-0.21
0.55,0.61,-0.19
0.47,0.61,-0.15
0.39,0.58,-0.1
0.31,0.55,-0.05
0.27,0.54,0.01
0.24,0.51,0.06
0.22,0.47,0.07
0.24,0.42,0
0.24,0.4,-0.03
0.21,0.41,-0.04
0.17,0.42,-0.02
0.14,0.43,0.03
0.12,0.44,0.1
0.11,0.47,0.16
0.12,0.5,0.21
0.13,0.53,0.24
0.15,0.56,0.26
0.17,0.59,0.28
0.17,0.6,0.31
0.24,0.63,0.32
0.27,0.65,0.33
0.25,0.67,0.35
0.27,0.72,0.38
0.27,0.74,0.43
0.26,0.77,0.48
0.31,0.81,0.51
0.38,0.83,0.51
0.44,0.86,0.5
0.49,0.86,0.47
0.51,0.84,0.45
0.52,0.87,0.47
0.55,0.92,0.52
0.61,1.01,0.63
0.7,1.16,0.94
0.69,1.15,1
0.62,1.1,0.94
0.57,1.03,0.81
0.53,0.95,0.67
0.49,0.9,0.58
0.48,0.88,0.56
0.51,0.9,0.61
0.56,0.95,0.71
0.61,0.98,0.8
0.64,0.98,0.84
0.69,0.96,0.83
0.79,0.95,0.81
0.94,0.98,0.81
1.03,1.02,0.84
1,1.05,0.87
0.88,1.08,0.86
0.76,1.08,0.8
0.7,1.06,0.74
0.7,1.03,0.68
0.74,0.99,0.62
0.74,0.88,0.6
0.69,0.72,0.6
0.61,0.57,0.6
0.55,0.44,0.59
0.51,0.33,0.59
0.47,0.27,0.62
0.38,0.18,0.66
0.36,0.18,0.7
0.36,0.19,0.75
0.39,0.21,0.79
0.44,0.24,0.82
0.5,0.26,0.83
0.55,0.29,0.82
0.59,0.32,0.8
0.61,0.35,0.77
0.6,0.39,0.74
0.59,0.42,0.71
0.57,0.45,0.69
0.55,0.48,0.68
0.53,0.52,0.68
0.52,0.55,0.69
0.49,0.56,0.7
0.47,0.56,0.71
0.44,0.55,0.72
0.42,0.54,0.74
0.38,0.52,0.75
0.35,0.5,0.76
0.34,0.49,0.76
0.34,0.49,0.76
0.33,0.48,0.76
0.32,0.48,0.75
0.33,0.48,0.73
0.41,0.51,0.71
0.45,0.52,0.69
0.49,0.53,0.68
0.52,0.54,0.67
0.54,0.55,0.67
0.55,0.55,0.68
0.55,0.55,0.69
0.54,0.54,0.7
0.53,0.53,0.7
0.52,0.52,0.69
0.52,0.51,0.69
0.52,0.51,0.69
0.53,0.5,0.68
0.54,0.49,0.67
0.54,0.49,0.67
0.55,0.49,0.67
0.54,0.49,0.67
0.54,0.49,0.67
0.53,0.5,0.68
0.53,0.5,0.68
0.52,0.5,0.66
0.52,0.5,0.66
0.51,0.5,0.67
0.52,0.5,0.67
0.53,0.5,0.68
0.55,0.51,0.68
0.57,0.52,0.69
0.57,0.52,0.69
0.56,0.51,0.68
0.55,0.5,0.65
0.54,0.48,0.64
0.54,0.46,0.63
0.53,0.45,0.63
0.54,0.45,0.66
0.55,0.45,0.69
0.56,0.45,0.71
0.56,0.45,0.72
0.55,0.43,0.72
0.53,0.42,0.71
0.51,0.4,0.69
0.5,0.38,0.69
0.5,0.37,0.69
0.52,0.37,0.7
0.55,0.37,0.73
0.58,0.36,0.75
0.61,0.37,0.76
0.65,0.39,0.78
0.69,0.38,0.79
0.71,0.4,0.79
0.7,0.42,0.8
0.69,0.45,0.82
0.69,0.48,0.79
0.69,0.48,0.76
0.69,0.47,0.73
0.69,0.47,0.71
0.71,0.46,0.65
0.71,0.48,0.59
0.74,0.53,0.61
0.79,0.58,0.67
0.81,0.64,0.68
0.76,0.71,0.69
0.71,0.81,0.75
0.63,0.91,0.78
0.5,1,0.73
0.46,1.11,0.67
0.55,1.21,0.59
0.63,1.29,0.51
0.64,1.39,0.49
0.64,1.5,0.47
0.66,1.6,0.38
0.66,1.69,0.3
0.65,1.77,0.26
0.63,1.81,0.24
0.59,1.79,0.25
0.54,1.73,0.27
0.49,1.66,0.26
0.42,1.55,0.22
0.34,1.4,0.19
0.24,1.15,0.22
0.25,1.05,0.25
0.26,0.96,0.31
0.25,0.87,0.36
0.21,0.77,0.41
0.17,0.69,0.46
0.13,0.61,0.48
0.09,0.52,0.46
0.04,0.41,0.41
-0.02,0.31,0.36
-0.03,0.25,0.3
0.04,0.22,0.24
0.13,0.21,0.17
0.21,0.22,0.11
0.29,0.23,0.07
0.34,0.25,0.03
0.33,0.27,-0.02
0.3,0.27,-0.07
0.24,0.29,-0.13
0.19,0.34,-0.19
0.19,0.39,-0.24
0.19,0.42,-0.3
0.16,0.46,-0.35
0.11,0.52,-0.38
0.08,0.58,-0.38
0.07,0.63,-0.36
0.05,0.73,-0.31
0.07,0.8,-0.28
0.11,0.87,-0.24
0.13,0.94,-0.2
0.15,0.99,-0.15
0.16,1.05,-0.1
0.19,1.1,-0.06
0.25,1.12,-0.01
0.26,1.13,0.04
0.27,1.14,0.09
0.32,1.12,0.11
0.38,1.08,0.12
0.41,1.06,0.11
0.43,1.02,0.08
0.43,1,0.07
0.38,0.99,0.08
0.35,0.97,0.07
0.34,0.96,0.06
0.31,0.94,0.07
0.29,0.91,0.07
0.26,0.89,0.08
0.23,0.87,0.07
0.2,0.87,0.06
0.18,0.87,0.05
0.15,0.88,0.03
0.13,0.89,0.02
0.12,0.93,0.01
0.12,0.93,0.01
0.14,0.94,0
0.16,0.95,-0.02
0.17,0.96,-0.03
0.17,0.97,-0.05
0.16,0.99,-0.07
0.15,1.02,-0.08
0.14,1.03,-0.07
0.13,1.05,-0.05
0.11,1.05,-0.03
0.09,1.05,0
0.08,1.03,0.02
0.08,1,0.05
0.07,0.98,0.07
0.07,0.97,0.07
0.09,0.97,0.07
0.11,0.97,0.05
0.14,0.97,0.02
0.17,0.98,-0.01
0.18,0.98,-0.03
0.19,0.97,-0.04
0.17,0.97,-0.03
0.15,0.97,-0.01
0.15,0.96,0
0.14,0.97,0.01
0.14,0.97,0
0.15,0.98,-0.01
0.15,0.98,-0.02
0.17,0.98,-0.02
0.18,0.98,-0.02
0.18,0.97,-0.02
0.19,0.97,-0.01
0.19,0.97,0.01
0.18,0.97,0.03
0.17,0.97,0.03
0.16,0.97,0.03
0.16,0.97,0.03
0.16,0.97,0.02
0.16,0.97,0.01
0.17,0.97,0
0.18,0.97,0
0.19,0.96,0
0.2,0.96,0.01
0.2,0.96,0.01
0.2,0.97,0.01
0.18,0.97,0.01
0.17,0.98,0
0.17,0.98,0.01
0.16,0.97,0.01
0.15,0.97,0.02
0.16,0.97,0.02
0.16,0.97,0.02
0.2,0.96,0.02
0.21,0.97,0.01
0.21,0.97,0
0.21,0.97,-0.01
0.21,0.98,-0.01
0.2,0.99,-0.01
0.19,0.99,0
0.18,0.98,0.01
0.17,0.97,0.01
0.17,0.96,0.02
0.18,0.95,0.02
0.19,0.95,0.02
0.19,0.95,0.02
0.2,0.95,0.01
0.21,0.95,0
0.21,0.95,0
0.2,0.95,0
0.2,0.95,0
0.19,0.96,0
0.19,0.96,0.01
0.2,0.96,0.01
0.21,0.96,0.01
0.21,0.97,0
0.21,0.97,0
0.22,0.98,-0.01
0.22,0.98,-0.01
0.21,0.98,-0.01
0.2,0.97,-0.01
0.19,0.96,0
0.19,0.95,0
0.2,0.95,0
0.21,0.95,0
0.22,0.95,0
0.22,0.95,0
0.22,0.96,-0.01
0.22,0.96,-0.01
0.21,0.97,-0.01
0.22,0.96,-0.01
0.21,0.96,0
0.21,0.96,0
0.21,0.95,0.01
0.22,0.95,0.01
0.24,0.95,0.01
0.25,0.95,0
0.25,0.96,0
0.25,0.97,-0.01
0.26,0.97,-0.01
0.26,0.97,-0.01
0.26,0.98,-0.01
0.27,0.98,0
0.28,0.97,0
0.28,0.96,0
0.32,0.95,0
0.33,0.95,0.01
0.32,0.95,0.02
0.35,0.95,0
0.36,0.94,-0.01
0.34,0.94,-0.01
0.36,0.94,-0.01
0.36,0.96,0
0.39,0.99,-0.01
0.38,0.98,-0.05
0.34,0.98,-0.05
0.36,0.99,-0.04
0.37,1,-0.02
0.38,0.98,-0.04
0.43,0.96,-0.08
0.39,0.93,-0.09
0.34,0.87,-0.13
0.39,0.87,-0.17
0.39,0.86,-0.15
0.36,0.84,-0.1
0.34,0.85,-0.05
0.34,0.84,-0.03
0.33,0.83,-0.03
0.35,0.82,-0.06
0.36,0.81,-0.09
0.36,0.78,-0.17
0.37,0.72,-0.2
0.37,0.67,-0.21
0.36,0.64,-0.19
0.32,0.61,-0.17
0.28,0.58,-0.14
0.23,0.58,-0.1
0.17,0.57,-0.06
0.15,0.56,-0.05
0.13,0.54,-0.05
0.11,0.51,-0.04
0.1,0.46,-0.03
0.14,0.44,-0.01
0.18,0.44,0
0.18,0.45,0.02
0.18,0.46,0.03
0.18,0.49,0.05
0.2,0.52,0.06
0.25,0.55,0.09
0.31,0.58,0.11
0.41,0.61,0.11
0.49,0.65,0.11
0.5,0.66,0.12
0.53,0.67,0.12
0.55,0.7,0.12
0.56,0.74,0.15
0.55,0.76,0.25
0.44,0.82,0.31
0.56,0.86,0.3
0.64,0.87,0.3
0.64,0.88,0.39
0.64,0.9,0.47
0.63,0.9,0.49
0.6,0.91,0.51
0.66,0.93,0.52
0.67,0.94,0.55
0.65,0.99,0.62
0.74,1.01,0.67
0.79,1.01,0.73
0.78,1.01,0.77
0.75,0.98,0.75
0.71,0.92,0.69
0.68,0.88,0.64
0.67,0.85,0.6
0.69,0.86,0.6
0.7,0.89,0.62
0.72,0.92,0.66
0.78,0.96,0.72
0.85,1.01,0.8
0.87,1.04,0.87
0.83,1.04,0.87
0.78,1.03,0.83
0.77,1.02,0.74
0.76,0.96,0.56
0.75,0.92,0.51
0.72,0.83,0.49
0.69,0.71,0.5
0.67,0.6,0.55
0.64,0.53,0.61
0.61,0.46,0.68
0.56,0.4,0.73
0.51,0.34,0.75
0.46,0.3,0.77
0.41,0.28,0.76
0.42,0.28,0.73
0.44,0.28,0.69
0.45,0.29,0.67
0.45,0.3,0.67
0.45,0.31,0.68
0.46,0.33,0.69
0.47,0.34,0.7
0.49,0.36,0.71
0.52,0.38,0.72
0.55,0.39,0.73
0.58,0.41,0.74
0.59,0.43,0.76
0.61,0.45,0.77
0.62,0.46,0.77
0.61,0.47,0.76
0.6,0.48,0.72
0.59,0.48,0.69
0.59,0.48,0.67
0.59,0.48,0.66
0.6,0.49,0.66
0.59,0.5,0.67
0.56,0.51,0.69
0.52,0.52,0.7
0.49,0.52,0.7
0.48,0.52,0.71
0.48,0.52,0.7
0.49,0.52,0.69
0.49,0.52,0.68
0.5,0.52,0.66
0.51,0.52,0.64
0.52,0.52,0.65
0.53,0.51,0.66
0.53,0.5,0.67
0.55,0.5,0.68
0.56,0.49,0.67
0.57,0.48,0.66
0.56,0.48,0.65
0.53,0.47,0.66
0.53,0.47,0.67
0.54,0.46,0.67
0.56,0.46,0.67
0.57,0.47,0.67
0.58,0.47,0.68
0.57,0.48,0.69
0.57,0.49,0.69
0.56,0.49,0.69
0.55,0.49,0.68
0.54,0.49,0.67
0.54,0.49,0.66
0.54,0.48,0.66
0.54,0.47,0.66
0.54,0.47,0.65
0.55,0.47,0.65
0.56,0.47,0.65
0.56,0.47,0.65
0.56,0.47,0.65
0.55,0.48,0.66
0.55,0.48,0.66
0.54,0.48,0.67
0.53,0.48,0.67
0.53,0.47,0.67
0.54,0.48,0.67
0.55,0.48,0.66
0.56,0.48,0.67
0.58,0.49,0.67
0.59,0.5,0.67
0.6,0.51,0.67
0.59,0.5,0.67
0.58,0.5,0.66
0.58,0.5,0.65
0.58,0.51,0.64
0.58,0.51,0.64
0.59,0.51,0.63
0.59,0.51,0.63
0.59,0.52,0.62
0.59,0.53,0.61
0.58,0.54,0.6
0.58,0.55,0.59
0.59,0.55,0.59
0.61,0.56,0.59
0.61,0.56,0.59
0.61,0.56,0.58
0.62,0.57,0.57
0.62,0.58,0.57
0.63,0.58,0.56
0.63,0.58,0.55
0.62,0.58,0.55
0.62,0.57,0.55
0.62,0.58,0.54
0.61,0.59,0.54
0.62,0.59,0.54
0.62,0.58,0.55
0.61,0.58,0.56
0.61,0.58,0.58
0.6,0.57,0.59
0.59,0.56,0.6
0.58,0.55,0.6
0.58,0.54,0.61
0.58,0.54,0.61
0.59,0.54,0.61
0.59,0.54,0.61
0.59,0.54,0.61
0.59,0.54,0.61
0.59,0.55,0.61
0.59,0.55,0.61
0.59,0.55,0.61
0.59,0.55,0.61
0.59,0.54,0.6
0.59,0.54,0.6
0.59,0.54,0.6
0.59,0.54,0.6
0.6,0.54,0.6
0.6,0.53,0.61
0.6,0.53,0.61
0.6,0.53,0.6
0.6,0.53,0.6
0.6,0.53,0.6
0.6,0.53,0.6
0.6,0.53,0.6
0.59,0.53,0.6
0.59,0.52,0.6
0.6,0.52,0.6
0.6,0.52,0.6
0.6,0.52,0.6
0.6,0.52,0.61
0.6,0.52,0.61
0.59,0.52,0.61
0.59,0.52,0.61
0.59,0.53,0.62
0.6,0.52,0.62
0.6,0.52,0.62
0.6,0.52,0.61
0.6,0.52,0.61
0.59,0.52,0.62
0.6,0.52,0.61
0.6,0.51,0.6
0.61,0.51,0.6
0.6,0.52,0.61
0.6,0.52,0.61
0.61,0.51,0.61
0.6,0.51,0.61
0.6,0.51,0.6
0.6,0.51,0.6
0.6,0.51,0.6
0.6,0.51,0.6
0.6,0.51,0.61
0.6,0.51,0.61
0.61,0.51,0.61
0.61,0.51,0.62
0.6,0.5,0.62
0.6,0.51,0.62
0.6,0.51,0.62
0.6,0.51,0.62
0.6,0.51,0.62
0.59,0.51,0.62
0.59,0.51,0.62
0.59,0.51,0.61
0.6,0.51,0.61
0.6,0.51,0.61
0.6,0.51,0.62
0.6,0.52,0.62
0.6,0.52,0.62
0.6,0.52,0.62
0.6,0.52,0.62
0.6,0.52,0.62
0.6,0.52,0.61
0.6,0.52,0.61
0.6,0.51,0.61
0.6,0.51,0.61
0.61,0.51,0.61
0.6,0.51,0.61
0.6,0.51,0.61
0.6,0.52,0.61
0.6,0.52,0.61
0.6,0.52,0.61
0.6,0.52,0.61
0.6,0.53,0.61
0.6,0.52,0.61
0.61,0.52,0.61
0.61,0.52,0.61
0.62,0.53,0.61
0.62,0.53,0.61
0.62,0.53,0.61
0.61,0.53,0.61
0.6,0.53,0.61
0.59,0.52,0.61
0.58,0.52,0.6
0.58,0.51,0.6
0.59,0.51,0.6
0.6,0.51,0.6
0.61,0.51,0.6
0.62,0.51,0.6
0.62,0.51,0.61
0.62,0.5,0.61
0.62,0.5,0.61
0.61,0.5,0.62
0.6,0.49,0.62
0.58,0.48,0.62
0.59,0.47,0.63
0.6,0.47,0.63
0.61,0.46,0.63
0.61,0.46,0.63
0.61,0.45,0.63
0.61,0.45,0.63
0.62,0.45,0.63
0.62,0.45,0.63
0.63,0.44,0.62
0.62,0.44,0.62
0.63,0.44,0.62
0.62,0.44,0.62
0.61,0.44,0.6
0.6,0.43,0.59
0.6,0.43,0.59
0.61,0.43,0.59
0.62,0.43,0.59
0.63,0.44,0.59
0.63,0.44,0.61
0.64,0.43,0.62
0.65,0.41,0.61
0.64,0.4,0.61
0.64,0.4,0.62
0.68,0.41,0.65
0.73,0.42,0.69
0.81,0.46,0.74
0.8,0.47,0.78
0.77,0.48,0.78
0.77,0.48,0.77
0.79,0.49,0.73
0.79,0.51,0.69
0.78,0.52,0.65
0.73,0.48,0.55
0.65,0.43,0.43
0.61,0.48,0.45
0.65,0.57,0.51
0.71,0.63,0.54
0.78,0.71,0.57
0.85,0.79,0.6
0.86,0.81,0.6
0.79,0.79,0.56
0.67,0.77,0.5
0.6,0.78,0.46
0.61,0.79,0.43
0.61,0.8,0.44
0.61,0.81,0.45
0.6,0.83,0.48
0.62,0.88,0.51
0.64,0.95,0.52
0.64,1.04,0.53
0.65,1.12,0.51
0.65,1.19,0.46
0.66,1.31,0.35
0.61,1.33,0.3
0.55,1.34,0.26
0.49,1.35,0.25
0.45,1.35,0.24
0.41,1.33,0.21
0.38,1.3,0.18
0.35,1.24,0.15
0.3,1.18,0.13
0.29,1.14,0.12
0.3,1.11,0.12
0.29,1.06,0.12
0.3,1.01,0.11
0.31,0.96,0.1
0.31,0.91,0.11
0.31,0.87,0.12
0.3,0.83,0.14
0.27,0.8,0.14
0.27,0.77,0.14
0.24,0.74,0.14
0.19,0.72,0.14
0.17,0.7,0.11
0.15,0.66,0.08
0.13,0.63,0.06
0.13,0.6,0.04
0.14,0.6,0.01
0.15,0.62,-0.06
0.19,0.63,-0.1
0.17,0.64,-0.11
0.15,0.65,-0.11
0.14,0.65,-0.11
0.13,0.65,-0.12
0.15,0.65,-0.14
0.17,0.64,-0.16
0.21,0.63,-0.18
0.24,0.62,-0.18
0.26,0.62,-0.18
0.25,0.61,-0.18
0.24,0.61,-0.19
0.24,0.61,-0.2
0.24,0.62,-0.19
0.23,0.62,-0.18
0.22,0.63,-0.16
0.23,0.65,-0.15
0.25,0.68,-0.16
0.25,0.72,-0.17
0.24,0.75,-0.18
0.27,0.78,-0.19
0.3,0.81,-0.2
0.3,0.83,-0.2
0.29,0.86,-0.19
0.29,0.89,-0.18
0.31,0.96,-0.13
0.32,1,-0.1
0.33,1.02,-0.08
0.35,1.04,-0.08
0.39,1.04,-0.09
0.42,1.04,-0.09
0.46,1.04,-0.07
0.49,1.05,-0.05
0.51,1.04,-0.02
0.49,1.02,0.03
0.44,1,0.07
0.4,0.99,0.09
0.38,0.98,0.11
0.36,0.97,0.13
0.33,0.96,0.13
0.29,0.94,0.11
0.26,0.93,0.09
0.25,0.93,0.07
0.24,0.93,0.04
0.22,0.94,0.02
0.21,0.95,-0.01
0.22,0.96,-0.04
0.24,0.96,-0.07
0.27,0.96,-0.09
0.27,0.97,-0.11
0.26,0.97,-0.12
0.27,0.97,-0.11
0.25,0.97,-0.1
0.22,0.97,-0.1
0.2,0.97,-0.09
0.17,0.98,-0.07
0.16,0.97,-0.05
0.15,0.97,-0.03
0.14,0.96,-0.02
0.14,0.95,-0.01
0.15,0.94,-0.02
0.16,0.95,-0.03
0.17,0.96,-0.04
0.18,0.96,-0.04
0.17,0.97,-0.04
0.18,0.96,-0.04
0.17,0.96,-0.03
0.14,0.97,-0.01
0.13,0.97,-0.01
0.15,0.98,-0.02
0.18,0.98,-0.04
0.2,0.99,-0.05
0.21,0.98,-0.06
0.21,0.97,-0.07
0.22,0.97,-0.07
0.23,0.96,-0.06
0.25,0.95,-0.06
0.26,0.95,-0.05
0.26,0.94,-0.04
0.25,0.95,-0.05
0.25,0.95,-0.06
0.24,0.95,-0.06
0.24,0.95,-0.06
0.24,0.95,-0.05
0.24,0.95,-0.05
0.24,0.96,-0.04
0.25,0.96,-0.03
0.26,0.96,-0.03
0.27,0.96,-0.03
0.27,0.96,-0.04
0.27,0.97,-0.04
0.27,0.97,-0.05
0.26,0.96,-0.05
0.26,0.96,-0.05
0.27,0.96,-0.04
0.26,0.95,-0.03
0.26,0.95,-0.03
0.26,0.95,-0.03
0.25,0.96,-0.04
0.25,0.96,-0.04
0.25,0.96,-0.04
0.25,0.96,-0.05
0.26,0.96,-0.05
0.27,0.96,-0.05
0.26,0.95,-0.05
0.26,0.95,-0.05
0.26,0.95,-0.05
0.26,0.95,-0.05
0.26,0.95,-0.05
0.26,0.95,-0.05
0.26,0.94,-0.05
0.25,0.94,-0.05
0.24,0.94,-0.05
0.24,0.95,-0.05
0.24,0.95,-0.05
0.25,0.95,-0.05
0.25,0.95,-0.05
0.27,0.95,-0.05
0.28,0.95,-0.05
0.28,0.95,-0.05
0.28,0.95,-0.05
0.28,0.95,-0.05
0.27,0.95,-0.05
0.27,0.94,-0.05
0.27,0.95,-0.05
0.27,0.95,-0.05
0.26,0.96,-0.05
0.26,0.96,-0.04
0.27,0.95,-0.05
0.27,0.95,-0.04
0.25,0.95,-0.04
0.24,0.95,-0.04
0.24,0.96,-0.05
0.24,0.96,-0.04
0.24,0.96,-0.04
0.24,0.96,-0.05
0.24,0.96,-0.05
0.25,0.96,-0.06
0.26,0.96,-0.06
0.26,0.95,-0.05
0.26,0.95,-0.04
0.26,0.95,-0.04
0.26,0.94,-0.04
0.27,0.94,-0.04
0.28,0.94,-0.03
0.28,0.95,-0.03
0.28,0.95,-0.03
0.28,0.94,-0.03
0.28,0.94,-0.03
0.29,0.93,-0.03
0.29,0.93,-0.03
0.29,0.93,-0.03
0.29,0.93,-0.03
0.29,0.93,-0.03
0.28,0.93,-0.03
0.27,0.93,-0.03
0.27,0.95,-0.04
0.27,0.96,-0.04
0.27,0.96,-0.04
0.27,0.96,-0.04
0.27,0.96,-0.04
0.27,0.95,-0.03
0.27,0.95,-0.02
0.26,0.94,-0.01
0.26,0.94,-0.02
0.26,0.94,-0.01
0.26,0.94,-0.01
0.26,0.95,-0.01
0.26,0.95,-0.01
0.26,0.94,-0.02
0.26,0.93,-0.02
0.27,0.93,-0.02
0.28,0.92,-0.03
0.29,0.92,-0.03
0.31,0.92,-0.03
0.33,0.92,-0.03
0.34,0.92,-0.04
0.36,0.92,-0.04
0.36,0.92,-0.04
0.36,0.93,-0.04
0.35,0.93,-0.04
0.34,0.94,-0.04
0.33,0.94,-0.03
0.31,0.94,-0.02
0.3,0.94,-0.02
0.3,0.94,-0.01
0.29,0.94,-0.01
0.29,0.94,-0.02
0.29,0.94,-0.03
0.3,0.94,-0.03
0.3,0.93,-0.03
0.3,0.93,-0.02
0.3,0.93,-0.02
0.3,0.93,-0.02
0.31,0.93,-0.02
0.31,0.93,-0.03
0.31,0.93,-0.03
0.32,0.93,-0.03
0.33,0.93,-0.03
0.33,0.94,-0.03
0.33,0.94,-0.03
0.33,0.94,-0.03
0.33,0.93,-0.03
0.33,0.93,-0.01
0.35,0.93,-0.02
0.38,0.93,-0.04
0.36,0.93,-0.02
0.35,0.94,-0.02
0.36,0.95,-0.02
0.35,0.96,-0.03
0.36,0.96,-0.04
0.39,0.96,-0.05
0.42,0.97,-0.03
0.4,0.97,-0.01
0.36,0.96,0.02
0.41,0.97,0.03
0.45,0.96,0
0.49,0.98,-0.01
0.52,0.99,-0.05
0.49,1.01,-0.05
0.58,1.04,-0.05
0.47,0.97,-0.09
0.42,0.94,-0.12
0.46,0.98,-0.07
0.47,1,-0.04
0.55,0.99,-0.07
0.53,0.96,-0.05
0.57,0.95,-0.03
0.59,0.94,-0.07
0.59,0.94,-0.06
0.6,0.91,-0.06
0.61,0.89,-0.08
0.64,0.87,-0.11
0.67,0.83,-0.13
0.66,0.78,-0.13
0.67,0.77,-0.12
0.62,0.76,-0.1
0.55,0.74,-0.07
0.52,0.72,-0.03
0.53,0.7,0
0.55,0.66,0.01
0.56,0.64,0.03
0.54,0.62,0.04
0.49,0.58,0.05
0.45,0.51,0.05
0.42,0.46,0.06
0.42,0.42,0.06
0.4,0.37,0.07
0.38,0.33,0.08
0.35,0.31,0.08
0.29,0.3,0.09
0.25,0.29,0.09
0.28,0.25,0.09
0.28,0.24,0.07
0.26,0.23,0.06
0.25,0.21,0.05
0.26,0.2,0.03
0.26,0.21,0.05
0.27,0.24,0.09
0.31,0.27,0.12
0.35,0.31,0.17
0.43,0.35,0.19
0.46,0.34,0.18
0.5,0.32,0.16
0.51,0.33,0.16
0.54,0.37,0.19
0.66,0.43,0.24
0.77,0.52,0.32
0.75,0.58,0.43
0.74,0.63,0.53
0.73,0.64,0.61
0.7,0.64,0.65
0.74,0.66,0.69
0.79,0.67,0.72
0.83,0.66,0.73
0.85,0.64,0.75
0.85,0.64,0.78
0.82,0.64,0.8
0.78,0.65,0.83
0.75,0.66,0.84
0.7,0.63,0.84
0.66,0.6,0.84
0.69,0.6,0.86
0.77,0.62,0.94
0.81,0.67,1.02
0.82,0.74,1.06
0.8,0.8,1.01
0.7,0.88,0.96
0.68,0.87,0.86
0.73,0.87,0.81
0.9,0.85,1.04
1.45,0.91,1.63
1.7,0.74,2.04
1.26,0.43,1.88
0.84,0.39,1.47
0.52,0.34,0.99
0.31,0.22,0.59
0.24,0.13,0.39
0.23,0.1,0.31
0.32,0.13,0.32
0.4,0.17,0.4
0.44,0.2,0.53
0.46,0.23,0.7
0.48,0.27,0.87
0.47,0.3,0.99
0.47,0.34,1.06
0.47,0.36,1.07
0.48,0.38,1.04
0.49,0.39,0.98
0.49,0.4,0.9
0.5,0.42,0.82
0.51,0.44,0.74
0.53,0.46,0.65
0.57,0.49,0.64
0.58,0.5,0.64
0.57,0.5,0.65
0.56,0.49,0.68
0.53,0.48,0.7
0.51,0.46,0.72
0.5,0.45,0.74
0.49,0.45,0.74
0.5,0.45,0.74
0.51,0.45,0.74
0.51,0.46,0.73
0.52,0.47,0.73
0.53,0.47,0.72
0.52,0.47,0.71
0.52,0.47,0.71
0.51,0.46,0.71
0.52,0.46,0.71
0.52,0.46,0.71
0.53,0.45,0.71
0.54,0.44,0.7
0.55,0.43,0.69
0.56,0.43,0.69
0.57,0.43,0.69
0.58,0.44,0.68
0.58,0.45,0.67
0.59,0.45,0.67
0.56,0.47,0.68
0.54,0.47,0.69
0.52,0.47,0.7
0.51,0.47,0.71
0.51,0.46,0.71
0.5,0.46,0.71
0.51,0.46,0.71
0.52,0.46,0.71
0.54,0.46,0.7
0.55,0.47,0.7
0.56,0.47,0.69
0.58,0.47,0.69
0.58,0.47,0.68
0.58,0.47,0.68
0.58,0.48,0.68
0.57,0.48,0.67
0.56,0.48,0.67
0.55,0.48,0.67
0.54,0.48,0.67
0.54,0.48,0.66
0.54,0.48,0.65
0.54,0.48,0.64
0.56,0.48,0.64
0.57,0.48,0.64
0.59,0.49,0.64
0.61,0.49,0.65
0.62,0.49,0.65
0.61,0.49,0.65
0.6,0.49,0.65
0.59,0.48,0.65
0.58,0.48,0.64
0.58,0.47,0.64
0.59,0.47,0.64
0.61,0.48,0.65
0.62,0.49,0.65
0.62,0.49,0.64
0.62,0.48,0.64
0.61,0.48,0.63
0.61,0.47,0.62
0.6,0.46,0.62
0.61,0.46,0.62
0.62,0.47,0.62
0.64,0.48,0.62
0.66,0.49,0.63
0.68,0.49,0.63
0.68,0.49,0.62
0.67,0.49,0.61
0.66,0.49,0.6
0.64,0.48,0.59
0.62,0.46,0.58
0.62,0.46,0.58
0.62,0.45,0.59
0.64,0.45,0.59
0.65,0.44,0.59
0.66,0.44,0.6
0.65,0.43,0.59
0.64,0.42,0.59
0.63,0.42,0.59
0.62,0.42,0.59
0.6,0.42,0.57
0.58,0.4,0.56
0.58,0.39,0.57
0.61,0.39,0.61
0.65,0.4,0.63
0.71,0.43,0.62
0.75,0.44,0.62
0.78,0.45,0.61
0.79,0.43,0.6
0.81,0.41,0.62
0.86,0.43,0.66
0.91,0.47,0.74
0.93,0.51,0.78
0.88,0.51,0.72
0.83,0.48,0.65
0.82,0.44,0.55
0.86,0.43,0.5
0.94,0.46,0.52
0.97,0.48,0.53
0.91,0.49,0.56
0.82,0.55,0.61
0.76,0.6,0.62
0.65,0.63,0.61
0.58,0.69,0.59
0.56,0.76,0.62
0.57,0.84,0.64
0.56,0.88,0.62
0.51,0.91,0.62
0.48,0.96,0.6
0.48,1.01,0.55
0.53,1.06,0.5
0.59,1.08,0.45
0.63,1.12,0.38
0.63,1.17,0.32
0.61,1.21,0.3
0.59,1.3,0.24
0.56,1.41,0.16
0.52,1.51,0.17
0.53,1.56,0.21
0.55,1.54,0.23
0.57,1.53,0.25
0.55,1.5,0.26
0.52,1.42,0.24
0.48,1.29,0.21
0.42,1.18,0.19
0.34,1.01,0.2
0.19,0.93,0.22
0.15,0.87,0.24
0.14,0.83,0.26
0.14,0.8,0.26
0.15,0.75,0.24
0.15,0.7,0.21
0.16,0.66,0.19
0.15,0.63,0.16
0.14,0.61,0.13
0.13,0.58,0.1
0.14,0.56,0.08
0.13,0.55,0.05
0.12,0.55,0.02
0.14,0.56,-0.01
0.15,0.56,-0.03
0.17,0.57,-0.05
0.22,0.59,-0.07
0.24,0.63,-0.1
0.26,0.65,-0.14
0.28,0.68,-0.17
0.28,0.69,-0.2
0.28,0.7,-0.21
0.27,0.71,-0.2
0.24,0.72,-0.18
0.23,0.72,-0.16
0.27,0.71,-0.14
0.35,0.7,-0.12
0.36,0.69,-0.11
0.36,0.68,-0.11
0.34,0.68,-0.1
0.31,0.68,-0.1
0.29,0.67,-0.09
0.29,0.67,-0.08
0.3,0.69,-0.06
0.3,0.72,-0.04
0.3,0.77,-0.03
0.32,0.83,-0.03
0.34,0.89,-0.03
0.36,0.93,-0.05
0.36,0.96,-0.07
0.37,1,-0.08
0.37,1.02,-0.09
0.37,1.03,-0.08
0.36,1.03,-0.07
0.34,1.02,-0.07
0.32,1.01,-0.06
0.31,1,-0.06
0.33,0.98,-0.05
0.35,0.95,-0.05
0.35,0.92,-0.04
0.35,0.9,-0.03
0.35,0.87,-0.03
0.32,0.84,-0.02
0.31,0.84,-0.01
0.32,0.86,-0.01
0.32,0.87,0
0.32,0.89,0
0.31,0.91,0
0.3,0.92,0.01
0.31,0.94,0
0.3,0.96,0
0.29,0.97,0
0.27,0.98,0.01
0.25,0.98,0.02
0.25,0.97,0.01
0.25,0.98,0.01
0.25,0.98,0.02
0.25,0.98,0.02
0.26,0.98,0.02
0.26,0.99,0.02
0.25,0.99,0.03
0.24,0.99,0.03
0.23,0.98,0.03
0.22,0.99,0.03
0.21,0.99,0.04
0.19,0.98,0.05
0.19,0.98,0.06
0.19,0.98,0.07
0.2,0.97,0.07
0.21,0.96,0.06
0.22,0.95,0.06
0.22,0.96,0.06
0.21,0.97,0.05
0.21,0.97,0.04
0.22,0.97,0.02
0.22,0.97,0.01
0.23,0.96,0.01
0.23,0.96,0.01
0.23,0.96,0
0.23,0.96,0
0.22,0.96,0
0.23,0.95,0
0.23,0.95,-0.01
0.24,0.95,-0.01
0.24,0.95,-0.02
0.24,0.95,-0.03
0.25,0.95,-0.03
0.25,0.95,-0.02
0.26,0.95,-0.01
0.24,0.96,0
0.23,0.96,0.01
0.23,0.97,0.01
0.24,0.97,0.01
0.24,0.96,0.02
0.25,0.94,0.02
0.26,0.94,0.02
0.24,0.94,0.02
0.23,0.94,0.02
0.23,0.95,0
0.23,0.97,0.01
0.25,0.97,0.01
0.25,0.97,0
0.24,0.96,0
0.22,0.96,0.01
0.23,0.95,0.01
0.24,0.95,0.01
0.25,0.95,0.01
0.25,0.95,0
0.24,0.95,0
0.24,0.95,-0.01
0.24,0.95,-0.01
0.25,0.95,-0.01
0.25,0.95,-0.01
0.24,0.95,-0.01
0.24,0.95,-0.01
0.24,0.95,-0.01
0.24,0.96,0
0.24,0.96,0
0.25,0.95,0
0.26,0.96,0
0.26,0.96,0
0.26,0.96,0
0.26,0.96,0.01
0.26,0.96,0.01
0.26,0.96,0
0.26,0.96,0
0.25,0.96,0
0.25,0.96,0
0.25,0.96,0
0.24,0.95,0
0.24,0.95,0
0.24,0.95,0
0.24,0.95,0
0.24,0.95,0
0.24,0.95,0.01
0.24,0.96,0
0.24,0.96,0
0.24,0.96,0
0.25,0.95,0
0.25,0.95,0
0.25,0.94,0
0.25,0.94,0
0.26,0.95,0
0.26,0.95,0
0.25,0.95,0
0.26,0.96,-0.01
0.25,0.96,-0.01
0.25,0.96,0
0.25,0.95,-0.01
0.25,0.94,0
0.26,0.94,0
0.26,0.94,0
0.25,0.94,0
0.26,0.94,0
0.26,0.94,0
0.26,0.95,0
0.25,0.96,0
0.25,0.96,-0.01
0.25,0.96,-0.01
0.25,0.96,-0.01
0.25,0.96,0
0.24,0.96,0
0.24,0.96,0
0.25,0.96,0
0.25,0.95,0
0.25,0.95,0
0.25,0.95,0
0.25,0.96,0
0.25,0.96,-0.01
0.25,0.95,0
0.25,0.95,0
0.25,0.95,0
0.25,0.95,0
0.25,0.95,0.01
0.25,0.94,0.01
0.24,0.95,0.01
0.25,0.95,0.01
0.25,0.95,0.01
0.25,0.96,0
0.25,0.96,0
0.25,0.96,0
0.26,0.96,0
0.27,0.96,-0.01
0.27,0.95,0
0.27,0.95,0
0.27,0.95,0
0.27,0.95,0
0.27,0.96,-0.01
0.27,0.96,-0.01
0.26,0.96,0
0.26,0.97,0
0.25,0.97,-0.01
0.25,0.97,-0.01
0.25,0.97,-0.01
0.25,0.97,-0.01
0.25,0.98,-0.01
0.25,0.98,-0.01
0.26,0.98,0
0.25,0.98,0.01
0.25,0.97,0.01
0.25,0.97,0.01
0.25,0.96,0.02
0.24,0.96,0.03
0.24,0.96,0.03
0.24,0.96,0.04
0.24,0.95,0.04
0.26,0.95,0.04
0.27,0.96,0.03
0.26,0.96,0.03
0.27,0.95,0.03
0.31,0.95,0.01
0.34,0.96,-0.01
0.34,0.96,-0.01
0.39,0.97,-0.02
0.44,0.97,-0.03
0.43,0.98,-0.01
0.45,1,-0.02
0.44,1,-0.03
0.43,0.99,-0.03
0.43,0.99,-0.03
0.45,0.98,-0.04
0.47,0.97,-0.04
0.48,0.96,-0.04
0.47,0.95,-0.03
0.46,0.91,-0.05
0.47,0.9,-0.02
0.47,0.87,-0.03
0.48,0.84,-0.04
0.46,0.83,-0.03
0.4,0.8,-0.02
0.36,0.77,0
0.34,0.73,0.01
0.33,0.68,0.02
0.34,0.64,0.01
0.33,0.6,0.01
0.31,0.55,0.03
0.3,0.5,0.03
0.33,0.46,0.03
0.37,0.44,0.02
0.37,0.42,0.02
0.35,0.39,0.02
0.34,0.38,0.03
0.35,0.36,0.04
0.35,0.36,0.06
0.33,0.37,0.08
0.31,0.37,0.11
0.32,0.38,0.13
0.34,0.4,0.15
0.36,0.43,0.17
0.43,0.47,0.17
0.48,0.53,0.22
0.49,0.56,0.23
0.52,0.59,0.25
0.51,0.62,0.28
0.51,0.65,0.31
0.45,0.66,0.38
0.41,0.67,0.42
0.45,0.67,0.4
0.44,0.66,0.41
0.43,0.67,0.42
0.47,0.69,0.43
0.54,0.69,0.44
0.57,0.69,0.49
0.57,0.71,0.55
0.59,0.74,0.6
0.56,0.77,0.65
0.55,0.81,0.68
0.55,0.83,0.69
0.53,0.82,0.71
0.52,0.82,0.7
0.54,0.82,0.72
0.57,0.83,0.74
0.61,0.83,0.75
0.62,0.83,0.76
0.61,0.81,0.75
0.6,0.8,0.74
0.59,0.79,0.72
0.63,0.77,0.69
0.66,0.78,0.66
0.65,0.81,0.63
0.68,0.84,0.64
0.74,0.95,0.65
0.72,0.97,0.83
0.82,1.01,1.33
1.07,1.16,1.8
1.03,1.07,1.95
0.79,0.83,1.74
0.6,0.63,1.29
0.56,0.48,0.88
0.56,0.36,0.6
0.54,0.3,0.45
0.54,0.25,0.41
0.56,0.23,0.44
0.56,0.24,0.52
0.52,0.25,0.62
0.46,0.26,0.72
0.41,0.28,0.78
0.4,0.3,0.81
0.39,0.31,0.81
0.39,0.33,0.81
0.4,0.36,0.8
0.42,0.38,0.8
0.45,0.4,0.77
0.51,0.46,0.76
0.54,0.49,0.75
0.56,0.51,0.75
0.58,0.53,0.74
0.6,0.54,0.73
0.61,0.54,0.72
0.61,0.54,0.72
0.6,0.53,0.72
0.57,0.52,0.72
0.53,0.52,0.71
0.49,0.51,0.71
0.46,0.5,0.7
0.43,0.49,0.7
0.42,0.48,0.7
0.44,0.48,0.69
0.47,0.49,0.67
0.5,0.51,0.66
0.53,0.52,0.66
0.54,0.52,0.67
0.54,0.53,0.68
0.53,0.53,0.69
0.52,0.52,0.69
0.5,0.52,0.7
0.49,0.51,0.69
0.5,0.49,0.68
0.53,0.49,0.65
0.59,0.5,0.63
0.59,0.5,0.62
0.57,0.5,0.63
0.55,0.51,0.64
0.52,0.52,0.66
0.49,0.52,0.67
0.48,0.53,0.69
0.48,0.53,0.7
0.48,0.54,0.69
0.49,0.54,0.68
0.51,0.55,0.67
0.52,0.55,0.66
0.53,0.56,0.66
0.53,0.57,0.66
0.52,0.57,0.66
0.51,0.57,0.66
0.51,0.57,0.67
0.51,0.57,0.67
0.51,0.57,0.67
0.51,0.57,0.67
0.51,0.57,0.66
0.52,0.57,0.66
0.52,0.56,0.65
0.51,0.56,0.65
0.5,0.56,0.65
0.48,0.56,0.65
0.46,0.55,0.65
0.46,0.53,0.65
0.47,0.53,0.65
0.49,0.53,0.64
0.52,0.53,0.64
0.54,0.53,0.64
0.56,0.53,0.65
0.56,0.54,0.65
0.55,0.54,0.65
0.54,0.55,0.65
0.53,0.55,0.65
0.52,0.54,0.65
0.52,0.54,0.65
0.53,0.53,0.65
0.54,0.53,0.64
0.55,0.53,0.63
0.56,0.53,0.63
0.56,0.53,0.63
0.55,0.54,0.63
0.54,0.54,0.64
0.53,0.53,0.64
0.51,0.53,0.64
0.5,0.52,0.63
0.5,0.52,0.63
0.51,0.52,0.63
0.52,0.52,0.63
0.57,0.53,0.64
0.57,0.54,0.64
0.56,0.54,0.65
0.55,0.54,0.65
0.54,0.55,0.65
0.53,0.55,0.65
0.53,0.55,0.64
0.53,0.55,0.64
0.53,0.56,0.64
0.54,0.56,0.64
0.55,0.57,0.64
0.56,0.58,0.63
0.56,0.59,0.62
0.56,0.59,0.62
0.56,0.59,0.61
0.55,0.59,0.6
0.55,0.59,0.59
0.54,0.59,0.59
0.54,0.59,0.58
0.56,0.6,0.58
0.57,0.6,0.57
0.58,0.61,0.57
0.58,0.61,0.57
0.59,0.61,0.57
0.59,0.62,0.57
0.58,0.61,0.57
0.58,0.61,0.57
0.57,0.6,0.58
0.57,0.6,0.59
0.57,0.59,0.59
0.56,0.58,0.59
0.56,0.57,0.6
0.56,0.57,0.6
0.56,0.56,0.61
0.56,0.56,0.6
0.56,0.55,0.6
0.56,0.56,0.6
0.57,0.56,0.6
0.57,0.56,0.6
0.57,0.56,0.61
0.57,0.56,0.61
0.57,0.56,0.6
0.57,0.56,0.6
0.56,0.57,0.59
0.56,0.57,0.59
0.56,0.58,0.59
0.57,0.58,0.59
0.57,0.58,0.6
0.57,0.58,0.6
0.57,0.57,0.61
0.57,0.57,0.61
0.57,0.56,0.61
0.57,0.55,0.59
0.57,0.55,0.59
0.56,0.55,0.59
0.57,0.55,0.6
0.57,0.55,0.6
0.57,0.56,0.6
0.57,0.56,0.61
0.57,0.56,0.61
0.57,0.56,0.61
0.56,0.56,0.61
0.57,0.56,0.61
0.58,0.56,0.6
0.57,0.56,0.6
0.57,0.56,0.6
0.57,0.56,0.6
0.57,0.56,0.6
0.57,0.56,0.6
0.56,0.56,0.6
0.56,0.56,0.6
0.57,0.56,0.61
0.57,0.56,0.61
0.57,0.56,0.61
0.56,0.55,0.61
0.55,0.54,0.61
0.54,0.53,0.61
0.54,0.51,0.61
0.54,0.5,0.6
0.59,0.51,0.6
0.61,0.53,0.61
0.63,0.55,0.61
0.63,0.56,0.63
0.61,0.57,0.63
0.58,0.57,0.62
0.55,0.56,0.6
0.54,0.55,0.58
0.56,0.55,0.57
0.59,0.55,0.57
0.61,0.56,0.57
0.61,0.57,0.58
0.6,0.57,0.59
0.58,0.58,0.6
0.55,0.58,0.59
0.55,0.57,0.58
0.58,0.57,0.57
0.62,0.58,0.57
0.64,0.59,0.58
0.65,0.6,0.6
0.63,0.59,0.61
0.59,0.58,0.62
0.55,0.56,0.61
0.53,0.53,0.59
0.53,0.52,0.57
0.54,0.5,0.54
0.6,0.51,0.55
0.63,0.53,0.57
0.63,0.56,0.6
0.6,0.58,0.63
0.57,0.6,0.65
0.53,0.61,0.66
0.51,0.61,0.65
0.5,0.61,0.63
0.5,0.61,0.61
0.51,0.59,0.59
0.53,0.57,0.59
0.56,0.56,0.58
0.58,0.55,0.58
0.59,0.53,0.59
0.61,0.52,0.6
0.62,0.52,0.61
0.62,0.52,0.61
0.62,0.52,0.6
0.62,0.52,0.59
0.62,0.53,0.58
0.62,0.53,0.58
0.62,0.53,0.58
0.61,0.53,0.58
0.6,0.53,0.59
0.59,0.54,0.59
0.58,0.54,0.6
0.57,0.54,0.61
0.57,0.55,0.61
0.57,0.55,0.61
0.58,0.55,0.61
0.58,0.54,0.6
0.58,0.54,0.6
0.58,0.54,0.6
0.58,0.54,0.6
0.57,0.54,0.6
0.57,0.55,0.61
0.57,0.55,0.61
0.57,0.55,0.61
0.57,0.55,0.61
0.57,0.55,0.61
0.57,0.55,0.61
0.57,0.55,0.61
0.57,0.55,0.6
0.57,0.55,0.61
0.57,0.55,0.6
0.57,0.55,0.6
0.58,0.55,0.6
0.58,0.55,0.61
0.58,0.55,0.61
0.58,0.55,0.61
0.58,0.55,0.61
0.58,0.54,0.6
0.58,0.54,0.6
0.58,0.54,0.6
0.58,0.54,0.6
0.58,0.54,0.6
0.58,0.55,0.6
0.58,0.55,0.6
0.58,0.54,0.6
0.58,0.54,0.6
0.58,0.54,0.6
0.58,0.54,0.6
0.58,0.54,0.6
0.58,0.54,0.6
0.58,0.54,0.6
0.58,0.54,0.61
0.59,0.54,0.61
0.59,0.54,0.61
0.58,0.54,0.61
0.59,0.54,0.61
0.59,0.54,0.61
0.58,0.54,0.61
0.58,0.54,0.6
0.58,0.54,0.6
0.57,0.54,0.6
0.57,0.54,0.6
0.57,0.55,0.6
0.57,0.55,0.6
0.58,0.55,0.6
0.58,0.55,0.6
0.58,0.55,0.6
0.58,0.55,0.61
0.58,0.55,0.61
0.58,0.55,0.61
0.58,0.55,0.61
0.58,0.55,0.61
0.58,0.55,0.61
0.57,0.54,0.61
0.57,0.54,0.61
0.57,0.54,0.6
0.58,0.54,0.6
0.58,0.54,0.61
0.58,0.54,0.61
0.58,0.54,0.61
0.58,0.54,0.61
0.58,0.54,0.6
0.58,0.54,0.6
0.58,0.54,0.6
0.59,0.54,0.6
0.59,0.54,0.6
0.59,0.54,0.6
0.58,0.54,0.6
0.58,0.54,0.61
0.58,0.54,0.6
0.58,0.54,0.6
0.58,0.54,0.6
0.58,0.55,0.6
0.59,0.54,0.6
0.58,0.54,0.6
0.58,0.54,0.6
0.58,0.55,0.6
0.58,0.55,0.61
0.58,0.55,0.61
0.58,0.55,0.6
0.58,0.54,0.6
0.58,0.54,0.6
0.58,0.54,0.6
0.58,0.54,0.6
0.58,0.54,0.6
0.58,0.54,0.6
0.58,0.54,0.6
0.58,0.55,0.6
0.58,0.54,0.61
0.58,0.54,0.61
0.58,0.54,0.61
0.58,0.55,0.6
0.58,0.55,0.6
0.58,0.55,0.6
0.58,0.55,0.6
0.59,0.55,0.61
0.59,0.54,0.61
0.59,0.54,0.61
0.59,0.54,0.61
0.58,0.54,0.61
0.58,0.54,0.6
0.58,0.54,0.61
0.58,0.54,0.61
0.58,0.54,0.6
0.58,0.54,0.6
0.58,0.54,0.61
0.58,0.55,0.6
0.58,0.55,0.6
0.58,0.55,0.6
0.59,0.55,0.6
0.58,0.55,0.6
0.58,0.55,0.6
0.58,0.55,0.61
0.58,0.55,0.61
0.58,0.54,0.61
0.58,0.55,0.61
0.58,0.54,0.61
0.58,0.54,0.61
0.58,0.54,0.61
0.58,0.54,0.6
0.58,0.54,0.61
0.58,0.54,0.61
0.58,0.55,0.61
0.58,0.54,0.61
0.58,0.54,0.61
0.58,0.54,0.6
0.58,0.54,0.6
0.58,0.54,0.61
0.58,0.54,0.61
0.58,0.54,0.61
0.58,0.54,0.61
0.58,0.54,0.61
0.58,0.54,0.61
0.58,0.55,0.6
0.58,0.54,0.6
0.58,0.54,0.61
0.57,0.54,0.61
0.57,0.54,0.61
0.58,0.54,0.61
0.58,0.54,0.61
0.58,0.54,0.61
0.58,0.54,0.61
0.58,0.54,0.61
0.58,0.54,0.61
0.58,0.54,0.61
0.58,0.54,0.61
0.58,0.54,0.61
0.58,0.54,0.61
0.57,0.54,0.61
0.58,0.54,0.61
0.57,0.53,0.61
0.58,0.54,0.61
0.58,0.54,0.61
0.58,0.54,0.61
0.58,0.54,0.61
0.58,0.54,0.61
0.57,0.54,0.61
0.57,0.55,0.61
0.58,0.55,0.61
0.59,0.54,0.61
0.59,0.54,0.6
0.59,0.54,0.61
0.59,0.54,0.61
0.58,0.54,0.61
0.58,0.54,0.61
0.58,0.54,0.6
0.58,0.55,0.6
0.58,0.55,0.6
0.58,0.55,0.6
0.58,0.55,0.59
0.57,0.56,0.59
0.58,0.56,0.59
0.58,0.56,0.59
0.59,0.56,0.59
0.59,0.56,0.6
0.59,0.55,0.6
0.58,0.55,0.6
0.58,0.55,0.6
0.57,0.55,0.61
0.57,0.55,0.61
0.57,0.55,0.61
0.58,0.54,0.61
0.58,0.54,0.61
0.58,0.54,0.61
0.58,0.54,0.61
0.58,0.54,0.61
0.58,0.54,0.61
0.58,0.54,0.61
0.58,0.54,0.61
0.58,0.54,0.61
0.58,0.54,0.6
0.58,0.53,0.6
0.58,0.53,0.61
0.59,0.53,0.61
0.59,0.53,0.61
0.59,0.53,0.61
0.59,0.54,0.61
0.59,0.53,0.61
0.59,0.54,0.61
0.58,0.54,0.61
0.58,0.55,0.61
0.58,0.55,0.61
0.58,0.55,0.6
0.59,0.55,0.6
0.59,0.55,0.59
0.59,0.55,0.59
0.59,0.55,0.59
0.59,0.54,0.6
0.59,0.54,0.6
0.59,0.54,0.6
0.59,0.54,0.6
0.58,0.53,0.6
0.58,0.54,0.6
0.58,0.54,0.6
0.58,0.54,0.6
0.58,0.54,0.6
0.59,0.53,0.6
0.59,0.53,0.6
0.59,0.53,0.6
0.59,0.53,0.61
0.57,0.52,0.61
0.56,0.52,0.61
0.56,0.51,0.61
0.56,0.5,0.61
0.56,0.51,0.62
0.57,0.5,0.62
0.58,0.51,0.62
0.6,0.51,0.62
0.61,0.5,0.62
0.61,0.5,0.62
0.61,0.49,0.61
0.61,0.49,0.61
0.61,0.49,0.6
0.61,0.48,0.59
0.62,0.48,0.59
0.62,0.48,0.6
0.63,0.48,0.59
0.64,0.48,0.58
0.65,0.47,0.58
0.65,0.47,0.58
0.64,0.47,0.58
0.64,0.47,0.59
0.64,0.48,0.59
0.65,0.47,0.58
0.64,0.47,0.58
0.66,0.46,0.58
0.69,0.46,0.57
0.7,0.47,0.61
0.73,0.49,0.66
0.79,0.51,0.73
0.83,0.53,0.81
0.81,0.56,0.85
0.72,0.54,0.73
0.61,0.54,0.73
0.62,0.55,0.73
0.61,0.55,0.67
0.63,0.55,0.63
0.63,0.53,0.57
0.65,0.53,0.58
0.7,0.55,0.63
0.71,0.58,0.63
0.75,0.63,0.65
0.77,0.7,0.67
0.78,0.77,0.67
0.75,0.82,0.6
0.68,0.86,0.52
0.61,0.91,0.47
0.56,0.97,0.46
0.52,1.04,0.48
0.51,1.11,0.52
0.51,1.18,0.46
0.53,1.25,0.39
0.53,1.31,0.4
0.51,1.36,0.4
0.49,1.39,0.37
0.47,1.41,0.35
0.45,1.43,0.32
0.44,1.45,0.31
0.41,1.44,0.26
0.31,1.32,0.23
0.26,1.26,0.2
0.25,1.21,0.19
0.25,1.14,0.18
0.24,1.07,0.16
0.22,1.02,0.14
0.21,0.96,0.11
0.23,0.91,0.08
0.23,0.85,0.06
0.24,0.8,0.04
0.26,0.77,0.04
0.26,0.73,0.03
0.27,0.7,0.03
0.29,0.68,0.03
0.28,0.65,0.04
0.27,0.61,0.04
0.29,0.57,0.01
0.31,0.55,-0.03
0.3,0.52,-0.07
0.3,0.52,-0.1
0.31,0.52,-0.14
0.32,0.52,-0.17
0.32,0.52,-0.17
0.31,0.53,-0.16
0.28,0.54,-0.14
0.27,0.55,-0.09
0.27,0.59,-0.07
0.28,0.61,-0.06
0.29,0.62,-0.05
0.31,0.62,-0.05
0.32,0.63,-0.05
0.33,0.65,-0.06
0.32,0.65,-0.07
0.33,0.65,-0.08
0.34,0.65,-0.08
0.33,0.64,-0.07
0.33,0.65,-0.06
0.32,0.67,-0.05
0.33,0.69,-0.05
0.34,0.73,-0.05
0.33,0.76,-0.05
0.33,0.79,-0.05
0.33,0.83,-0.05
0.33,0.87,-0.05
0.33,0.91,-0.05
0.34,0.96,-0.05
0.35,1,-0.05
0.36,1.03,-0.05
0.37,1.06,-0.05
0.38,1.07,-0.05
0.39,1.07,-0.05
0.39,1.07,-0.05
0.37,1.04,-0.01
0.36,1.02,0.03
0.37,1,0.05
0.42,0.99,0.06
0.4,0.97,0.11
0.29,0.96,0.18
0.18,0.96,0.24
0.12,0.96,0.26
0.11,0.97,0.24
0.11,0.97,0.21
0.16,0.98,0.14
0.23,0.99,0.08
0.26,1,0.04
0.27,1,0.01
0.27,1.01,-0.01
0.28,1,-0.02
0.28,0.99,-0.04
0.29,0.97,-0.05
0.28,0.96,-0.05
0.27,0.96,-0.05
0.26,0.96,-0.06
0.26,0.96,-0.07
0.26,0.96,-0.08
0.26,0.96,-0.08
0.26,0.95,-0.08
0.26,0.94,-0.08
0.25,0.93,-0.06
0.23,0.93,-0.04
0.22,0.94,-0.03
0.22,0.95,-0.03
0.23,0.95,-0.03
0.22,0.95,-0.03
0.22,0.95,-0.02
0.22,0.95,-0.01
0.23,0.95,0
0.23,0.95,0.01
0.21,0.95,0.03
0.21,0.96,0.04
0.22,0.95,0.04
0.22,0.95,0.05
0.23,0.96,0.04
0.23,0.97,0.03
0.24,0.97,0.02
0.25,0.97,0.01
0.27,0.96,-0.01
0.28,0.96,-0.02
0.29,0.95,-0.02
0.29,0.94,-0.02
0.31,0.94,-0.02
0.31,0.94,-0.02
0.3,0.93,-0.02
0.3,0.93,-0.02
0.31,0.93,-0.02
0.31,0.93,-0.01
0.31,0.94,-0.02
0.31,0.94,-0.02
0.31,0.94,-0.01
0.31,0.94,-0.01
0.31,0.94,-0.01
0.3,0.94,0
0.29,0.95,0
0.28,0.95,-0.01
0.29,0.95,-0.01
0.3,0.96,0
0.31,0.95,0
0.3,0.95,0
0.3,0.95,0
0.31,0.95,0.01
0.3,0.95,0.01
0.29,0.95,0.01
0.29,0.95,0.01
0.28,0.95,0.01
0.28,0.95,0.01
0.28,0.95,0.01
0.28,0.95,0.02
0.28,0.95,0.02
0.28,0.95,0.02
0.28,0.94,0.01
0.29,0.94,0
0.29,0.94,-0.01
0.29,0.94,0
0.29,0.94,0
0.28,0.94,0.01
0.27,0.94,0.02
0.27,0.93,0.02
0.27,0.93,0.02
0.27,0.93,0.01
0.28,0.94,0.01
0.28,0.94,0.01
0.28,0.95,0.01
0.28,0.95,0.01
0.29,0.95,0.01
0.29,0.95,0.01
0.29,0.95,0.01
0.3,0.94,0.01
0.3,0.94,0.01
0.31,0.93,0.02
0.31,0.93,0.03
0.31,0.92,0.04
0.32,0.91,0.05
0.33,0.91,0.05
0.33,0.91,0.05
0.33,0.9,0.05
0.33,0.91,0.04
0.32,0.92,0.04
0.26,0.91,0.05
0.22,0.89,0.05
0.19,0.88,0.04
0.18,0.89,0.04
0.2,0.91,0.04
0.25,0.93,0.04
0.28,0.93,0.05
0.32,0.95,0.04
0.33,0.96,0.03
0.32,0.96,0.02
0.3,0.96,0.01
0.29,0.96,0.01
0.26,0.96,0.03
0.24,0.96,0.04
0.24,0.97,0.05
0.25,0.98,0.05
0.26,0.98,0.04
0.24,0.99,0.06
0.25,1,0.06
0.26,1.01,0.05
0.23,1.01,0.06
0.19,1,0.05
0.23,0.99,0.02
0.26,0.99,0.02
0.18,0.98,0.06
0.16,0.97,0.06
0.2,0.93,0.06
0.24,0.93,0.05
0.2,0.92,0.05
0.19,0.91,0.05
0.19,0.9,0.03
0.22,0.9,0.03
0.23,0.91,0.04
0.23,0.92,0.04
0.24,0.92,0.02
0.24,0.91,0.02
0.27,0.93,0.06
0.29,0.94,0.07
0.29,0.95,0.07
0.28,0.96,0.05
0.27,0.96,0.04
0.26,0.95,0.05
0.27,0.95,0.04
0.27,0.95,0.05
0.26,0.95,0.05
0.25,0.96,0.07
0.24,0.97,0.06
0.24,0.98,0.06
0.24,0.99,0.07
0.24,0.99,0.06
0.24,0.97,0.06
0.22,0.98,0.06
0.24,0.97,0.05
0.22,0.96,0.06
0.21,0.96,0.06
0.22,0.96,0.06
0.24,0.95,0.05
0.23,0.96,0.05
0.22,0.96,0.04
0.21,0.96,0.05
0.22,0.96,0.05
0.22,0.95,0.06
0.22,0.95,0.06
0.23,0.95,0.06
0.24,0.94,0.06
0.25,0.95,0.06
0.26,0.94,0.06
0.27,0.95,0.05
0.28,0.94,0.05
0.28,0.94,0.05
0.28,0.94,0.05
0.28,0.94,0.05
0.28,0.94,0.05
0.28,0.94,0.05
0.28,0.95,0.05
0.28,0.95,0.05
0.28,0.95,0.05
0.28,0.94,0.05
0.28,0.94,0.05
0.28,0.94,0.05
0.28,0.94,0.06
0.27,0.95,0.06
0.27,0.95,0.05
0.26,0.95,0.05
0.26,0.95,0.05
0.26,0.95,0.05
0.26,0.95,0.05
0.26,0.95,0.05
0.26,0.95,0.05
0.26,0.95,0.05
0.26,0.94,0.05
0.26,0.95,0.05
0.26,0.95,0.05
0.26,0.95,0.05
0.26,0.95,0.05
0.26,0.94,0.05
0.26,0.94,0.05
0.26,0.94,0.05
0.27,0.94,0.05
0.27,0.95,0.05
0.27,0.95,0.05
0.27,0.95,0.05
0.27,0.95,0.05
0.27,0.95,0.05
0.27,0.94,0.06
0.27,0.94,0.06
0.27,0.94,0.06
0.28,0.94,0.06
0.28,0.95,0.05
0.28,0.95,0.05
0.28,0.95,0.05
0.28,0.95,0.05
0.28,0.95,0.05
0.28,0.95,0.05
0.28,0.94,0.05
0.28,0.94,0.05
0.28,0.94,0.05
0.28,0.94,0.05
0.28,0.94,0.05
0.28,0.94,0.05
0.28,0.94,0.05
0.27,0.95,0.05
0.27,0.95,0.05
0.27,0.95,0.05
0.28,0.94,0.05
0.28,0.94,0.06
0.28,0.94,0.06
0.28,0.94,0.06
0.28,0.95,0.06
0.28,0.95,0.06
0.28,0.95,0.06
0.28,0.95,0.06
0.28,0.95,0.06
0.28,0.95,0.06
0.28,0.95,0.06
0.28,0.95,0.05
0.28,0.95,0.05
0.28,0.95,0.04
0.27,0.95,0.05
0.28,0.96,0.05
0.29,0.96,0.05
0.3,0.96,0.04
0.31,0.96,0.04
0.33,0.96,0.05
0.33,0.95,0.06
0.33,0.95,0.04
0.33,0.95,0.05
0.33,0.95,0.05
0.35,0.94,0.03
0.36,0.94,0.02
0.37,0.94,0.03
0.36,0.94,0.03
0.36,0.94,0.03
0.37,0.93,0.04
0.38,0.93,0.05
0.39,0.92,0.04
0.39,0.89,0.03
0.37,0.88,0.04
0.35,0.87,0.06
0.37,0.85,0.04
0.38,0.82,0.02
0.37,0.8,0.02
0.36,0.77,0.02
0.36,0.75,0.01
0.35,0.73,0.01
0.34,0.71,-0.01
0.33,0.7,-0.01
0.34,0.68,-0.03
0.36,0.65,-0.05
0.34,0.63,-0.06
0.31,0.61,-0.06
0.29,0.59,-0.04
0.29,0.56,-0.02
0.27,0.54,0
0.25,0.51,0.02
0.23,0.5,0.04
0.18,0.48,0.06
0.16,0.47,0.09
0.19,0.47,0.08
0.24,0.45,0.05
0.26,0.44,0.04
0.24,0.46,0.03
0.2,0.52,0.08
0.22,0.57,0.1
0.21,0.61,0.15
0.24,0.65,0.2
0.28,0.7,0.24
0.3,0.77,0.31
0.34,0.84,0.35
0.38,0.88,0.36
0.37,0.89,0.39
0.37,0.9,0.42
0.44,0.94,0.45
0.54,0.99,0.5
0.61,1.03,0.56
0.65,1.07,0.6
0.68,1.1,0.62
0.65,1.09,0.61
0.61,1.05,0.53
0.58,1.04,0.45
0.55,1.04,0.43
0.52,1.05,0.42
0.5,1.06,0.42
0.46,1.06,0.44
0.42,1.05,0.47
0.39,1.02,0.48
0.37,0.98,0.49
0.38,0.95,0.5
0.41,0.93,0.58
0.45,0.9,0.62
0.47,0.88,0.65
0.52,0.87,0.66
0.61,0.87,0.66
0.76,0.92,0.7
0.93,1,0.78
1.07,1.1,0.89
1.09,1.16,0.97
0.98,1.16,0.98
0.84,1.12,0.94
0.72,1.01,0.88
0.67,0.89,0.79
0.66,0.77,0.72
0.66,0.67,0.67
0.64,0.56,0.62
0.6,0.47,0.58
0.57,0.39,0.54
0.56,0.31,0.51
0.55,0.25,0.5
0.53,0.21,0.51
0.51,0.18,0.52
0.51,0.16,0.53
0.53,0.15,0.54
0.56,0.17,0.57
0.6,0.19,0.61
0.65,0.23,0.66
0.68,0.33,0.68
0.67,0.37,0.7
0.66,0.41,0.71
0.65,0.45,0.72
0.65,0.48,0.73
0.64,0.52,0.72
0.64,0.55,0.72
0.62,0.56,0.72
0.59,0.57,0.71
0.58,0.58,0.7
0.57,0.58,0.7
0.55,0.57,0.69
0.53,0.55,0.68
0.5,0.54,0.67
0.47,0.52,0.67
0.47,0.51,0.66
0.46,0.51,0.64
0.44,0.51,0.61
0.44,0.51,0.61
0.45,0.53,0.62
0.48,0.55,0.62
0.51,0.57,0.64
0.54,0.58,0.65
0.56,0.58,0.66
0.57,0.59,0.67
0.58,0.58,0.67
0.58,0.55,0.66
0.57,0.53,0.64
0.58,0.52,0.62
0.6,0.51,0.6
0.61,0.5,0.59
0.63,0.5,0.59
0.64,0.49,0.59
0.66,0.49,0.59
0.67,0.48,0.59
0.68,0.47,0.59
0.68,0.46,0.58
0.68,0.46,0.58
0.67,0.47,0.58
0.66,0.47,0.59
0.65,0.47,0.6
0.64,0.48,0.6
0.63,0.48,0.6
0.62,0.48,0.6
0.61,0.48,0.6
0.61,0.48,0.61
0.61,0.48,0.61
0.6,0.49,0.62
0.61,0.5,0.62
0.61,0.5,0.62
0.61,0.5,0.63
0.61,0.51,0.63
0.61,0.51,0.62
0.61,0.51,0.62
0.61,0.5,0.62
0.62,0.5,0.61
0.62,0.5,0.61
0.62,0.5,0.6
0.61,0.5,0.6
0.61,0.5,0.6
0.6,0.51,0.61
0.6,0.51,0.61
0.61,0.51,0.61
0.61,0.51,0.6
0.61,0.51,0.6
0.61,0.51,0.6
0.61,0.52,0.61
0.61,0.51,0.61
0.61,0.52,0.61
0.6,0.52,0.6
0.6,0.52,0.6
0.6,0.52,0.6
0.61,0.52,0.6
0.61,0.52,0.6
0.61,0.52,0.6
0.6,0.52,0.59
0.61,0.52,0.6
0.62,0.53,0.59
0.61,0.52,0.59
0.61,0.52,0.59
0.61,0.51,0.59
0.6,0.52,0.59
0.61,0.51,0.59
0.62,0.51,0.59
0.62,0.5,0.58
0.62,0.51,0.57
0.63,0.51,0.57
0.64,0.51,0.58
0.64,0.51,0.58
0.62,0.51,0.59
0.61,0.5,0.59
0.61,0.5,0.59
0.6,0.49,0.6
0.61,0.49,0.6
0.62,0.5,0.6
0.64,0.51,0.59
0.65,0.51,0.6
0.66,0.52,0.61
0.67,0.54,0.61
0.7,0.55,0.63
0.73,0.57,0.68
0.73,0.58,0.72
0.69,0.58,0.74
0.64,0.55,0.74
0.65,0.57,0.76
0.67,0.59,0.77
0.65,0.56,0.71
0.62,0.55,0.63
0.67,0.58,0.61
0.73,0.62,0.64
0.75,0.63,0.66
0.74,0.64,0.67
0.73,0.64,0.65
0.74,0.66,0.65
0.75,0.69,0.66
0.72,0.73,0.65
0.66,0.78,0.65
0.59,0.83,0.66
0.52,0.88,0.66
0.49,0.94,0.65
0.49,1.02,0.63
0.5,1.08,0.61
0.51,1.12,0.58
0.49,1.14,0.49
0.47,1.19,0.41
0.46,1.22,0.36
0.49,1.24,0.31
0.54,1.27,0.25
0.53,1.29,0.19
0.45,1.29,0.15
0.39,1.28,0.12
0.38,1.29,0.16
0.4,1.28,0.22
0.4,1.25,0.25
0.38,1.23,0.25
0.35,1.2,0.24
0.3,1.15,0.22
0.26,1.1,0.2
0.24,1.05,0.19
0.19,0.99,0.18
0.18,0.94,0.15
0.22,0.88,0.13
0.24,0.81,0.11
0.21,0.74,0.1
0.18,0.68,0.09
0.18,0.64,0.07
0.19,0.6,0.04
0.17,0.55,0.02
0.13,0.51,0
0.12,0.49,-0.02
0.13,0.47,-0.03
0.15,0.45,-0.04
0.17,0.43,-0.08
0.2,0.42,-0.11
0.22,0.41,-0.13
0.24,0.42,-0.16
0.24,0.46,-0.18
0.2,0.49,-0.18
0.18,0.53,-0.18
0.16,0.57,-0.18
0.15,0.61,-0.17
0.15,0.66,-0.15
0.15,0.7,-0.14
0.17,0.73,-0.14
0.19,0.77,-0.15
0.22,0.82,-0.15
0.25,0.86,-0.16
0.28,0.89,-0.16
0.3,0.91,-0.15
0.32,0.94,-0.14
0.36,0.95,-0.14
0.38,0.96,-0.13
0.39,0.97,-0.13
0.4,0.98,-0.12
0.42,0.98,-0.12
0.44,0.98,-0.12
0.45,0.98,-0.11
0.46,0.97,-0.09
0.45,0.96,-0.07
0.45,0.96,-0.05
0.44,0.96,0.04
0.36,0.97,0.18
0.33,0.97,0.31
0.39,0.98,0.38
0.31,0.98,0.4
0.26,0.98,0.38
0.24,0.98,0.33
0.24,0.97,0.28
0.27,0.96,0.24
0.3,0.96,0.19
0.3,0.98,0.15
0.3,0.99,0.12
0.31,1,0.08
0.31,1.01,0.04
0.3,1.02,0.02
0.29,1.02,-0.01
0.3,1.01,-0.03
0.31,1,-0.05
0.31,0.98,-0.07
0.3,0.97,-0.07
0.28,0.95,-0.07
0.27,0.94,-0.07
0.26,0.93,-0.07
0.25,0.93,-0.08
0.24,0.93,-0.08
0.24,0.94,-0.08
0.23,0.95,-0.09
0.23,0.94,-0.09
0.23,0.94,-0.07
0.19,0.94,-0.05
0.17,0.94,-0.03
0.16,0.94,0
0.14,0.94,0.03
0.1,0.96,0.06
0.07,0.97,0.09
0.06,0.98,0.1
0.07,0.98,0.11
0.08,0.97,0.11
0.08,0.97,0.12
0.09,0.97,0.12
0.1,0.97,0.1
0.13,0.96,0.08
0.19,0.96,0.06
0.23,0.97,0.05
0.25,0.97,0.04
0.27,0.96,0.03
0.29,0.97,0.02
0.29,0.97,0.01
0.29,0.97,0
0.29,0.96,-0.01
0.3,0.95,-0.01
0.3,0.94,0
0.3,0.93,0.01
0.3,0.93,0.02
0.31,0.93,0.03
0.32,0.93,0.03
0.32,0.93,0.03
0.31,0.93,0.02
0.31,0.94,0.02
0.3,0.94,0.03
0.3,0.94,0.03
0.29,0.95,0.03
0.29,0.95,0.04
0.29,0.95,0.05
0.29,0.95,0.05
0.29,0.96,0.06
0.29,0.95,0.05
0.29,0.95,0.05
0.29,0.94,0.04
0.3,0.93,0.03
0.3,0.93,0.03
0.29,0.93,0.03
0.29,0.93,0.03
0.29,0.93,0.03
0.29,0.94,0.03
0.29,0.94,0.03
0.29,0.94,0.03
0.29,0.94,0.03
0.29,0.94,0.03
0.29,0.95,0.03
0.28,0.95,0.02
0.28,0.95,0.03
0.28,0.94,0.03
0.28,0.94,0.03
0.27,0.93,0.04
0.28,0.93,0.04
0.27,0.94,0.04
0.28,0.95,0.04
0.28,0.95,0.04
0.27,0.94,0.03
0.27,0.94,0.03
0.28,0.94,0.03
0.29,0.93,0.03
0.29,0.93,0.03
0.29,0.93,0.03
0.29,0.94,0.03
0.29,0.94,0.03
0.3,0.94,0.04
0.29,0.94,0.04
0.28,0.94,0.03
0.28,0.94,0.03
0.29,0.93,0.03
0.28,0.93,0.03
0.28,0.94,0.03
0.27,0.94,0.03
0.27,0.94,0.03
0.27,0.94,0.04
0.27,0.94,0.05
0.27,0.94,0.04
0.27,0.95,0.04
0.28,0.95,0.03
0.28,0.95,0.03
0.27,0.95,0.02
0.26,0.95,0.02
0.26,0.95,0.02
0.26,0.95,0.03
0.26,0.95,0.03
0.25,0.95,0.03
0.25,0.95,0.04
0.26,0.94,0.04
0.25,0.94,0.04
0.26,0.94,0.03
0.27,0.95,0.03
0.26,0.96,0.03
0.26,0.96,0.03
0.26,0.95,0.03
0.27,0.95,0.03
0.27,0.95,0.03
0.27,0.95,0.04
0.27,0.94,0.04
0.27,0.94,0.04
0.27,0.94,0.04
0.27,0.94,0.03
0.27,0.95,0.03
0.27,0.95,0.03
0.27,0.95,0.03
0.27,0.94,0.03
0.26,0.95,0.03
0.26,0.95,0.03
0.26,0.95,0.03
0.27,0.95,0.03
0.27,0.95,0.03
0.26,0.96,0.03
0.26,0.95,0.03
0.27,0.95,0.03
0.27,0.95,0.03
0.27,0.95,0.03
0.27,0.94,0.03
0.27,0.94,0.03
0.27,0.94,0.03
0.27,0.95,0.03
0.27,0.95,0.02
0.26,0.95,0.03
0.26,0.95,0.03
0.26,0.96,0.03
0.25,0.95,0.03
0.25,0.95,0.03
0.25,0.95,0.03
0.25,0.95,0.03
0.24,0.95,0.03
0.24,0.95,0.04
0.25,0.95,0.03
0.25,0.95,0.03
0.25,0.95,0.03
0.25,0.95,0.03
0.25,0.95,0.03
0.26,0.95,0.02
0.26,0.95,0.03
0.27,0.95,0.03
0.28,0.95,0.02
0.28,0.95,0.02
0.29,0.95,0.02
0.31,0.95,0.02
0.33,0.96,0
0.35,0.96,-0.01
0.37,0.97,-0.01
0.38,0.98,0.01
0.37,0.98,0.03
0.35,0.98,0.05
0.36,0.99,0.07
0.38,0.99,0.05
0.42,1,0.02
0.49,1.02,0.04
0.53,1.03,0.08
0.49,1,0.12
0.45,1.03,0.21
0.48,1.06,0.25
0.49,1.05,0.26
0.53,1.02,0.26
0.6,1.02,0.29
0.66,1.01,0.31
0.69,1,0.32
0.7,0.96,0.31
0.71,0.93,0.3
0.68,0.9,0.31
0.66,0.86,0.32
0.68,0.83,0.32
0.68,0.79,0.32
0.64,0.76,0.31
0.59,0.75,0.32
0.59,0.73,0.31
0.57,0.69,0.29
0.53,0.67,0.29
0.52,0.67,0.29
0.51,0.65,0.27
0.51,0.62,0.25
0.51,0.6,0.27
0.52,0.59,0.3
0.52,0.59,0.32
0.51,0.59,0.34
0.5,0.59,0.36
0.49,0.56,0.36
0.46,0.53,0.35
0.44,0.5,0.35
0.44,0.48,0.36
0.45,0.46,0.38
0.47,0.45,0.41
0.48,0.45,0.44
0.46,0.44,0.46
0.43,0.42,0.49
0.41,0.4,0.51
0.4,0.39,0.53
0.4,0.37,0.54
0.4,0.34,0.54
0.39,0.32,0.54
0.41,0.32,0.53
0.43,0.31,0.53
0.44,0.32,0.55
0.44,0.32,0.57
0.43,0.32,0.59
0.42,0.32,0.63
0.41,0.32,0.65
0.41,0.3,0.66
0.44,0.27,0.66
0.47,0.26,0.65
0.49,0.27,0.64
0.5,0.27,0.66
0.5,0.29,0.71
0.54,0.33,0.74
0.58,0.33,0.76
0.6,0.34,0.79
0.61,0.34,0.8
0.62,0.32,0.81
0.62,0.31,0.84
0.62,0.31,0.88
0.65,0.32,0.91
0.67,0.33,0.91
0.66,0.36,0.91
0.66,0.37,0.89
0.68,0.37,0.88
0.7,0.35,0.88
0.71,0.33,0.9
0.71,0.3,0.92
0.7,0.28,0.93
0.69,0.26,0.94
0.68,0.24,0.93
0.66,0.23,0.91
0.62,0.21,0.92
0.56,0.19,0.93
0.51,0.18,0.96
0.47,0.18,0.98
0.44,0.15,0.97
0.45,0.08,0.93
0.45,0.14,0.91
0.41,0.12,0.91
0.43,0.13,0.92
0.43,0.17,0.96
0.42,0.18,0.98
0.44,0.22,0.98
0.47,0.3,0.98
0.49,0.35,1
0.52,0.35,1
0.51,0.35,0.97
