Acc_x,Acc_y,Acc_z
0.35,0.05,0.94
0.35,0.05,0.94
0.35,0.05,0.94
0.35,0.05,0.94
0.35,0.05,0.94
0.35,0.05,0.94
0.35,0.05,0.95
0.34,0.04,0.94
0.35,0.05,0.94
0.35,0.05,0.94
0.35,0.05,0.94
0.35,0.04,0.94
0.35,0.05,0.94
0.35,0.05,0.94
0.35,0.05,0.94
0.35,0.05,0.94
0.34,0.05,0.94
0.34,0.05,0.94
0.34,0.05,0.94
0.34,0.05,0.94
0.35,0.05,0.94
0.35,0.05,0.94
0.35,0.04,0.94
0.35,0.04,0.94
0.35,0.04,0.94
0.35,0.04,0.94
0.34,0.04,0.94
0.34,0.04,0.95
0.34,0.05,0.94
0.34,0.04,0.94
0.35,0.04,0.94
0.35,0.04,0.94
0.35,0.05,0.94
0.35,0.05,0.94
0.35,0.04,0.94
0.35,0.04,0.94
0.35,0.04,0.94
0.35,0.05,0.95
0.35,0.05,0.94
0.35,0.05,0.94
0.35,0.05,0.94
0.35,0.05,0.94
0.36,0.05,0.94
0.35,0.05,0.94
0.35,0.05,0.94
0.35,0.05,0.94
0.35,0.05,0.94
0.34,0.05,0.94
0.35,0.05,0.94
0.35,0.04,0.94
0.35,0.05,0.94
0.34,0.05,0.95
0.34,0.04,0.94
0.35,0.04,0.94
0.35,0.05,0.94
0.36,0.04,0.94
0.35,0.04,0.94
0.35,0.04,0.94
0.35,0.04,0.94
0.34,0.05,0.94
0.35,0.05,0.94
0.35,0.05,0.94
0.35,0.05,0.94
0.34,0.04,0.94
0.34,0.05,0.94
0.35,0.05,0.94
0.35,0.05,0.94
0.34,0.05,0.94
0.35,0.05,0.94
0.35,0.05,0.94
0.35,0.04,0.94
0.35,0.04,0.94
0.35,0.04,0.94
0.35,0.04,0.94
0.34,0.05,0.95
0.33,0.05,0.95
0.34,0.05,0.95
0.34,0.05,0.95
0.34,0.04,0.95
0.34,0.04,0.95
0.34,0.04,0.94
0.35,0.05,0.94
0.35,0.05,0.94
0.35,0.05,0.94
0.34,0.05,0.94
0.34,0.05,0.94
0.35,0.05,0.94
0.35,0.05,0.94
0.35,0.05,0.94
0.35,0.05,0.94
0.35,0.05,0.94
0.34,0.05,0.94
0.34,0.05,0.94
0.35,0.05,0.94
0.35,0.05,0.94
0.35,0.05,0.94
0.34,0.05,0.94
0.34,0.05,0.94
0.34,0.05,0.94
0.34,0.05,0.95
0.35,0.05,0.94
0.35,0.05,0.94
0.35,0.05,0.94
0.35,0.05,0.94
0.35,0.05,0.94
0.34,0.05,0.94
0.34,0.05,0.95
0.34,0.05,0.94
0.34,0.05,0.94
0.33,0.05,0.95
0.33,0.05,0.95
0.33,0.05,0.95
0.33,0.04,0.95
0.33,0.04,0.95
0.34,0.05,0.96
0.33,0.04,0.96
0.32,0.04,0.95
0.35,0.06,0.96
0.36,0.06,0.96
0.34,0.04,0.95
0.33,0.04,0.95
0.35,0.04,0.95
0.37,0.04,0.95
0.36,0.04,0.95
0.34,0.06,0.96
0.32,0.05,0.96
0.32,0.03,0.95
0.34,0.03,0.93
0.35,0.01,0.92
0.36,0.02,0.92
0.36,0.02,0.94
0.36,0.02,0.94
0.36,0.02,0.93
0.36,0.01,0.93
0.36,0.01,0.93
0.38,0.01,0.92
0.4,0.01,0.92
0.4,0,0.91
0.4,-0.01,0.91
0.41,0.02,0.92
0.41,0.02,0.93
0.41,0.02,0.94
0.41,0.02,0.94
0.41,0.02,0.93
0.41,0.03,0.92
0.4,0.04,0.9
0.4,0.03,0.88
0.4,0.02,0.88
0.41,0.03,0.9
0.42,0.06,0.92
0.42,0.08,0.91
0.42,0.07,0.9
0.43,0.05,0.9
0.43,0.05,0.91
0.44,0.08,0.92
0.44,0.05,0.92
0.44,0.04,0.92
0.45,0.03,0.91
0.45,0.03,0.91
0.44,0.01,0.91
0.44,0,0.9
0.43,-0.01,0.9
0.41,-0.01,0.9
0.41,-0.01,0.91
0.42,-0.02,0.92
0.43,-0.03,0.92
0.42,-0.03,0.91
0.42,-0.04,0.9
0.42,-0.05,0.9
0.42,-0.05,0.91
0.43,-0.05,0.91
0.43,-0.04,0.9
0.44,-0.05,0.9
0.46,-0.05,0.9
0.46,-0.05,0.89
0.46,-0.05,0.9
0.47,-0.05,0.9
0.46,-0.06,0.89
0.47,-0.06,0.89
0.46,-0.06,0.9
0.46,-0.06,0.9
0.46,-0.06,0.89
0.46,-0.06,0.9
0.46,-0.06,0.89
0.47,-0.06,0.89
0.49,-0.06,0.89
0.5,-0.05,0.89
0.49,-0.05,0.89
0.48,-0.05,0.88
0.48,-0.06,0.88
0.48,-0.05,0.88
0.48,-0.04,0.89
0.48,-0.04,0.89
0.48,-0.04,0.89
0.47,-0.03,0.9
0.47,-0.03,0.89
0.48,-0.02,0.89
0.48,-0.01,0.9
0.49,0,0.9
0.49,0.01,0.9
0.49,0.02,0.89
0.49,0.02,0.89
0.49,0.02,0.88
0.49,0.02,0.88
0.5,0.03,0.88
0.5,0.04,0.88
0.51,0.03,0.87
0.49,0.04,0.88
0.53,0.07,0.88
0.54,0.09,0.86
0.54,0.11,0.87
0.51,0.12,0.89
0.48,0.04,0.89
0.49,-0.02,0.87
0.53,0.06,0.86
0.52,0.09,0.86
0.51,0.07,0.85
0.52,0.07,0.85
0.54,0.07,0.86
0.54,0.07,0.87
0.53,0.08,0.88
0.53,0.08,0.87
0.53,0.07,0.85
0.53,0.07,0.83
0.54,0.06,0.83
0.56,0.06,0.83
0.58,0.06,0.82
0.61,0.05,0.81
0.62,0.04,0.81
0.62,0.02,0.8
0.62,0,0.77
0.61,-0.02,0.74
0.61,-0.04,0.7
0.65,-0.06,0.68
0.66,-0.05,0.66
0.65,-0.1,0.66
0.71,-0.2,0.71
0.74,-0.24,0.81
0.75,-0.18,0.84
0.75,-0.14,0.84
0.72,-0.16,0.82
0.7,-0.2,0.77
0.69,-0.24,0.73
0.69,-0.25,0.71
0.71,-0.21,0.71
0.69,-0.23,0.69
0.68,-0.28,0.67
0.7,-0.31,0.69
0.73,-0.38,0.69
0.76,-0.39,0.7
0.74,-0.35,0.71
0.73,-0.34,0.7
0.72,-0.36,0.68
0.74,-0.35,0.65
0.78,-0.34,0.61
0.79,-0.34,0.59
0.76,-0.36,0.61
0.77,-0.37,0.62
0.78,-0.38,0.63
0.79,-0.38,0.63
0.79,-0.38,0.63
0.79,-0.37,0.63
0.79,-0.37,0.64
0.8,-0.36,0.62
0.8,-0.37,0.6
0.8,-0.37,0.57
0.81,-0.37,0.55
0.83,-0.38,0.55
0.83,-0.38,0.54
0.85,-0.39,0.53
0.86,-0.4,0.52
0.87,-0.41,0.49
0.87,-0.42,0.47
0.87,-0.43,0.45
0.88,-0.42,0.43
0.89,-0.42,0.41
0.89,-0.41,0.39
0.88,-0.41,0.4
0.87,-0.41,0.4
0.85,-0.4,0.39
0.85,-0.41,0.37
0.85,-0.41,0.39
0.84,-0.41,0.38
0.83,-0.42,0.33
0.85,-0.44,0.34
0.82,-0.46,0.36
0.82,-0.47,0.35
0.78,-0.47,0.32
0.78,-0.47,0.26
0.82,-0.46,0.21
0.84,-0.45,0.17
0.89,-0.43,0.21
0.93,-0.42,0.22
0.99,-0.4,0.2
1.04,-0.36,0.23
1.01,-0.36,0.23
0.97,-0.37,0.21
0.93,-0.37,0.22
0.9,-0.38,0.17
0.91,-0.38,0.1
0.92,-0.36,0.06
0.97,-0.34,0
1.04,-0.31,-0.04
1.08,-0.29,-0.06
1.07,-0.25,-0.08
1.03,-0.23,-0.08
1.01,-0.23,-0.1
1,-0.22,-0.12
0.97,-0.21,-0.12
0.98,-0.2,-0.11
0.96,-0.17,-0.09
0.97,-0.17,-0.1
0.97,-0.17,-0.11
0.98,-0.16,-0.12
0.99,-0.15,-0.11
0.95,-0.16,-0.09
0.98,-0.16,-0.08
0.98,-0.17,-0.09
0.93,-0.2,-0.1
0.95,-0.21,-0.11
0.98,-0.22,-0.11
0.83,-0.17,-0.15
1.02,-0.06,-0.15
1.22,-0.08,-0.1
1.15,-0.24,-0.17
1.21,-0.36,-0.28
1.13,-0.42,-0.27
1.05,-0.45,-0.24
1,-0.48,-0.23
0.95,-0.51,-0.21
0.94,-0.54,-0.24
0.99,-0.59,-0.31
0.95,-0.62,-0.38
0.67,-0.58,-0.34
0.5,-0.48,-0.19
0.71,-0.44,-0.14
0.88,-0.46,-0.27
0.95,-0.53,-0.39
0.94,-0.54,-0.45
0.94,-0.55,-0.45
0.95,-0.56,-0.44
0.97,-0.55,-0.47
0.98,-0.53,-0.5
0.92,-0.51,-0.48
0.87,-0.52,-0.45
0.86,-0.53,-0.4
0.83,-0.54,-0.35
0.82,-0.53,-0.32
0.9,-0.54,-0.29
0.99,-0.55,-0.27
1.01,-0.55,-0.24
0.95,-0.56,-0.23
0.93,-0.58,-0.27
0.92,-0.62,-0.35
0.87,-0.66,-0.42
0.87,-0.66,-0.49
0.88,-0.66,-0.52
0.87,-0.65,-0.51
0.85,-0.66,-0.46
0.83,-0.67,-0.42
0.9,-0.67,-0.39
0.97,-0.63,-0.35
0.95,-0.59,-0.36
0.87,-0.61,-0.44
0.9,-0.62,-0.48
0.91,-0.63,-0.48
0.92,-0.63,-0.47
0.93,-0.61,-0.45
0.88,-0.59,-0.42
0.82,-0.59,-0.41
0.78,-0.6,-0.42
0.76,-0.61,-0.43
0.77,-0.61,-0.41
0.77,-0.61,-0.36
0.74,-0.61,-0.33
0.72,-0.62,-0.3
0.68,-0.61,-0.25
0.62,-0.6,-0.25
0.61,-0.62,-0.26
0.63,-0.62,-0.24
0.64,-0.63,-0.27
0.71,-0.65,-0.27
0.75,-0.65,-0.21
0.74,-0.64,-0.16
0.73,-0.65,-0.14
0.71,-0.66,-0.13
0.69,-0.67,-0.09
0.69,-0.68,-0.05
0.7,-0.69,-0.05
0.7,-0.75,-0.03
0.7,-0.77,-0.01
0.71,-0.78,0.01
0.73,-0.79,0.02
0.75,-0.78,0.04
0.73,-0.76,0.04
0.7,-0.75,0.03
0.67,-0.76,0.02
0.64,-0.75,0.01
0.6,-0.74,0.01
0.58,-0.73,0.02
0.57,-0.73,0.02
0.56,-0.72,0.04
0.55,-0.71,0.07
0.54,-0.7,0.09
0.51,-0.7,0.1
0.49,-0.71,0.1
0.49,-0.72,0.1
0.49,-0.72,0.1
0.5,-0.71,0.12
0.51,-0.7,0.14
0.52,-0.71,0.15
0.53,-0.72,0.17
0.53,-0.73,0.19
0.51,-0.74,0.21
0.49,-0.75,0.2
0.47,-0.74,0.18
0.48,-0.74,0.17
0.49,-0.73,0.18
0.49,-0.72,0.19
0.48,-0.72,0.21
0.46,-0.73,0.21
0.45,-0.73,0.21
0.45,-0.73,0.2
0.45,-0.74,0.19
0.45,-0.73,0.18
0.46,-0.73,0.18
0.46,-0.73,0.19
0.46,-0.74,0.2
0.46,-0.74,0.22
0.46,-0.74,0.24
0.47,-0.76,0.24
0.48,-0.78,0.24
0.48,-0.79,0.24
0.49,-0.8,0.24
0.49,-0.82,0.24
0.5,-0.84,0.24
0.52,-0.85,0.24
0.53,-0.86,0.24
0.54,-0.86,0.25
0.54,-0.86,0.25
0.53,-0.86,0.25
0.54,-0.87,0.25
0.56,-0.87,0.25
0.56,-0.86,0.25
0.56,-0.85,0.25
0.55,-0.84,0.25
0.54,-0.83,0.24
0.55,-0.83,0.22
0.55,-0.83,0.22
0.55,-0.82,0.22
0.53,-0.8,0.22
0.52,-0.79,0.22
0.51,-0.78,0.22
0.5,-0.77,0.22
0.49,-0.76,0.22
0.49,-0.74,0.22
0.48,-0.73,0.21
0.47,-0.71,0.2
0.45,-0.7,0.19
0.45,-0.69,0.19
0.44,-0.69,0.19
0.43,-0.67,0.19
0.43,-0.66,0.18
0.42,-0.64,0.19
0.43,-0.62,0.2
0.44,-0.6,0.18
0.44,-0.58,0.17
0.44,-0.57,0.12
0.47,-0.57,0.12
0.46,-0.57,0.14
0.45,-0.59,0.17
0.45,-0.6,0.14
0.47,-0.63,0.16
0.48,-0.65,0.23
0.44,-0.6,0.2
0.45,-0.59,0.14
0.52,-0.61,0.11
0.57,-0.63,0.11
0.6,-0.64,0.12
0.63,-0.65,0.12
0.68,-0.66,0.09
0.73,-0.67,0.07
0.74,-0.67,0.07
0.74,-0.66,0.06
0.73,-0.64,0.03
0.73,-0.61,0
0.74,-0.6,-0.02
0.77,-0.61,-0.04
0.82,-0.63,-0.06
0.85,-0.64,-0.03
0.87,-0.64,0.01
0.85,-0.63,-0.02
0.86,-0.63,-0.1
0.89,-0.62,-0.2
1.02,-0.61,-0.23
1.02,-0.63,-0.2
0.97,-0.66,-0.18
0.95,-0.68,-0.17
0.94,-0.69,-0.12
0.89,-0.67,-0.05
0.9,-0.64,0
0.96,-0.6,0.01
0.99,-0.56,0.03
0.99,-0.55,0.04
1.01,-0.57,0.04
1.04,-0.58,0.05
1.03,-0.6,0.09
0.98,-0.59,0.12
0.94,-0.57,0.12
0.93,-0.56,0.11
0.92,-0.55,0.11
0.95,-0.53,0.12
0.99,-0.52,0.13
0.97,-0.52,0.12
0.96,-0.52,0.11
0.96,-0.51,0.11
0.98,-0.51,0.09
1.08,-0.53,0.08
1.08,-0.52,0.08
0.99,-0.49,0.03
1.03,-0.5,0.05
1.03,-0.49,0.06
1.03,-0.49,0.07
1.04,-0.47,0.08
1.05,-0.45,0.07
1.05,-0.44,0.05
1.07,-0.44,0.03
1.06,-0.41,0.05
1.06,-0.37,0.08
1.09,-0.39,0.08
1.08,-0.39,0.08
1.06,-0.37,0.09
1.07,-0.36,0.09
1.06,-0.35,0.08
1.03,-0.34,0.08
1.02,-0.33,0.08
1.01,-0.32,0.09
1.03,-0.32,0.09
1.02,-0.32,0.11
1.01,-0.31,0.13
0.99,-0.32,0.15
0.97,-0.33,0.19
1.03,-0.29,0.23
1.13,-0.28,0.21
1.21,-0.32,0.13
1.2,-0.34,0.01
1.14,-0.35,0
1.1,-0.33,0.04
1.06,-0.31,0.09
1,-0.31,0.15
0.97,-0.31,0.15
0.95,-0.29,0.17
0.87,-0.28,0.28
0.82,-0.29,0.33
0.85,-0.29,0.27
0.94,-0.29,0.24
0.97,-0.28,0.24
0.92,-0.25,0.24
0.93,-0.25,0.2
0.99,-0.25,0.15
1,-0.26,0.13
0.99,-0.25,0.15
1,-0.25,0.19
0.98,-0.26,0.23
0.96,-0.26,0.27
0.96,-0.26,0.29
0.91,-0.27,0.31
0.9,-0.26,0.32
0.92,-0.25,0.32
0.93,-0.26,0.31
0.96,-0.28,0.29
0.95,-0.28,0.3
0.93,-0.26,0.29
0.93,-0.24,0.31
0.95,-0.23,0.34
0.95,-0.24,0.36
0.9,-0.26,0.38
0.89,-0.25,0.4
0.94,-0.26,0.38
0.95,-0.26,0.38
0.93,-0.25,0.39
0.91,-0.25,0.4
0.89,-0.25,0.4
0.91,-0.25,0.4
0.94,-0.26,0.39
0.97,-0.26,0.4
0.99,-0.26,0.41
0.98,-0.26,0.4
0.97,-0.27,0.4
0.95,-0.26,0.41
0.91,-0.25,0.43
0.87,-0.25,0.46
0.85,-0.25,0.49
0.84,-0.26,0.49
0.87,-0.26,0.46
0.87,-0.25,0.46
0.84,-0.24,0.47
0.82,-0.26,0.47
0.81,-0.22,0.46
0.86,-0.23,0.49
0.86,-0.25,0.5
0.87,-0.24,0.48
0.82,-0.23,0.5
0.77,-0.23,0.53
0.76,-0.25,0.55
0.75,-0.23,0.58
0.76,-0.21,0.59
0.75,-0.21,0.59
0.69,-0.22,0.62
0.66,-0.2,0.64
0.67,-0.19,0.65
0.65,-0.19,0.67
0.68,-0.18,0.69
0.75,-0.19,0.7
0.74,-0.19,0.73
0.72,-0.19,0.74
0.71,-0.19,0.74
0.71,-0.18,0.73
0.7,-0.18,0.71
0.7,-0.18,0.68
0.7,-0.18,0.67
0.71,-0.19,0.66
0.72,-0.19,0.65
0.73,-0.19,0.64
0.72,-0.22,0.61
0.72,-0.22,0.59
0.71,-0.22,0.58
0.7,-0.22,0.57
0.69,-0.22,0.57
0.69,-0.21,0.56
0.68,-0.21,0.56
0.68,-0.22,0.55
0.7,-0.23,0.52
0.73,-0.23,0.5
0.75,-0.24,0.48
0.76,-0.25,0.48
0.75,-0.24,0.48
0.73,-0.25,0.49
0.75,-0.24,0.49
0.77,-0.23,0.49
0.81,-0.23,0.49
0.87,-0.22,0.49
0.91,-0.21,0.48
0.93,-0.21,0.5
1.02,-0.2,0.51
1.05,-0.22,0.51
0.96,-0.2,0.47
1.12,-0.15,0.69
1.08,-0.39,0.74
0.89,-0.44,0.57
0.98,-0.24,0.34
0.78,-0.34,-0.19
0.63,-0.26,-0.45
0.99,-0.28,0.02
1.24,-0.21,0.52
1.3,-0.09,0.56
1.29,-0.37,0.47
1.09,-0.48,0.41
0.9,-0.39,0.42
0.81,-0.32,0.44
0.81,-0.32,0.45
0.84,-0.32,0.47
0.85,-0.32,0.49
0.84,-0.32,0.5
0.85,-0.3,0.52
0.84,-0.29,0.54
0.84,-0.28,0.54
0.83,-0.27,0.54
0.83,-0.27,0.54
0.83,-0.26,0.54
0.83,-0.27,0.53
0.84,-0.27,0.52
0.84,-0.27,0.51
0.85,-0.27,0.51
0.86,-0.28,0.5
0.86,-0.28,0.48
0.86,-0.28,0.48
0.87,-0.29,0.47
0.87,-0.28,0.47
0.87,-0.28,0.47
0.87,-0.28,0.46
0.87,-0.28,0.46
0.87,-0.28,0.45
0.87,-0.29,0.45
0.87,-0.29,0.45
0.87,-0.29,0.45
0.87,-0.3,0.45
0.86,-0.3,0.45
0.86,-0.3,0.46
0.86,-0.31,0.46
0.86,-0.32,0.46
0.86,-0.31,0.46
0.86,-0.31,0.47
0.85,-0.31,0.47
0.86,-0.31,0.47
0.85,-0.31,0.48
0.85,-0.3,0.48
0.85,-0.3,0.48
0.84,-0.29,0.48
0.84,-0.29,0.49
0.84,-0.28,0.49
0.84,-0.28,0.49
0.84,-0.28,0.49
0.85,-0.28,0.49
0.85,-0.28,0.49
0.85,-0.27,0.49
0.85,-0.27,0.5
0.85,-0.27,0.5
0.84,-0.27,0.5
0.84,-0.27,0.5
0.84,-0.28,0.5
0.84,-0.28,0.5
0.84,-0.28,0.5
0.84,-0.28,0.51
0.83,-0.29,0.51
0.83,-0.29,0.51
0.83,-0.29,0.51
0.83,-0.29,0.51
0.83,-0.29,0.51
0.83,-0.29,0.51
0.83,-0.28,0.51
0.83,-0.28,0.51
0.83,-0.29,0.51
0.83,-0.28,0.52
0.83,-0.28,0.52
0.83,-0.29,0.52
0.83,-0.29,0.51
0.83,-0.28,0.51
0.83,-0.28,0.51
0.84,-0.28,0.51
0.84,-0.27,0.51
0.83,-0.27,0.51
0.83,-0.27,0.52
0.83,-0.26,0.52
0.83,-0.26,0.52
0.83,-0.26,0.52
0.83,-0.26,0.52
0.82,-0.26,0.52
0.83,-0.25,0.54
0.84,-0.25,0.55
0.84,-0.25,0.54
0.83,-0.26,0.52
0.81,-0.26,0.52
0.82,-0.26,0.53
0.82,-0.27,0.53
0.82,-0.28,0.54
0.82,-0.28,0.53
0.82,-0.28,0.53
0.83,-0.28,0.53
0.83,-0.28,0.53
0.83,-0.29,0.53
0.83,-0.29,0.52
0.83,-0.28,0.53
0.83,-0.27,0.54
0.83,-0.28,0.54
0.81,-0.27,0.55
0.81,-0.26,0.55
0.82,-0.26,0.55
0.82,-0.26,0.56
0.81,-0.27,0.57
0.79,-0.26,0.57
0.78,-0.25,0.59
0.78,-0.25,0.59
0.78,-0.25,0.6
0.78,-0.25,0.6
0.78,-0.25,0.6
0.79,-0.24,0.6
0.79,-0.24,0.59
0.8,-0.23,0.6
0.79,-0.23,0.6
0.79,-0.23,0.6
0.81,-0.24,0.59
0.81,-0.23,0.58
0.81,-0.22,0.58
0.81,-0.22,0.57
0.8,-0.23,0.57
0.81,-0.24,0.57
0.81,-0.24,0.56
0.81,-0.24,0.56
0.82,-0.24,0.55
0.82,-0.24,0.54
0.83,-0.23,0.54
0.83,-0.23,0.54
0.83,-0.23,0.54
0.83,-0.23,0.54
0.83,-0.23,0.54
0.83,-0.23,0.54
0.83,-0.23,0.54
0.83,-0.23,0.54
0.83,-0.23,0.54
0.83,-0.23,0.55
0.83,-0.23,0.56
0.83,-0.24,0.55
0.82,-0.24,0.54
0.82,-0.23,0.54
0.83,-0.23,0.55
0.83,-0.23,0.55
0.82,-0.23,0.55
0.82,-0.23,0.55
0.82,-0.23,0.55
0.83,-0.24,0.55
0.83,-0.24,0.54
0.81,-0.24,0.54
0.81,-0.24,0.54
0.83,-0.24,0.54
0.82,-0.24,0.55
0.82,-0.25,0.55
0.83,-0.25,0.55
0.82,-0.26,0.55
0.82,-0.26,0.56
0.82,-0.26,0.56
0.82,-0.26,0.56
0.84,-0.26,0.56
0.85,-0.26,0.55
0.87,-0.26,0.55
0.87,-0.26,0.59
0.81,-0.26,0.61
0.83,-0.24,0.63
0.9,-0.25,0.63
0.9,-0.25,0.64
1,-0.24,0.63
1.22,-0.26,0.54
1.21,-0.24,0.56
1.08,-0.18,0.75
1.12,-0.18,0.85
1.1,-0.2,0.77
0.97,-0.21,0.65
0.85,-0.26,0.61
0.78,-0.28,0.58
0.77,-0.29,0.51
0.76,-0.33,0.43
0.74,-0.36,0.38
0.7,-0.38,0.36
0.65,-0.39,0.41
0.62,-0.38,0.44
0.61,-0.38,0.45
0.6,-0.37,0.46
0.61,-0.36,0.46
0.65,-0.36,0.45
0.68,-0.35,0.44
0.7,-0.35,0.44
0.69,-0.35,0.45
0.66,-0.35,0.46
0.62,-0.35,0.48
0.62,-0.35,0.51
0.62,-0.35,0.53
0.63,-0.34,0.57
0.66,-0.34,0.59
0.7,-0.35,0.6
0.73,-0.35,0.62
0.76,-0.34,0.65
0.76,-0.33,0.68
0.77,-0.33,0.71
0.78,-0.31,0.75
0.78,-0.31,0.78
0.73,-0.32,0.81
0.69,-0.34,0.83
0.66,-0.34,0.83
0.62,-0.33,0.83
0.61,-0.32,0.79
0.63,-0.33,0.8
0.6,-0.33,0.81
0.59,-0.34,0.79
0.58,-0.33,0.77
0.56,-0.32,0.77
0.57,-0.33,0.76
0.63,-0.33,0.73
0.59,-0.32,0.77
0.54,-0.32,0.8
0.52,-0.34,0.81
0.49,-0.34,0.84
0.43,-0.33,0.86
0.37,-0.33,0.85
0.4,-0.33,0.84
0.4,-0.36,0.85
0.4,-0.34,0.83
0.46,-0.33,0.8
0.5,-0.36,0.79
0.51,-0.38,0.78
0.52,-0.36,0.77
0.51,-0.33,0.74
0.48,-0.32,0.75
0.43,-0.3,0.82
0.45,-0.33,0.87
0.54,-0.39,0.83
0.56,-0.39,0.78
0.5,-0.36,0.8
0.5,-0.32,0.8
0.52,-0.3,0.79
0.52,-0.28,0.79
0.51,-0.28,0.81
0.51,-0.28,0.86
0.56,-0.3,0.81
0.67,-0.34,0.74
0.71,-0.33,0.77
0.64,-0.34,0.76
0.68,-0.32,0.68
0.74,-0.32,0.6
0.72,-0.33,0.59
0.74,-0.32,0.6
0.76,-0.33,0.59
0.79,-0.34,0.57
0.85,-0.35,0.56
0.91,-0.35,0.52
1.04,-0.35,0.52
1.04,-0.41,0.56
0.96,-0.47,0.56
0.96,-0.49,0.5
0.96,-0.47,0.45
0.94,-0.46,0.42
0.96,-0.49,0.39
0.98,-0.55,0.29
1,-0.58,0.23
1.07,-0.58,0.14
1.13,-0.57,0.12
1.16,-0.57,0.18
1.17,-0.6,0.24
1.17,-0.67,0.22
1.15,-0.68,0.13
1.08,-0.66,0.05
1.03,-0.68,0.04
1.06,-0.72,0
1.1,-0.67,-0.08
1.07,-0.67,-0.1
1.04,-0.73,-0.14
1.02,-0.75,-0.18
1.11,-0.74,-0.21
1.19,-0.72,-0.19
1.13,-0.67,-0.05
1.05,-0.62,0.03
1,-0.65,0
0.94,-0.72,-0.09
0.93,-0.71,-0.16
1.01,-0.65,-0.11
0.89,-0.64,-0.06
0.74,-0.66,-0.07
0.75,-0.68,-0.07
0.76,-0.7,-0.08
0.67,-0.7,-0.05
0.63,-0.7,-0.03
0.66,-0.72,-0.03
0.76,-0.74,-0.04
0.8,-0.73,-0.05
0.77,-0.72,-0.06
0.72,-0.72,-0.06
0.65,-0.73,-0.07
0.57,-0.74,-0.05
0.5,-0.75,0.01
0.49,-0.75,0.07
0.49,-0.76,0.13
0.49,-0.76,0.17
0.51,-0.75,0.2
0.49,-0.75,0.2
0.44,-0.76,0.18
0.44,-0.76,0.32
0.42,-0.73,0.45
0.41,-0.69,0.31
0.45,-0.72,0.16
0.4,-0.78,0.18
0.31,-0.74,0.22
0.32,-0.66,0.22
0.4,-0.68,0.23
0.43,-0.7,0.25
0.39,-0.7,0.31
0.36,-0.67,0.33
0.33,-0.68,0.34
0.3,-0.68,0.35
0.28,-0.67,0.35
0.27,-0.67,0.35
0.25,-0.64,0.36
0.24,-0.63,0.36
0.25,-0.63,0.35
0.23,-0.63,0.34
0.23,-0.64,0.34
0.22,-0.64,0.34
0.21,-0.65,0.33
0.21,-0.67,0.32
0.22,-0.68,0.31
0.23,-0.71,0.3
0.22,-0.74,0.29
0.21,-0.76,0.28
0.19,-0.77,0.28
0.18,-0.79,0.29
0.17,-0.79,0.31
0.17,-0.79,0.33
0.18,-0.8,0.35
0.18,-0.82,0.37
0.18,-0.83,0.37
0.18,-0.85,0.36
0.18,-0.88,0.35
0.19,-0.9,0.36
0.18,-0.9,0.38
0.17,-0.89,0.38
0.18,-0.89,0.39
0.2,-0.89,0.39
0.21,-0.9,0.39
0.22,-0.91,0.39
0.23,-0.91,0.39
0.24,-0.92,0.4
0.25,-0.92,0.41
0.25,-0.91,0.42
0.25,-0.91,0.44
0.26,-0.91,0.43
0.27,-0.9,0.44
0.27,-0.88,0.45
0.28,-0.89,0.43
0.29,-0.89,0.41
0.28,-0.88,0.41
0.3,-0.88,0.4
0.33,-0.88,0.39
0.34,-0.88,0.39
0.34,-0.88,0.41
0.33,-0.88,0.42
0.32,-0.87,0.43
0.32,-0.87,0.44
0.32,-0.87,0.43
0.32,-0.88,0.42
0.33,-0.88,0.42
0.33,-0.88,0.42
0.33,-0.88,0.42
0.32,-0.89,0.42
0.31,-0.89,0.42
0.31,-0.89,0.42
0.32,-0.88,0.43
0.34,-0.88,0.43
0.36,-0.91,0.42
0.32,-0.88,0.43
0.28,-0.86,0.43
0.32,-0.88,0.42
0.34,-0.88,0.43
0.32,-0.87,0.43
0.3,-0.87,0.44
0.31,-0.86,0.45
0.31,-0.86,0.45
0.31,-0.86,0.45
0.31,-0.86,0.44
0.32,-0.86,0.43
0.32,-0.86,0.42
0.3,-0.86,0.42
0.3,-0.87,0.42
0.3,-0.87,0.42
0.3,-0.86,0.43
0.3,-0.87,0.46
0.31,-0.87,0.46
0.3,-0.87,0.46
0.3,-0.87,0.46
0.3,-0.88,0.45
0.31,-0.88,0.43
0.32,-0.89,0.42
0.33,-0.89,0.42
0.33,-0.89,0.43
0.32,-0.89,0.44
0.32,-0.89,0.44
0.31,-0.89,0.45
0.31,-0.89,0.45
0.32,-0.9,0.44
0.32,-0.89,0.44
0.3,-0.88,0.43
0.3,-0.89,0.42
0.31,-0.89,0.41
0.31,-0.87,0.42
0.3,-0.87,0.42
0.29,-0.87,0.42
0.27,-0.88,0.41
0.28,-0.89,0.4
0.32,-0.9,0.39
0.33,-0.91,0.38
0.31,-0.91,0.38
0.31,-0.92,0.37
0.31,-0.9,0.37
0.33,-0.89,0.38
0.33,-0.89,0.39
0.33,-0.88,0.4
0.34,-0.88,0.4
0.34,-0.88,0.41
0.34,-0.87,0.41
0.36,-0.88,0.4
0.39,-0.88,0.38
0.42,-0.87,0.35
0.44,-0.87,0.34
0.45,-0.87,0.34
0.43,-0.86,0.35
0.4,-0.85,0.37
0.38,-0.84,0.38
0.37,-0.83,0.4
0.37,-0.83,0.4
0.38,-0.83,0.4
0.39,-0.82,0.39
0.41,-0.83,0.38
0.42,-0.84,0.37
0.42,-0.84,0.37
0.4,-0.85,0.38
0.38,-0.84,0.38
0.38,-0.84,0.38
0.38,-0.84,0.39
0.38,-0.84,0.38
0.38,-0.85,0.38
0.39,-0.85,0.38
0.39,-0.85,0.38
0.39,-0.86,0.39
0.39,-0.86,0.39
0.39,-0.86,0.4
0.39,-0.87,0.4
0.4,-0.88,0.39
0.4,-0.89,0.39
0.4,-0.89,0.38
0.39,-0.89,0.37
0.39,-0.88,0.37
0.39,-0.88,0.37
0.4,-0.88,0.37
0.4,-0.88,0.37
0.4,-0.87,0.38
0.41,-0.87,0.38
0.4,-0.88,0.38
0.4,-0.87,0.37
0.4,-0.86,0.36
0.39,-0.86,0.35
0.39,-0.87,0.35
0.39,-0.87,0.35
0.39,-0.87,0.36
0.38,-0.87,0.37
0.38,-0.87,0.37
0.38,-0.87,0.36
0.38,-0.87,0.36
0.37,-0.87,0.35
0.36,-0.88,0.35
0.36,-0.88,0.35
0.36,-0.88,0.36
0.36,-0.87,0.35
0.37,-0.87,0.35
0.37,-0.87,0.35
0.37,-0.87,0.35
0.37,-0.87,0.36
0.36,-0.87,0.36
0.37,-0.87,0.36
0.37,-0.86,0.37
0.37,-0.86,0.37
0.36,-0.86,0.36
0.36,-0.87,0.36
0.36,-0.87,0.36
0.36,-0.87,0.36
0.36,-0.87,0.37
0.36,-0.87,0.37
0.36,-0.87,0.38
0.36,-0.87,0.37
0.36,-0.87,0.37
0.36,-0.87,0.37
0.37,-0.87,0.37
0.37,-0.88,0.37
0.37,-0.88,0.37
0.37,-0.87,0.37
0.36,-0.87,0.37
0.36,-0.87,0.36
0.37,-0.87,0.37
0.37,-0.86,0.37
0.37,-0.86,0.38
0.38,-0.85,0.37
0.38,-0.85,0.37
0.39,-0.84,0.37
0.39,-0.84,0.37
0.39,-0.84,0.36
0.39,-0.84,0.36
0.4,-0.84,0.36
0.41,-0.85,0.36
0.41,-0.85,0.37
0.42,-0.85,0.37
0.42,-0.85,0.37
0.42,-0.85,0.38
0.41,-0.85,0.38
0.42,-0.85,0.38
0.42,-0.86,0.38
0.43,-0.86,0.38
0.43,-0.86,0.38
0.43,-0.86,0.38
0.42,-0.86,0.38
0.42,-0.86,0.38
0.42,-0.87,0.38
0.42,-0.88,0.37
0.43,-0.88,0.37
0.43,-0.88,0.36
0.43,-0.88,0.36
0.43,-0.88,0.37
0.43,-0.87,0.37
0.43,-0.87,0.37
0.43,-0.86,0.36
0.43,-0.86,0.36
0.43,-0.86,0.36
0.43,-0.86,0.35
0.42,-0.85,0.34
0.43,-0.85,0.34
0.44,-0.85,0.34
0.44,-0.85,0.35
0.44,-0.85,0.36
0.44,-0.86,0.36
0.43,-0.86,0.37
0.43,-0.86,0.36
0.43,-0.86,0.36
0.43,-0.86,0.36
0.43,-0.86,0.35
0.43,-0.86,0.35
0.44,-0.86,0.35
0.44,-0.85,0.35
0.44,-0.85,0.36
0.44,-0.85,0.36
0.44,-0.85,0.36
0.44,-0.85,0.36
0.43,-0.85,0.35
0.44,-0.85,0.35
0.44,-0.85,0.35
0.43,-0.85,0.33
0.43,-0.86,0.33
0.44,-0.86,0.34
0.44,-0.86,0.36
0.43,-0.86,0.37
0.42,-0.86,0.38
0.42,-0.86,0.38
0.43,-0.87,0.37
0.43,-0.87,0.37
0.42,-0.87,0.37
0.42,-0.86,0.36
0.42,-0.86,0.36
0.42,-0.87,0.36
0.42,-0.87,0.36
0.42,-0.88,0.36
0.41,-0.87,0.36
0.42,-0.87,0.36
0.42,-0.87,0.36
0.42,-0.87,0.36
0.42,-0.86,0.36
0.42,-0.85,0.36
0.42,-0.85,0.37
0.42,-0.85,0.37
0.42,-0.85,0.36
0.42,-0.85,0.36
0.42,-0.85,0.36
0.42,-0.85,0.36
0.41,-0.85,0.36
0.4,-0.85,0.36
0.41,-0.85,0.37
0.42,-0.85,0.37
0.43,-0.84,0.36
0.42,-0.84,0.36
0.41,-0.84,0.36
0.41,-0.84,0.36
0.41,-0.83,0.37
0.41,-0.83,0.37
0.41,-0.83,0.37
0.42,-0.83,0.37
0.42,-0.83,0.37
0.41,-0.83,0.37
0.41,-0.82,0.37
0.41,-0.79,0.39
0.42,-0.78,0.39
0.42,-0.77,0.39
0.43,-0.76,0.39
0.44,-0.77,0.39
0.44,-0.76,0.39
0.44,-0.73,0.38
0.44,-0.72,0.38
0.44,-0.7,0.41
0.42,-0.68,0.43
0.42,-0.66,0.44
0.44,-0.65,0.46
0.47,-0.65,0.46
0.47,-0.67,0.44
0.45,-0.7,0.44
0.42,-0.7,0.46
0.39,-0.7,0.48
0.38,-0.69,0.49
0.35,-0.69,0.5
0.35,-0.7,0.5
0.38,-0.71,0.49
0.4,-0.73,0.5
0.42,-0.76,0.49
0.39,-0.78,0.45
0.35,-0.78,0.42
0.34,-0.77,0.41
0.35,-0.76,0.42
0.39,-0.75,0.43
0.37,-0.74,0.44
0.38,-0.75,0.45
0.41,-0.75,0.43
0.42,-0.76,0.41
0.43,-0.75,0.39
0.44,-0.74,0.36
0.46,-0.72,0.34
0.49,-0.73,0.33
0.53,-0.75,0.31
0.55,-0.76,0.3
0.56,-0.78,0.29
0.57,-0.78,0.28
0.55,-0.77,0.27
0.53,-0.75,0.26
0.51,-0.73,0.23
0.49,-0.73,0.21
0.48,-0.73,0.2
0.48,-0.74,0.18
0.5,-0.76,0.17
0.51,-0.78,0.15
0.53,-0.79,0.11
0.56,-0.79,0.08
0.58,-0.75,0.07
0.59,-0.7,0.04
0.59,-0.67,-0.01
0.61,-0.68,0.02
0.64,-0.72,0.06
0.64,-0.75,0.06
0.59,-0.75,0.05
0.58,-0.73,0.04
0.61,-0.7,-0.02
0.65,-0.67,-0.08
0.68,-0.66,-0.09
0.72,-0.65,-0.07
0.77,-0.64,0
0.78,-0.63,0.09
0.81,-0.59,0.11
0.86,-0.57,0.12
0.87,-0.57,0.17
0.86,-0.55,0.26
0.87,-0.51,0.32
0.9,-0.49,0.3
0.94,-0.5,0.23
0.97,-0.51,0.16
0.99,-0.51,0.11
1.04,-0.51,0.08
1.09,-0.49,0.09
1.1,-0.48,0.13
1.11,-0.46,0.18
1.12,-0.43,0.22
1.13,-0.4,0.31
1.13,-0.38,0.33
1.12,-0.38,0.34
1.07,-0.35,0.37
1.05,-0.33,0.39
1.08,-0.33,0.39
1.1,-0.32,0.41
1.12,-0.29,0.41
1.14,-0.27,0.4
1.15,-0.25,0.39
1.18,-0.24,0.38
1.16,-0.24,0.38
1.09,-0.24,0.4
1.07,-0.22,0.4
1.07,-0.24,0.39
1.04,-0.24,0.41
1,-0.24,0.42
0.99,-0.24,0.43
0.98,-0.23,0.43
0.97,-0.22,0.41
0.98,-0.22,0.38
1.02,-0.21,0.34
1.05,-0.2,0.32
1.07,-0.2,0.32
1.06,-0.21,0.33
1,-0.2,0.38
0.96,-0.18,0.45
0.87,-0.18,0.48
0.88,-0.16,0.49
0.91,-0.16,0.48
0.91,-0.15,0.49
0.93,-0.14,0.48
1.04,-0.13,0.5
1.06,-0.13,0.57
0.89,-0.15,0.58
0.87,-0.15,0.54
0.97,-0.14,0.51
0.98,-0.15,0.5
0.95,-0.17,0.51
0.93,-0.18,0.5
0.96,-0.19,0.49
0.95,-0.2,0.51
0.86,-0.21,0.55
0.78,-0.2,0.58
0.78,-0.18,0.57
0.85,-0.16,0.55
0.85,-0.17,0.56
0.82,-0.17,0.63
0.82,-0.16,0.68
0.76,-0.18,0.69
0.71,-0.18,0.71
0.64,-0.15,0.72
0.6,-0.14,0.66
0.62,-0.08,0.62
0.64,-0.04,0.6
0.71,-0.07,0.6
0.76,-0.08,0.63
0.78,-0.08,0.68
0.77,-0.08,0.72
0.75,-0.08,0.75
0.69,-0.08,0.78
0.68,-0.08,0.76
0.69,-0.09,0.72
0.66,-0.08,0.7
0.65,-0.09,0.68
0.64,-0.12,0.63
0.6,-0.12,0.65
0.59,-0.11,0.68
0.62,-0.11,0.69
0.62,-0.1,0.7
0.58,-0.11,0.71
0.61,-0.11,0.71
0.62,-0.11,0.7
0.61,-0.12,0.68
0.63,-0.13,0.65
0.66,-0.11,0.61
0.7,-0.08,0.66
0.71,0.01,0.82
0.65,-0.02,0.99
0.81,-0.16,0.92
0.68,-0.17,0.91
0.67,-0.22,0.91
0.65,-0.21,0.91
0.66,-0.2,0.92
0.68,-0.2,0.93
0.7,-0.2,0.93
0.7,-0.21,0.92
0.69,-0.21,0.9
0.66,-0.2,0.87
0.65,-0.19,0.85
0.66,-0.21,0.84
0.67,-0.21,0.83
0.67,-0.21,0.84
0.68,-0.23,0.85
0.67,-0.23,0.87
0.65,-0.23,0.87
0.65,-0.23,0.85
0.67,-0.24,0.82
0.7,-0.26,0.79
0.69,-0.29,0.78
0.68,-0.31,0.77
0.67,-0.32,0.76
0.65,-0.33,0.75
0.62,-0.34,0.75
0.58,-0.34,0.76
0.52,-0.35,0.76
0.5,-0.35,0.79
0.48,-0.35,0.8
0.44,-0.35,0.79
0.41,-0.35,0.79
0.38,-0.35,0.79
0.37,-0.35,0.77
0.39,-0.34,0.74
0.4,-0.34,0.71
0.4,-0.34,0.66
0.38,-0.36,0.61
0.38,-0.37,0.56
0.38,-0.37,0.54
0.38,-0.35,0.53
0.4,-0.34,0.48
0.44,-0.32,0.48
0.49,-0.28,0.53
0.5,-0.28,0.49
0.55,-0.27,0.42
0.6,-0.24,0.38
0.63,-0.2,0.35
0.66,-0.14,0.35
0.72,-0.11,0.33
0.84,-0.09,0.32
0.93,-0.06,0.32
0.95,-0.07,0.32
0.97,-0.06,0.37
0.98,-0.05,0.38
0.91,-0.04,0.38
0.86,-0.05,0.38
0.9,-0.06,0.31
1.07,-0.05,0.25
1.22,-0.04,0.22
1.25,-0.04,0.21
1.24,-0.06,0.26
1.25,-0.1,0.3
1.24,-0.09,0.33
1.2,-0.08,0.41
1.13,-0.13,0.47
1.15,-0.16,0.48
1.19,-0.18,0.48
1.21,-0.22,0.45
1.22,-0.24,0.41
1.22,-0.24,0.4
1.17,-0.24,0.38
1.09,-0.23,0.38
1,-0.22,0.38
0.93,-0.21,0.37
0.86,-0.2,0.38
0.81,-0.19,0.38
0.78,-0.19,0.38
0.76,-0.19,0.37
0.76,-0.21,0.36
0.83,-0.2,0.37
0.89,-0.21,0.37
0.94,-0.2,0.37
0.99,-0.19,0.36
1.02,-0.18,0.34
1.06,-0.17,0.33
1.08,-0.16,0.34
1.1,-0.17,0.34
1.1,-0.18,0.34
1.05,-0.18,0.33
1,-0.18,0.34
0.96,-0.18,0.34
0.92,-0.19,0.34
0.9,-0.18,0.33
0.92,-0.18,0.32
0.95,-0.18,0.32
0.96,-0.19,0.33
0.96,-0.18,0.34
0.96,-0.18,0.35
0.96,-0.18,0.37
0.96,-0.18,0.38
0.97,-0.18,0.38
0.97,-0.18,0.4
0.95,-0.18,0.41
0.92,-0.18,0.42
0.9,-0.18,0.45
0.87,-0.17,0.46
0.86,-0.17,0.46
0.85,-0.17,0.46
0.86,-0.17,0.48
0.87,-0.17,0.48
0.88,-0.17,0.48
0.88,-0.17,0.49
0.89,-0.16,0.5
0.89,-0.16,0.49
0.87,-0.16,0.48
0.88,-0.15,0.48
0.89,-0.15,0.48
0.89,-0.15,0.48
0.88,-0.16,0.49
0.87,-0.16,0.49
0.87,-0.16,0.49
0.89,-0.16,0.49
0.89,-0.16,0.49
0.87,-0.18,0.49
0.88,-0.17,0.49
0.89,-0.15,0.49
0.88,-0.16,0.49
0.88,-0.18,0.5
0.88,-0.17,0.5
0.87,-0.16,0.49
0.87,-0.16,0.48
0.88,-0.17,0.48
0.88,-0.17,0.48
0.88,-0.16,0.49
0.88,-0.15,0.49
0.88,-0.15,0.49
0.89,-0.15,0.49
0.88,-0.16,0.49
0.88,-0.16,0.49
0.89,-0.15,0.49
0.88,-0.15,0.49
0.87,-0.16,0.49
0.87,-0.16,0.49
0.88,-0.15,0.49
0.88,-0.15,0.49
0.87,-0.16,0.48
0.88,-0.16,0.49
0.89,-0.16,0.49
0.88,-0.16,0.49
0.88,-0.15,0.49
0.89,-0.15,0.48
0.88,-0.16,0.48
0.88,-0.16,0.49
0.88,-0.15,0.49
0.88,-0.15,0.49
0.88,-0.16,0.5
0.88,-0.17,0.5
0.88,-0.15,0.5
0.88,-0.15,0.5
0.88,-0.16,0.5
0.88,-0.16,0.5
0.88,-0.16,0.5
0.88,-0.15,0.5
0.88,-0.15,0.49
0.88,-0.16,0.49
0.88,-0.16,0.49
0.88,-0.15,0.49
0.88,-0.15,0.49
0.88,-0.15,0.49
0.88,-0.15,0.49
0.87,-0.15,0.49
0.87,-0.16,0.49
0.88,-0.15,0.5
0.88,-0.15,0.5
0.88,-0.15,0.5
0.87,-0.16,0.5
0.87,-0.16,0.49
0.87,-0.16,0.49
0.87,-0.16,0.49
0.87,-0.16,0.49
0.87,-0.16,0.49
0.88,-0.16,0.49
0.88,-0.16,0.49
0.88,-0.16,0.49
0.88,-0.15,0.49
0.88,-0.15,0.49
0.88,-0.15,0.49
0.88,-0.15,0.49
0.88,-0.15,0.5
0.88,-0.15,0.5
0.88,-0.16,0.5
0.87,-0.15,0.5
0.87,-0.14,0.5
0.87,-0.14,0.5
0.87,-0.15,0.51
0.87,-0.15,0.51
0.87,-0.14,0.5
0.87,-0.14,0.5
0.87,-0.15,0.49
0.87,-0.15,0.49
0.87,-0.15,0.49
0.87,-0.15,0.49
0.88,-0.15,0.49
0.87,-0.15,0.5
0.88,-0.15,0.5
0.88,-0.15,0.5
0.88,-0.15,0.51
0.88,-0.15,0.51
0.88,-0.15,0.5
0.88,-0.15,0.5
0.88,-0.15,0.5
0.88,-0.15,0.49
0.88,-0.15,0.49
0.87,-0.15,0.5
0.87,-0.15,0.5
0.87,-0.15,0.5
0.87,-0.14,0.5
0.88,-0.14,0.5
0.88,-0.13,0.5
0.88,-0.13,0.5
0.88,-0.13,0.5
0.87,-0.13,0.5
0.87,-0.12,0.5
0.87,-0.12,0.5
0.87,-0.12,0.5
0.88,-0.12,0.5
0.88,-0.12,0.5
0.88,-0.12,0.51
0.88,-0.12,0.51
0.88,-0.12,0.52
0.87,-0.12,0.51
0.87,-0.12,0.51
0.87,-0.13,0.51
0.86,-0.13,0.51
0.86,-0.13,0.52
0.85,-0.13,0.54
0.85,-0.13,0.54
0.85,-0.13,0.54
0.84,-0.13,0.55
0.84,-0.14,0.57
0.83,-0.14,0.58
0.82,-0.13,0.59
0.82,-0.13,0.59
0.83,-0.12,0.6
0.84,-0.11,0.6
0.83,-0.1,0.6
0.82,-0.09,0.59
0.81,-0.08,0.6
0.82,-0.08,0.62
0.82,-0.09,0.63
0.81,-0.09,0.64
0.83,-0.09,0.63
0.86,-0.08,0.62
0.89,-0.08,0.6
0.92,-0.06,0.56
0.95,-0.05,0.53
0.95,-0.05,0.53
0.95,-0.06,0.54
0.95,-0.07,0.54
0.94,-0.06,0.55
0.94,-0.04,0.54
0.97,-0.01,0.51
1.02,-0.02,0.5
1.02,-0.03,0.49
1.01,-0.03,0.49
0.95,-0.01,0.5
0.91,0,0.5
0.91,0,0.51
0.9,0,0.52
0.88,-0.01,0.52
0.88,-0.02,0.52
0.88,-0.03,0.51
0.88,-0.03,0.5
0.89,-0.04,0.47
0.9,-0.05,0.45
0.86,-0.05,0.45
0.81,-0.05,0.46
0.78,-0.05,0.46
0.77,-0.05,0.47
0.8,-0.06,0.48
0.84,-0.07,0.51
0.86,-0.08,0.55
0.87,-0.08,0.59
0.88,-0.09,0.61
0.9,-0.1,0.61
0.9,-0.11,0.59
0.84,-0.12,0.56
0.75,-0.15,0.52
0.78,-0.17,0.52
0.8,-0.19,0.54
0.8,-0.22,0.55
0.77,-0.25,0.58
0.73,-0.27,0.62
0.74,-0.29,0.62
0.78,-0.29,0.62
0.77,-0.29,0.61
0.71,-0.3,0.62
0.68,-0.32,0.65
0.69,-0.33,0.67
0.68,-0.34,0.67
0.68,-0.36,0.7
0.67,-0.36,0.7
0.66,-0.37,0.69
0.65,-0.4,0.68
0.66,-0.39,0.65
0.66,-0.36,0.66
0.65,-0.36,0.64
0.67,-0.36,0.63
0.7,-0.35,0.63
0.7,-0.34,0.63
0.68,-0.33,0.65
0.67,-0.33,0.65
0.66,-0.32,0.64
0.66,-0.33,0.67
0.63,-0.32,0.7
0.64,-0.31,0.72
0.64,-0.3,0.73
0.64,-0.3,0.73
0.63,-0.3,0.71
0.64,-0.3,0.7
0.63,-0.31,0.71
0.61,-0.27,0.74
0.62,-0.25,0.75
0.64,-0.27,0.75
0.65,-0.27,0.76
0.65,-0.26,0.76
0.65,-0.25,0.74
0.63,-0.27,0.74
0.6,-0.24,0.76
0.61,-0.23,0.76
0.59,-0.23,0.78
0.57,-0.21,0.81
0.58,-0.22,0.83
0.57,-0.23,0.84
0.58,-0.22,0.84
0.58,-0.23,0.82
0.58,-0.24,0.79
0.58,-0.23,0.78
0.56,-0.24,0.79
0.52,-0.22,0.82
0.56,-0.21,0.82
0.58,-0.21,0.83
0.58,-0.2,0.85
0.57,-0.21,0.85
0.55,-0.22,0.83
0.54,-0.22,0.8
0.53,-0.21,0.78
0.54,-0.22,0.78
0.54,-0.24,0.78
0.53,-0.25,0.79
0.53,-0.24,0.81
0.55,-0.23,0.82
0.56,-0.22,0.83
0.55,-0.23,0.83
0.52,-0.24,0.84
0.52,-0.25,0.85
0.56,-0.26,0.82
0.61,-0.24,0.81
0.61,-0.23,0.83
0.61,-0.24,0.86
0.61,-0.23,0.85
0.59,-0.22,0.82
0.61,-0.23,0.8
0.64,-0.26,0.77
0.71,-0.26,0.74
0.77,-0.25,0.68
0.79,-0.23,0.65
0.84,-0.21,0.63
0.9,-0.22,0.65
0.86,-0.24,0.68
0.86,-0.25,0.7
0.87,-0.25,0.67
0.89,-0.24,0.66
0.88,-0.22,0.65
0.88,-0.23,0.63
0.95,-0.24,0.62
1.01,-0.25,0.62
1.02,-0.27,0.59
1,-0.28,0.59
0.99,-0.29,0.59
0.99,-0.31,0.6
0.93,-0.35,0.64
0.88,-0.38,0.66
0.85,-0.39,0.66
0.82,-0.39,0.64
0.87,-0.39,0.61
0.9,-0.4,0.62
0.87,-0.42,0.64
0.87,-0.46,0.63
0.88,-0.48,0.64
0.86,-0.5,0.64
0.85,-0.5,0.65
0.75,-0.53,0.71
0.79,-0.54,0.7
0.86,-0.52,0.66
0.84,-0.51,0.68
0.83,-0.52,0.68
0.83,-0.54,0.65
0.81,-0.54,0.63
0.8,-0.53,0.65
0.72,-0.54,0.62
0.67,-0.55,0.58
0.71,-0.56,0.53
0.66,-0.55,0.52
0.63,-0.55,0.53
0.69,-0.58,0.48
0.77,-0.62,0.42
0.8,-0.62,0.4
0.79,-0.58,0.36
0.77,-0.57,0.33
0.7,-0.58,0.36
0.71,-0.59,0.36
0.71,-0.62,0.3
0.7,-0.69,0.26
0.69,-0.68,0.23
0.66,-0.65,0.21
0.7,-0.63,0.2
0.78,-0.64,0.17
0.75,-0.67,0.18
0.76,-0.66,0.2
0.73,-0.66,0.17
0.71,-0.68,0.14
0.67,-0.69,0.16
0.66,-0.71,0.18
0.68,-0.72,0.17
0.66,-0.73,0.17
0.63,-0.73,0.17
0.6,-0.72,0.19
0.55,-0.72,0.21
0.53,-0.72,0.21
0.53,-0.72,0.22
0.52,-0.73,0.23
0.49,-0.73,0.22
0.46,-0.73,0.21
0.44,-0.74,0.22
0.42,-0.74,0.23
0.4,-0.75,0.25
0.39,-0.77,0.24
0.38,-0.77,0.23
0.4,-0.75,0.23
0.42,-0.75,0.23
0.43,-0.77,0.24
0.43,-0.78,0.25
0.43,-0.8,0.26
0.43,-0.81,0.3
0.42,-0.81,0.3
0.42,-0.81,0.31
0.42,-0.81,0.32
0.39,-0.82,0.31
0.36,-0.84,0.29
0.35,-0.83,0.29
0.34,-0.81,0.3
0.3,-0.81,0.31
0.26,-0.81,0.32
0.26,-0.81,0.32
0.26,-0.82,0.3
0.25,-0.84,0.31
0.24,-0.85,0.31
0.24,-0.86,0.36
0.25,-0.85,0.4
0.24,-0.82,0.37
0.24,-0.83,0.34
0.23,-0.84,0.36
0.25,-0.84,0.38
0.29,-0.83,0.35
0.26,-0.83,0.3
0.18,-0.85,0.26
0.14,-0.86,0.23
0.17,-0.86,0.2
0.23,-0.87,0.18
0.26,-0.88,0.22
0.31,-0.88,0.17
0.33,-0.89,0.18
0.33,-0.9,0.21
0.35,-0.91,0.24
0.35,-0.91,0.28
0.37,-0.92,0.27
0.35,-0.92,0.25
0.29,-0.92,0.27
0.27,-0.91,0.31
0.27,-0.93,0.32
0.25,-0.94,0.34
0.24,-0.93,0.34
0.22,-0.93,0.35
0.24,-0.93,0.35
0.29,-0.91,0.35
0.32,-0.91,0.33
0.31,-0.91,0.31
0.29,-0.93,0.32
0.25,-0.94,0.34
0.25,-0.94,0.35
0.26,-0.94,0.33
0.27,-0.95,0.31
0.31,-0.95,0.31
0.34,-0.94,0.32
0.29,-0.92,0.32
0.25,-0.91,0.36
0.28,-0.9,0.38
0.3,-0.92,0.36
0.3,-0.93,0.34
0.28,-0.94,0.35
0.29,-0.94,0.36
0.3,-0.93,0.36
0.31,-0.92,0.36
0.31,-0.91,0.36
0.3,-0.91,0.37
0.29,-0.91,0.38
0.26,-0.91,0.4
0.25,-0.92,0.41
0.31,-0.93,0.38
0.38,-0.93,0.34
0.38,-0.92,0.33
0.36,-0.92,0.34
0.32,-0.92,0.35
0.3,-0.92,0.35
0.28,-0.91,0.34
0.27,-0.9,0.34
0.27,-0.89,0.34
0.27,-0.9,0.34
0.27,-0.9,0.35
0.26,-0.9,0.35
0.26,-0.9,0.35
0.27,-0.89,0.34
0.3,-0.88,0.33
0.31,-0.89,0.33
0.3,-0.9,0.31
0.31,-0.91,0.3
0.3,-0.91,0.27
0.32,-0.91,0.25
0.35,-0.91,0.25
0.34,-0.91,0.29
0.31,-0.91,0.33
0.31,-0.9,0.36
0.3,-0.9,0.4
0.28,-0.89,0.43
0.27,-0.89,0.44
0.27,-0.89,0.43
0.26,-0.91,0.37
0.29,-0.93,0.29
0.36,-0.93,0.22
0.38,-0.94,0.18
0.36,-0.95,0.19
0.33,-0.93,0.24
0.29,-0.93,0.31
0.26,-0.91,0.36
0.26,-0.9,0.41
0.26,-0.89,0.42
0.26,-0.9,0.4
0.27,-0.91,0.35
0.29,-0.93,0.32
0.31,-0.94,0.31
0.31,-0.93,0.31
0.3,-0.92,0.33
0.3,-0.92,0.35
0.3,-0.91,0.36
0.29,-0.91,0.37
0.29,-0.91,0.37
0.29,-0.91,0.37
0.27,-0.92,0.35
0.28,-0.93,0.32
0.3,-0.93,0.31
0.3,-0.92,0.32
0.3,-0.91,0.34
0.31,-0.91,0.36
0.3,-0.91,0.36
0.3,-0.91,0.36
0.3,-0.91,0.36
0.29,-0.91,0.35
0.28,-0.91,0.33
0.28,-0.92,0.32
0.28,-0.92,0.31
0.29,-0.92,0.31
0.29,-0.92,0.32
0.28,-0.91,0.33
0.28,-0.9,0.36
0.28,-0.9,0.37
0.28,-0.91,0.36
0.28,-0.91,0.34
0.28,-0.92,0.32
0.28,-0.93,0.3
0.28,-0.93,0.3
0.28,-0.93,0.3
0.28,-0.93,0.31
0.28,-0.93,0.32
0.28,-0.92,0.34
0.28,-0.92,0.36
0.28,-0.92,0.37
0.28,-0.92,0.37
0.27,-0.93,0.37
0.27,-0.92,0.36
0.27,-0.92,0.35
0.28,-0.91,0.33
0.29,-0.91,0.32
0.29,-0.91,0.33
0.29,-0.91,0.34
0.28,-0.91,0.36
0.27,-0.91,0.38
0.27,-0.91,0.38
0.27,-0.9,0.38
0.27,-0.9,0.38
0.27,-0.9,0.36
0.27,-0.9,0.36
0.27,-0.91,0.36
0.27,-0.92,0.36
0.27,-0.92,0.35
0.27,-0.92,0.35
0.27,-0.91,0.35
0.28,-0.91,0.35
0.27,-0.91,0.35
0.27,-0.91,0.36
0.27,-0.91,0.36
0.26,-0.9,0.35
0.26,-0.89,0.35
0.27,-0.89,0.35
0.27,-0.87,0.34
0.26,-0.86,0.35
0.26,-0.85,0.34
0.26,-0.85,0.34
0.26,-0.84,0.35
0.25,-0.83,0.36
0.24,-0.82,0.36
0.22,-0.82,0.37
0.21,-0.81,0.37
0.21,-0.81,0.36
0.21,-0.82,0.34
0.21,-0.83,0.32
0.21,-0.83,0.33
0.19,-0.82,0.34
0.2,-0.82,0.36
0.2,-0.8,0.37
0.22,-0.8,0.37
0.24,-0.81,0.35
0.26,-0.81,0.34
0.26,-0.81,0.34
0.25,-0.81,0.32
0.26,-0.8,0.3
0.28,-0.78,0.28
0.28,-0.76,0.26
0.27,-0.75,0.24
0.28,-0.74,0.24
0.3,-0.74,0.26
0.33,-0.74,0.29
0.36,-0.73,0.31
0.39,-0.73,0.33
0.4,-0.72,0.32
0.41,-0.7,0.29
0.42,-0.68,0.27
0.43,-0.69,0.26
0.46,-0.71,0.26
0.49,-0.72,0.27
0.54,-0.72,0.28
0.58,-0.71,0.28
0.59,-0.68,0.27
0.6,-0.67,0.24
0.61,-0.69,0.2
0.63,-0.71,0.18
0.65,-0.72,0.18
0.66,-0.71,0.2
0.65,-0.69,0.24
0.65,-0.66,0.26
0.66,-0.65,0.28
0.66,-0.63,0.29
0.68,-0.63,0.25
0.72,-0.65,0.2
0.75,-0.67,0.15
0.79,-0.65,0.11
0.79,-0.61,0.13
0.78,-0.58,0.15
0.81,-0.56,0.16
0.86,-0.54,0.16
0.91,-0.53,0.2
0.95,-0.52,0.25
0.96,-0.53,0.25
0.93,-0.56,0.19
0.87,-0.57,0.11
0.86,-0.56,0.09
0.9,-0.51,0.11
0.92,-0.49,0.13
0.93,-0.48,0.19
0.96,-0.43,0.3
1.01,-0.43,0.31
1.03,-0.42,0.31
1.03,-0.42,0.27
1.02,-0.42,0.22
1.02,-0.41,0.17
1.04,-0.39,0.13
1.07,-0.38,0.11
1.09,-0.36,0.11
1.1,-0.34,0.14
1.1,-0.31,0.19
1.12,-0.3,0.21
1.14,-0.29,0.23
1.14,-0.27,0.25
1.11,-0.24,0.28
1.1,-0.22,0.29
1.09,-0.21,0.28
1.07,-0.2,0.26
1.06,-0.19,0.23
1.06,-0.17,0.22
1.04,-0.15,0.24
1.05,-0.14,0.27
1.05,-0.13,0.3
1.02,-0.1,0.31
1.02,-0.07,0.33
1.01,-0.06,0.34
0.99,-0.05,0.32
1.02,-0.06,0.31
1.01,-0.05,0.31
1.03,-0.03,0.32
1.03,-0.02,0.31
1.04,0,0.33
1.05,0.02,0.35
1.02,0.03,0.39
1,0.04,0.41
1.04,0.04,0.41
1.06,0.03,0.39
1.06,0.02,0.38
1.04,0.04,0.39
1.02,0.06,0.4
1.01,0.08,0.41
0.95,0.07,0.42
0.91,0.05,0.43
0.99,0.04,0.44
1.05,0.03,0.41
1.05,0.02,0.35
1.07,0.02,0.32
1.09,0.01,0.36
1.06,0,0.4
1.06,0,0.4
1.07,0,0.4
1,-0.01,0.41
0.96,-0.02,0.43
1,-0.03,0.45
0.96,-0.02,0.47
0.89,-0.02,0.49
0.88,-0.02,0.48
0.88,-0.02,0.48
0.88,-0.01,0.47
0.87,-0.01,0.45
0.87,0,0.44
0.86,0,0.45
0.86,0.01,0.43
0.87,0.03,0.44
0.85,0.02,0.46
0.85,0.02,0.46
0.85,0.03,0.48
0.85,0.04,0.48
0.92,0.05,0.5
0.93,0.05,0.52
0.89,0.04,0.51
0.91,0.05,0.5
0.92,0.04,0.5
0.93,0.04,0.49
0.93,0.04,0.49
0.94,0.02,0.47
0.93,0.02,0.46
0.92,0.02,0.46
0.9,0.02,0.49
0.89,0.01,0.5
0.87,0.01,0.5
0.86,0,0.49
0.87,0,0.49
0.87,0.01,0.49
0.86,0.01,0.51
0.86,0.01,0.52
0.86,0,0.51
0.83,0,0.5
0.82,0,0.47
0.84,0.02,0.47
0.9,0.02,0.5
0.95,0.02,0.52
0.97,0.03,0.54
0.95,0.04,0.57
0.93,0.03,0.56
0.92,0.01,0.54
0.88,0,0.53
0.86,0,0.53
0.86,0,0.53
0.88,0,0.53
0.86,0,0.53
0.83,0.01,0.55
0.84,0.01,0.55
0.85,0.01,0.55
0.85,0.01,0.56
0.86,0.01,0.57
0.86,0.01,0.58
0.86,0,0.57
0.86,0,0.57
0.86,0.01,0.56
0.87,0.01,0.56
0.89,0,0.55
0.89,-0.01,0.55
0.9,-0.01,0.54
0.91,0,0.55
0.9,0,0.55
0.88,0.01,0.56
0.88,0.01,0.56
0.89,0.01,0.56
0.88,0.01,0.55
0.88,0,0.54
0.87,0,0.55
0.87,0,0.55
0.86,0.01,0.55
0.84,0.01,0.55
0.83,0.01,0.54
0.84,0,0.53
0.84,0.01,0.53
0.84,0.01,0.53
0.85,0.01,0.54
0.85,0.01,0.55
0.81,0.02,0.55
0.83,0.01,0.55
0.85,0.01,0.55
0.84,0.01,0.55
0.84,0,0.56
0.85,0,0.59
0.9,0,0.59
0.92,0.01,0.59
0.92,0.01,0.61
0.9,0.01,0.61
0.9,0.01,0.6
0.9,0,0.57
0.87,-0.01,0.54
0.81,-0.02,0.51
0.79,-0.03,0.48
0.82,-0.02,0.46
0.87,-0.02,0.44
0.91,-0.03,0.42
0.91,-0.06,0.41
0.86,-0.09,0.36
0.83,-0.1,0.33
0.8,-0.12,0.33
0.77,-0.16,0.32
0.78,-0.15,0.33
0.8,-0.13,0.36
0.86,-0.12,0.44
0.94,-0.11,0.49
0.9,-0.11,0.51
0.84,-0.14,0.49
0.81,-0.18,0.42
0.76,-0.19,0.36
0.71,-0.2,0.31
0.75,-0.21,0.24
0.8,-0.26,0.13
0.87,-0.28,0.05
0.94,-0.25,0.05
1,-0.26,0.08
1.05,-0.31,0.09
1.06,-0.32,0.08
1.07,-0.31,0.12
1.04,-0.31,0.18
1.05,-0.31,0.22
1.1,-0.29,0.24
1.14,-0.28,0.26
1.14,-0.25,0.29
1.12,-0.22,0.29
1.1,-0.2,0.28
1.07,-0.19,0.29
1.03,-0.18,0.28
1,-0.19,0.27
0.96,-0.19,0.26
0.93,-0.18,0.25
0.96,-0.18,0.24
0.97,-0.17,0.25
0.97,-0.17,0.27
0.96,-0.17,0.3
0.97,-0.16,0.3
0.98,-0.16,0.3
0.98,-0.15,0.27
0.97,-0.15,0.25
0.98,-0.16,0.24
1.02,-0.16,0.23
1.05,-0.14,0.25
1.07,-0.13,0.26
1.07,-0.12,0.26
1.06,-0.12,0.26
1.03,-0.13,0.25
1,-0.13,0.25
0.98,-0.14,0.24
0.99,-0.13,0.22
1,-0.13,0.21
0.99,-0.15,0.2
0.99,-0.16,0.18
1,-0.17,0.17
1.01,-0.17,0.17
1.02,-0.17,0.17
0.98,-0.16,0.2
0.95,-0.16,0.25
0.95,-0.16,0.26
0.97,-0.14,0.26
0.96,-0.15,0.26
0.97,-0.15,0.25
0.97,-0.15,0.25
0.96,-0.16,0.26
0.96,-0.16,0.26
0.97,-0.15,0.26
0.97,-0.17,0.25
0.97,-0.18,0.25
0.98,-0.17,0.26
0.98,-0.15,0.26
0.97,-0.15,0.26
0.97,-0.17,0.26
0.97,-0.16,0.25
0.98,-0.15,0.25
0.98,-0.16,0.25
0.98,-0.16,0.26
0.97,-0.16,0.26
0.97,-0.15,0.26
0.97,-0.15,0.26
0.97,-0.16,0.26
0.98,-0.17,0.26
0.98,-0.17,0.25
0.98,-0.17,0.25
0.97,-0.17,0.26
0.97,-0.16,0.26
0.98,-0.16,0.26
0.98,-0.16,0.27
0.97,-0.16,0.27
0.96,-0.16,0.27
0.97,-0.16,0.26
0.97,-0.16,0.26
0.97,-0.16,0.26
0.97,-0.16,0.26
0.97,-0.16,0.27
0.97,-0.16,0.27
0.96,-0.16,0.28
0.97,-0.16,0.28
0.97,-0.16,0.28
0.98,-0.15,0.27
0.98,-0.15,0.27
0.98,-0.15,0.28
0.98,-0.15,0.28
0.97,-0.15,0.27
0.97,-0.16,0.27
0.97,-0.15,0.29
0.96,-0.14,0.3
0.95,-0.14,0.32
0.94,-0.14,0.33
0.94,-0.14,0.34
0.95,-0.15,0.32
0.96,-0.16,0.28
0.98,-0.15,0.31
0.97,-0.14,0.33
0.96,-0.14,0.36
0.95,-0.14,0.38
0.94,-0.14,0.38
0.94,-0.13,0.38
0.94,-0.13,0.38
0.94,-0.13,0.37
0.96,-0.12,0.37
0.96,-0.11,0.39
0.93,-0.11,0.4
0.91,-0.12,0.4
0.91,-0.13,0.41
0.92,-0.13,0.41
0.92,-0.13,0.41
0.92,-0.12,0.41
0.93,-0.12,0.39
0.95,-0.12,0.37
0.96,-0.14,0.36
0.98,-0.14,0.37
0.98,-0.13,0.38
0.98,-0.13,0.38
0.97,-0.14,0.37
0.98,-0.15,0.35
0.98,-0.15,0.32
0.98,-0.14,0.33
1.06,-0.12,0.35
1.15,-0.12,0.35
1.15,-0.15,0.34
1.06,-0.18,0.34
0.97,-0.15,0.37
0.92,-0.15,0.39
0.93,-0.17,0.38
1.03,-0.16,0.36
1.07,-0.15,0.35
1,-0.15,0.34
0.92,-0.15,0.35
0.91,-0.15,0.36
0.89,-0.16,0.38
0.86,-0.16,0.4
0.86,-0.16,0.4
0.87,-0.16,0.39
0.89,-0.16,0.38
0.91,-0.16,0.37
0.93,-0.16,0.36
0.95,-0.18,0.35
0.9,-0.17,0.37
0.88,-0.16,0.41
0.9,-0.15,0.45
0.91,-0.14,0.46
0.92,-0.15,0.48
0.91,-0.16,0.47
0.91,-0.16,0.47
0.89,-0.17,0.48
0.86,-0.16,0.48
0.82,-0.15,0.48
0.78,-0.16,0.48
0.77,-0.17,0.49
0.79,-0.16,0.5
0.8,-0.17,0.51
0.81,-0.18,0.53
0.84,-0.18,0.54
0.87,-0.17,0.54
0.83,-0.16,0.54
0.79,-0.15,0.52
0.8,-0.14,0.52
0.81,-0.14,0.54
0.82,-0.15,0.56
0.85,-0.16,0.58
0.84,-0.16,0.59
0.8,-0.15,0.6
0.78,-0.14,0.6
0.78,-0.14,0.63
0.75,-0.13,0.67
0.75,-0.14,0.67
0.79,-0.15,0.63
0.81,-0.15,0.58
0.83,-0.14,0.55
0.8,-0.13,0.55
0.79,-0.12,0.54
0.81,-0.11,0.51
0.83,-0.11,0.51
0.82,-0.11,0.53
0.81,-0.11,0.53
0.82,-0.1,0.53
0.83,-0.09,0.51
0.84,-0.06,0.52
0.87,-0.07,0.55
0.92,-0.09,0.51
0.97,-0.09,0.48
0.97,-0.11,0.49
0.93,-0.13,0.5
0.87,-0.12,0.51
0.85,-0.11,0.51
0.82,-0.1,0.5
0.81,-0.09,0.48
0.9,-0.09,0.48
0.98,-0.08,0.45
1.04,-0.06,0.41
1.06,-0.06,0.4
1.04,-0.07,0.39
1.01,-0.08,0.4
0.98,-0.1,0.38
1,-0.1,0.4
0.96,-0.1,0.41
0.74,-0.12,0.01
0.74,-0.12,-0.06
1.09,-0.12,0.24
1.15,-0.13,0.25
1.14,-0.14,0.26
1.12,-0.16,0.26
1.08,-0.21,0.23
1.11,-0.24,0.18
1.11,-0.24,0.19
1.06,-0.28,0.19
1.05,-0.33,0.17
1.05,-0.35,0.15
1.07,-0.35,0.13
1.1,-0.34,0.11
1.11,-0.34,0.07
1.1,-0.36,0.06
1.15,-0.4,0.01
1.13,-0.4,-0.08
0.99,-0.38,-0.04
0.99,-0.41,-0.02
1.07,-0.43,0.01
1.04,-0.45,0.04
1.06,-0.46,-0.01
1.09,-0.45,-0.06
1.08,-0.44,-0.09
1.11,-0.47,-0.14
1.08,-0.47,-0.15
1.05,-0.47,-0.13
1.03,-0.47,-0.09
1.02,-0.46,-0.07
1.02,-0.46,-0.05
0.98,-0.47,-0.04
0.91,-0.47,-0.04
0.87,-0.45,-0.06
0.88,-0.45,-0.07
0.92,-0.46,-0.05
0.93,-0.47,-0.02
0.92,-0.48,0
0.91,-0.49,0.02
0.89,-0.5,0.04
0.85,-0.52,0.05
0.83,-0.54,0.07
0.84,-0.56,0.08
0.85,-0.57,0.08
0.89,-0.58,0.1
0.87,-0.58,0.1
0.85,-0.57,0.12
0.85,-0.58,0.15
0.82,-0.6,0.19
0.78,-0.62,0.21
0.75,-0.64,0.22
0.72,-0.65,0.21
0.72,-0.66,0.21
0.72,-0.67,0.2
0.71,-0.67,0.2
0.69,-0.68,0.19
0.68,-0.69,0.19
0.68,-0.7,0.2
0.67,-0.71,0.21
0.64,-0.71,0.23
0.61,-0.71,0.25
0.6,-0.72,0.26
0.57,-0.72,0.25
0.55,-0.72,0.24
0.55,-0.72,0.23
0.54,-0.72,0.21
0.51,-0.73,0.2
0.5,-0.74,0.21
0.52,-0.74,0.23
0.54,-0.75,0.25
0.57,-0.76,0.26
0.58,-0.75,0.3
0.56,-0.75,0.32
0.51,-0.73,0.34
0.42,-0.73,0.38
0.39,-0.76,0.39
0.39,-0.77,0.4
0.36,-0.74,0.42
0.34,-0.76,0.41
0.37,-0.77,0.39
0.41,-0.79,0.36
0.43,-0.8,0.36
0.41,-0.79,0.38
0.38,-0.78,0.4
0.34,-0.77,0.44
0.31,-0.78,0.46
0.28,-0.77,0.45
0.27,-0.77,0.44
0.26,-0.79,0.41
0.26,-0.8,0.4
0.26,-0.81,0.4
0.25,-0.82,0.39
0.23,-0.82,0.38
0.24,-0.83,0.37
0.24,-0.84,0.38
0.23,-0.84,0.4
0.23,-0.85,0.42
0.22,-0.85,0.44
0.21,-0.85,0.45
0.19,-0.86,0.45
0.18,-0.87,0.45
0.19,-0.88,0.44
0.2,-0.88,0.44
0.2,-0.88,0.44
0.21,-0.87,0.44
0.21,-0.86,0.44
0.2,-0.86,0.44
0.2,-0.86,0.44
0.2,-0.85,0.44
0.2,-0.85,0.43
0.19,-0.84,0.43
0.2,-0.84,0.42
0.21,-0.85,0.42
0.21,-0.85,0.42
0.21,-0.85,0.42
0.21,-0.85,0.42
0.2,-0.85,0.43
0.19,-0.85,0.43
0.18,-0.86,0.42
0.19,-0.86,0.41
0.19,-0.86,0.41
0.18,-0.86,0.4
0.19,-0.86,0.39
0.2,-0.87,0.39
0.22,-0.87,0.39
0.23,-0.87,0.39
0.23,-0.87,0.41
0.23,-0.87,0.42
0.23,-0.87,0.43
0.23,-0.87,0.44
0.21,-0.88,0.44
0.21,-0.89,0.43
0.2,-0.89,0.43
0.2,-0.89,0.41
0.2,-0.89,0.41
0.2,-0.9,0.41
0.21,-0.9,0.41
0.21,-0.91,0.41
0.22,-0.91,0.42
0.23,-0.91,0.44
0.23,-0.9,0.45
0.23,-0.9,0.45
0.22,-0.9,0.45
0.21,-0.91,0.44
0.21,-0.91,0.43
0.21,-0.91,0.42
0.2,-0.91,0.42
0.21,-0.91,0.41
0.21,-0.91,0.41
0.22,-0.9,0.42
0.22,-0.9,0.42
0.22,-0.9,0.43
0.23,-0.9,0.43
0.23,-0.9,0.43
0.23,-0.9,0.43
0.22,-0.9,0.43
0.21,-0.89,0.43
0.21,-0.89,0.42
0.21,-0.88,0.42
0.21,-0.88,0.41
0.2,-0.87,0.41
0.2,-0.86,0.41
0.19,-0.85,0.41
0.19,-0.84,0.41
0.19,-0.84,0.41
0.18,-0.84,0.41
0.17,-0.84,0.42
0.16,-0.83,0.43
0.15,-0.82,0.44
0.14,-0.81,0.45
0.12,-0.81,0.44
0.1,-0.8,0.43
0.09,-0.79,0.41
0.08,-0.78,0.39
0.09,-0.77,0.37
0.1,-0.76,0.35
0.11,-0.75,0.34
0.12,-0.74,0.34
0.15,-0.73,0.35
0.15,-0.73,0.36
0.14,-0.72,0.36
0.15,-0.71,0.37
0.25,-0.69,0.36
0.26,-0.7,0.38
0.23,-0.7,0.38
0.21,-0.7,0.4
0.31,-0.69,0.43
0.4,-0.67,0.45
0.37,-0.66,0.44
0.3,-0.65,0.43
0.28,-0.64,0.39
0.29,-0.65,0.29
0.34,-0.66,0.2
0.47,-0.65,0.19
0.59,-0.63,0.22
0.71,-0.61,0.24
0.76,-0.63,0.22
0.72,-0.65,0.18
0.66,-0.64,0.19
0.66,-0.61,0.22
0.71,-0.6,0.25
0.72,-0.64,0.26
0.7,-0.68,0.23
0.66,-0.69,0.22
0.64,-0.68,0.26
0.63,-0.66,0.28
0.65,-0.64,0.28
0.7,-0.62,0.29
0.8,-0.61,0.27
0.86,-0.62,0.28
0.92,-0.63,0.31
0.93,-0.63,0.32
0.9,-0.62,0.29
0.83,-0.6,0.22
0.78,-0.57,0.16
0.78,-0.55,0.13
0.82,-0.55,0.12
0.87,-0.55,0.16
0.91,-0.53,0.2
0.96,-0.51,0.25
1,-0.49,0.3
1.04,-0.46,0.34
1.08,-0.43,0.37
1.09,-0.4,0.38
1.08,-0.39,0.38
1.09,-0.39,0.36
1.1,-0.38,0.31
1.1,-0.38,0.29
1.1,-0.37,0.29
1.09,-0.36,0.3
1.08,-0.34,0.31
1.07,-0.33,0.32
1.04,-0.32,0.33
1.04,-0.32,0.33
1.09,-0.3,0.33
1.06,-0.28,0.3
1.05,-0.27,0.26
1.06,-0.26,0.25
1.05,-0.23,0.27
1.04,-0.2,0.31
1.02,-0.18,0.34
1.02,-0.17,0.38
1.03,-0.16,0.42
1.04,-0.16,0.43
1.05,-0.15,0.45
1.05,-0.16,0.46
1.04,-0.16,0.44
1.02,-0.16,0.39
1.01,-0.15,0.35
1.02,-0.14,0.33
1.01,-0.14,0.32
1,-0.14,0.33
1.01,-0.14,0.34
1.02,-0.13,0.35
1.03,-0.13,0.36
1.03,-0.13,0.36
1.03,-0.12,0.36
1.03,-0.11,0.36
1.01,-0.1,0.36
0.98,-0.1,0.35
0.97,-0.08,0.32
0.99,-0.07,0.31
0.98,-0.07,0.32
0.97,-0.08,0.32
0.96,-0.08,0.33
0.97,-0.09,0.34
0.98,-0.09,0.36
0.98,-0.09,0.36
0.98,-0.08,0.36
0.97,-0.08,0.35
0.97,-0.09,0.34
0.97,-0.11,0.33
0.98,-0.11,0.33
0.99,-0.11,0.32
1,-0.11,0.32
1.01,-0.11,0.33
1.01,-0.11,0.33
1.02,-0.11,0.33
1.02,-0.1,0.34
1.02,-0.1,0.34
1.01,-0.1,0.34
1,-0.1,0.32
1,-0.11,0.31
1.01,-0.11,0.28
1,-0.11,0.28
0.99,-0.1,0.28
1,-0.09,0.28
0.99,-0.1,0.31
0.99,-0.1,0.34
0.97,-0.11,0.35
0.94,-0.11,0.35
0.93,-0.11,0.34
0.95,-0.12,0.32
0.96,-0.12,0.3
0.96,-0.12,0.3
0.94,-0.11,0.32
0.93,-0.1,0.33
0.92,-0.1,0.35
0.93,-0.09,0.36
0.93,-0.09,0.37
0.95,-0.09,0.38
0.96,-0.09,0.39
0.98,-0.09,0.42
1,-0.08,0.46
0.99,-0.08,0.45
0.98,-0.09,0.41
0.99,-0.09,0.4
0.97,-0.1,0.37
0.93,-0.1,0.34
0.9,-0.11,0.34
0.9,-0.12,0.36
0.9,-0.12,0.39
0.91,-0.12,0.43
0.94,-0.13,0.42
0.95,-0.13,0.41
0.95,-0.13,0.41
0.94,-0.13,0.4
0.93,-0.14,0.39
0.92,-0.14,0.38
0.91,-0.14,0.37
0.9,-0.15,0.39
0.91,-0.14,0.4
0.91,-0.14,0.41
0.91,-0.14,0.42
0.91,-0.14,0.43
0.91,-0.14,0.44
0.91,-0.13,0.45
0.91,-0.13,0.45
0.92,-0.13,0.45
0.92,-0.13,0.45
0.91,-0.14,0.45
0.91,-0.14,0.44
0.91,-0.15,0.44
0.9,-0.14,0.45
0.9,-0.14,0.45
0.9,-0.13,0.45
0.9,-0.12,0.46
0.91,-0.13,0.47
0.91,-0.13,0.46
0.92,-0.12,0.44
0.91,-0.13,0.44
0.9,-0.14,0.44
0.91,-0.13,0.45
0.91,-0.12,0.45
0.92,-0.12,0.46
0.92,-0.14,0.46
0.9,-0.14,0.47
0.87,-0.14,0.46
0.88,-0.14,0.43
0.89,-0.14,0.44
0.88,-0.14,0.47
0.89,-0.15,0.45
0.92,-0.14,0.44
0.92,-0.13,0.43
0.91,-0.14,0.44
0.91,-0.14,0.44
0.92,-0.14,0.42
0.91,-0.14,0.43
0.91,-0.13,0.43
0.9,-0.14,0.43
0.9,-0.16,0.44
0.9,-0.15,0.43
0.93,-0.13,0.4
0.97,-0.11,0.38
0.98,-0.12,0.39
0.93,-0.11,0.39
0.95,-0.1,0.38
0.99,-0.09,0.38
1.03,-0.11,0.4
1.04,-0.15,0.44
1.01,-0.15,0.46
1,-0.13,0.46
1.01,-0.12,0.46
0.98,-0.12,0.5
0.95,-0.15,0.56
0.92,-0.18,0.59
0.89,-0.18,0.63
0.9,-0.2,0.63
0.89,-0.23,0.61
0.88,-0.24,0.59
0.87,-0.24,0.6
0.81,-0.23,0.62
0.83,-0.24,0.6
0.85,-0.24,0.58
0.8,-0.25,0.59
0.78,-0.29,0.57
0.71,-0.29,0.58
0.63,-0.25,0.6
0.66,-0.26,0.58
0.67,-0.28,0.59
0.66,-0.28,0.63
0.59,-0.26,0.67
0.61,-0.29,0.66
0.6,-0.3,0.65
0.56,-0.3,0.67
0.52,-0.31,0.68
0.51,-0.3,0.7
0.49,-0.29,0.74
0.48,-0.29,0.78
0.51,-0.32,0.8
0.48,-0.3,0.83
0.43,-0.25,0.85
0.43,-0.27,0.84
0.43,-0.29,0.84
0.4,-0.29,0.85
0.37,-0.28,0.86
0.36,-0.27,0.87
0.35,-0.28,0.88
0.35,-0.28,0.87
0.34,-0.28,0.86
0.33,-0.26,0.85
0.31,-0.26,0.84
0.3,-0.25,0.84
0.29,-0.24,0.84
0.3,-0.24,0.86
0.31,-0.23,0.89
0.32,-0.22,0.93
0.33,-0.2,0.94
0.33,-0.19,0.94
0.34,-0.19,0.92
0.36,-0.19,0.9
0.37,-0.19,0.89
0.38,-0.18,0.89
0.4,-0.17,0.9
0.41,-0.18,0.91
0.4,-0.17,0.92
0.4,-0.17,0.94
0.42,-0.17,0.97
0.45,-0.14,0.97
0.46,-0.14,0.97
0.46,-0.15,0.96
0.47,-0.14,0.95
0.47,-0.14,0.94
0.45,-0.15,0.92
0.44,-0.14,0.93
0.44,-0.16,0.92
0.45,-0.18,0.91
0.44,-0.18,0.91
0.43,-0.18,0.9
0.43,-0.18,0.89
0.42,-0.18,0.89
0.39,-0.18,0.87
0.36,-0.18,0.84
0.4,-0.14,0.81
0.42,-0.14,0.84
0.41,-0.14,0.89
0.41,-0.13,0.93
0.41,-0.12,0.96
0.42,-0.1,0.95
0.4,-0.1,0.93
0.36,-0.08,0.89
0.39,-0.05,0.87
0.42,-0.06,0.92
0.43,-0.08,0.96
0.47,-0.04,0.96
0.49,-0.01,0.95
0.49,-0.02,0.95
0.47,0.01,0.96
0.47,0.02,0.94
0.49,0,0.92
0.51,0.01,0.9
0.52,0,0.89
0.52,-0.01,0.88
0.54,-0.01,0.87
0.57,0,0.86
0.59,0,0.84
0.58,-0.02,0.84
0.55,-0.03,0.86
0.53,-0.04,0.86
0.5,-0.05,0.89
0.47,-0.04,0.89
0.5,-0.04,0.89
0.52,-0.03,0.89
0.52,-0.04,0.87
0.5,-0.04,0.87
0.48,-0.04,0.88
0.46,-0.05,0.88
0.47,-0.04,0.87
0.47,-0.04,0.89
0.47,-0.05,0.88
0.48,-0.05,0.87
0.46,-0.07,0.89
0.45,-0.07,0.9
0.46,-0.06,0.9
0.44,-0.05,0.91
0.42,-0.03,0.92
0.4,0,0.95
0.39,0.01,0.98
0.39,0.01,0.98
0.4,0,0.95
0.4,-0.01,0.93
0.38,0,0.92
0.36,0.01,0.92
0.41,0,0.9
0.5,0,0.88
0.52,0,0.88
0.54,0,0.88
0.52,0,0.88
0.5,0,0.89
0.49,0,0.89
0.48,-0.01,0.89
0.47,-0.01,0.88
0.48,0,0.88
0.49,0,0.89
0.48,0,0.9
0.48,0,0.9
0.5,0,0.88
0.5,-0.01,0.88
0.5,-0.01,0.88
0.5,-0.01,0.88
0.49,-0.01,0.88
0.49,-0.01,0.88
0.49,-0.01,0.89
0.49,0,0.89
0.49,0,0.89
0.48,-0.01,0.89
0.48,-0.01,0.88
0.49,-0.01,0.87
0.51,0,0.88
0.5,0,0.88
0.47,0,0.88
0.47,0,0.89
0.48,0.01,0.89
0.48,0.01,0.89
0.48,0.01,0.89
0.48,0,0.88
0.48,0,0.88
0.47,0,0.89
0.46,0,0.9
0.46,0,0.89
0.46,-0.01,0.89
0.48,0,0.89
0.49,0,0.89
0.48,0,0.89
0.47,0,0.89
0.47,0,0.89
0.47,0,0.89
0.46,0,0.9
0.46,0,0.9
0.46,-0.01,0.9
0.47,-0.01,0.89
0.49,0,0.88
0.5,0,0.88
0.5,0,0.88
0.48,0,0.89
0.45,0.01,0.9
