Acc_x,Acc_y,Acc_z
0,0,0
0,0,0
0,0,0
0,0,0
0,0,0
0,0,0
0,0,0
0,0,0
0,0,0
0,0,0
0,0,0
0,0,0
0,0,0
0,0,0
0,0,0
0,0,0
0,0,0
0,0,0
0,0,0
0,0,0
0,0,0
0,0,0
0,0,0
0,0,0
0,0,0
0,0,0
0,0,0
0,0,0
0,0,0
0,0,0
0,0,0
0,0,0
0,0,0
0,0,0
0,0,0
0,0,0
0,0,0
0,0,0
0,0,0
0,0,0
0,0,0
0,0,0
0,0,0
0,0,0
0,0,0
0,0,0
0,0,0
0,0,0
0,0,0
0,0,0
0,0,0
0,0,0
0,0,0
0,0,0
0,0,0
0,0,0
0,0,0
0,0,0
0,0,0
0,0,0
0,0,0
0,0,0
0,0,0
0,0,0
0,0,0
0,0,0
0,0,0
0,0,0
0,0,0
0,0,0
0,0,0
0,0,0
0,0,0
0,0,0
0,0,0
0,0,0
0,0,0
0,0,0
0,0,0
0,0,0
0,0,0
0,0,0
0,0,0
0,0,0
0,0,0
0,0,0
0,0,0
0,0,0
0,0,0
0,0,0
0,0,0
0,0,0
0,0,0
0,0,0
0,0,0
0,0,0
0,0,0
0,0,0
0,0,0
0,0,0
0,0,0
0,0,0
0,0,0
0,0,0
0,0,0
0,0,0
0,0,0
0,0,0
0,0,0
0,0,0
0,0,0
0,0,0
0,0,0
0,0,0
0,0,0
0,0,0
0,0,0
0,0,0
0,0,0
0,0,0
0,0,0
0,0,0
0,0,0
0,0,0
0,0,0
0,0,0
0,0,0
0,0,0
0,0,0
0,0,0
0,0,0
0,0,0
0,0,0
0,0,0
0,0,0
0,0,0
0,0,0
0,0,0
0,0,0
0,0,0
0,0,0
0,0,0
0,0,0
0,0,0
0,0,0
0,0,0
0,0,0
0,0,0
0,0,0
0,0,0
0,0,0
0,0,0
0,0,0
0,0,0
0,0,0
0,0,0
0,0,0
0,0,0
0,0,0
0,0,0
0,0,0
0,0,0
0,0,0
0,0,0
0,0,0
0,0,0
0,0,0
0,0,0
0,0,0
0,0,0
0,0,0
0,0,0
0,0,0
0,0,0
0,0,0
0,0,0
0,0,0
0,0,0
0,0,0
0,0,0
0,0,0
0,0,0
0,0,0
0,0,0
0,0,0
0,0,0
0,0,0
0,0,0
0,0,0
0,0,0
0,0,0
0,0,0
0,0,0
0,0,0
0,0,0
0,0,0
0,0,0
0,0,0
0,0,0
0,0,0
0,0,0
0,0,0
0,0,0
0,0,0
0,0,0
0,0,0
0,0,0
0,0,0
0,0,0
0,0,0
0,0,0
0,0,0
0,0,0
0,0,0
0,0,0
0,0,0
0,0,0
0,0,0
0,0,0
0,0,0
0,0,0
0,0,0
0,0,0
0,0,0
0,0,0
0,0,0
0,0,0
0,0,0
0,0,0
0,0,0
0,0,0
0,0,0
0,0,0
0,0,0
0,0,0
0,0,0
0,0,0
0,0,0
0,0,0
0,0,0
0,0,0
0,0,0
0,0,0
0,0,0
0,0,0
0,0,0
0,0,0
0,0,0
0,0,0
0,0,0
0,0,0
0,0,0
0,0,0
0,0,0
0,0,0
0,0,0
0,0,0
0,0,0
0,0,0
0,0,0
0,0,0
0,0,0
0,0,0
0,0,0
0,0,0
0,0,0
0,0,0
0,0,0
0,0,0
0,0,0
0,0,0
0,0,0
0,0,0
0,0,0
0,0,0
0,0,0
0,0,0
0,0,0
0,0,0
0,0,0
0,0,0
0,0,0
0,0,0
0,0,0
0,0,0
0,0,0
0,0,0
0,0,0
0,0,0
0,0,0
0,0,0
0,0,0
0,0,0
0,0,0
0,0,0
0,0,0
0,0,0
0,0,0
0,0,0
0,0,0
0,0,0
0,0,0
0,0,0
0,0,0
0,0,0
0,0,0
0,0,0
0,0,0
0,0,0
0,0,0
0,0,0
0,0,0
0,0,0
0,0,0
0,0,0
0,0,0
0,0,0
0,0,0
0,0,0
0,0,0
0,0,0
0,0,0
0,0,0
0,0,0
0,0,0
0,0,0
0,0,0
0,0,0
0,0,0
0,0,0
0,0,0
0,0,0
0,0,0
0,0,0
0,0,0
0,0,0
0,0,0
0,0,0
0,0,0
0,0,0
0,0,0
0,0,0
0,0,0
0,0,0
0,0,0
0,0,0
0,0,0
0,0,0
0,0,0
0,0,0
0,0,0
0,0,0
0,0,0
0,0,0
0,0,0
0,0,0
0,0,0
0,0,0
0,0,0
0,0,0
0,0,0
0,0,0
0,0,0
0,0,0
0,0,0
0,0,0
0,0,0
0,0,0
0,0,0
0,0,0
0,0,0
0,0,0
0,0,0
0,0,0
0,0,0
0,0,0
0,0,0
0,0,0
0,0,0
0,0,0
0,0,0
0,0,0
0,0,0
0,0,0
0,0,0
0,0,0
0,0,0
0,0,0
0,0,0
0,0,0
0,0,0
0,0,0
0,0,0
0,0,0
0,0,0
0,0,0
0,0,0
0,0,0
0,0,0
0,0,0
0,0,0
0,0,0
0,0,0
0,0,0
0,0,0
0,0,0
0,0,0
0,0,0
0,0,0
0,0,0
0,0,0
0,0,0
0,0,0
0,0,0
0,0,0
0,0,0
0,0,0
0,0,0
0,0,0
0,0,0
0,0,0
0,0,0
0,0,0
0,0,0
0,0,0
0,0,0
0,0,0
0,0,0
0,0,0
0,0,0
0,0,0
0,0,0
0,0,0
0,0,0
0,0,0
0,0,0
0,0,0
0,0,0
0,0,0
0,0,0
0,0,0
0,0,0
0,0,0
0,0,0
0,0,0
0,0,0
0,0,0
0,0,0
0,0,0
0,0,0
0,0,0
0,0,0
0,0,0
0,0,0
0,0,0
0,0,0
0,0,0
0,0,0
0,0,0
0,0,0
0,0,0
0,0,0
0,0,0
0,0,0
0,0,0
0,0,0
0,0,0
0,0,0
0,0,0
0,0,0
0,0,0
0,0,0
0,0,0
0,0,0
0,0,0
0,0,0
0,0,0
0,0,0
0,0,0
0,0,0
0,0,0
0,0,0
0,0,0
0,0,0
0,0,0
0,0,0
0,0,0
0,0,0
0,0,0
0,0,0
0,0,0
0,0,0
0,0,0
0,0,0
0,0,0
0,0,0
0,0,0
0,0,0
0,0,0
0,0,0
0,0,0
0,0,0
0,0,0
0,0,0
0,0,0
0,0,0
0,0,0
0,0,0
0,0,0
0,0,0
0,0,0
0,0,0
0,0,0
0,0,0
0,0,0
0,0,0
0,0,0
0,0,0
0,0,0
0,0,0
0,0,0
0,0,0
0,0,0
0,0,0
0,0,0
0,0,0
0,0,0
0,0,0
0,0,0
0,0,0
0,0,0
0,0,0
0,0,0
0,0,0
0,0,0
0,0,0
0,0,0
0,0,0
0,0,0
0,0,0
0,0,0
0,0,0
0,0,0
0,0,0
0,0,0
0,0,0
0,0,0
0,0,0
0,0,0
0,0,0
0,0,0
0,0,0
0,0,0
0,0,0
0,0,0
0,0,0
0,0,0
0,0,0
0,0,0
0,0,0
0,0,0
0,0,0
0,0,0
0,0,0
0,0,0
0,0,0
0,0,0
0,0,0
0,0,0
0,0,0
0,0,0
0,0,0
0,0,0
0,0,0
0,0,0
0,0,0
0,0,0
0,0,0
0,0,0
0,0,0
0,0,0
0,0,0
0,0,0
0,0,0
0,0,0
0,0,0
0,0,0
0,0,0
0,0,0
0,0,0
0,0,0
0,0,0
0,0,0
0,0,0
0,0,0
0,0,0
0,0,0
0,0,0
0,0,0
0,0,0
0,0,0
0,0,0
0,0,0
0,0,0
0,0,0
0,0,0
0,0,0
0,0,0
0,0,0
0,0,0
0,0,0
0,0,0
0,0,0
0,0,0
0,0,0
0,0,0
0,0,0
0,0,0
0,0,0
0,0,0
0,0,0
0,0,0
0,0,0
0,0,0
0,0,0
0,0,0
0,0,0
0,0,0
0,0,0
0,0,0
0,0,0
0,0,0
0,0,0
0,0,0
0,0,0
0,0,0
0,0,0
0,0,0
0,0,0
0,0,0
0,0,0
0,0,0
0,0,0
0,0,0
0,0,0
0,0,0
0,0,0
0,0,0
0,0,0
0,0,0
0,0,0
0,0,0
0,0,0
0,0,0
0,0,0
0,0,0
0,0,0
0,0,0
0,0,0
0,0,0
0,0,0
0,0,0
0,0,0
0,0,0
0,0,0
0,0,0
0,0,0
0,0,0
0,0,0
0,0,0
0,0,0
0,0,0
0,0,0
0,0,0
0,0,0
0,0,0
0,0,0
0,0,0
0,0,0
0,0,0
0,0,0
0,0,0
0,0,0
0,0,0
0,0,0
0,0,0
0,0,0
0,0,0
0,0,0
0,0,0
0,0,0
0,0,0
0,0,0
0,0,0
0,0,0
0,0,0
0,0,0
0,0,0
0,0,0
0,0,0
0,0,0
0,0,0
0,0,0
0,0,0
0,0,0
0,0,0
0,0,0
0,0,0
0,0,0
0,0,0
0,0,0
0,0,0
0,0,0
0,0,0
0,0,0
0,0,0
0,0,0
0,0,0
0,0,0
0,0,0
0,0,0
0,0,0
0,0,0
0,0,0
0,0,0
0,0,0
0,0,0
0,0,0
0,0,0
0,0,0
0,0,0
0,0,0
0,0,0
0,0,0
0,0,0
0,0,0
0,0,0
0,0,0
0,0,0
0,0,0
0,0,0
0,0,0
0,0,0
0,0,0
0,0,0
0,0,0
0,0,0
0,0,0
0,0,0
0,0,0
0,0,0
0,0,0
0,0,0
0,0,0
0,0,0
0,0,0
0,0,0
0,0,0
0,0,0
0.32,0.45,0.84
0.32,0.45,0.84
0.32,0.45,0.84
0.32,0.45,0.84
0.32,0.45,0.84
0.32,0.44,0.84
0.32,0.44,0.84
0.32,0.44,0.84
0.32,0.44,0.84
0.32,0.44,0.84
0.32,0.44,0.84
0.32,0.44,0.84
0.32,0.44,0.84
0.32,0.44,0.84
0.31,0.44,0.84
0.31,0.43,0.84
0.31,0.43,0.84
0.31,0.43,0.85
0.31,0.43,0.85
0.31,0.43,0.85
0.31,0.43,0.85
0.3,0.43,0.85
0.3,0.43,0.85
0.29,0.43,0.85
0.28,0.43,0.86
0.27,0.43,0.86
0.27,0.43,0.86
0.27,0.43,0.86
0.28,0.43,0.85
0.27,0.43,0.85
0.26,0.43,0.86
0.26,0.42,0.86
0.26,0.43,0.85
0.25,0.43,0.84
0.24,0.44,0.83
0.23,0.45,0.82
0.23,0.45,0.82
0.24,0.46,0.82
0.24,0.46,0.83
0.25,0.46,0.84
0.26,0.45,0.85
0.27,0.44,0.86
0.28,0.43,0.86
0.29,0.42,0.86
0.29,0.41,0.86
0.29,0.41,0.86
0.3,0.41,0.87
0.31,0.41,0.89
0.32,0.41,0.9
0.33,0.41,0.91
0.36,0.4,0.91
0.38,0.4,0.93
0.41,0.4,0.95
0.42,0.39,0.96
0.42,0.39,0.95
0.44,0.39,0.94
0.45,0.39,0.93
0.46,0.39,0.93
0.48,0.4,0.93
0.47,0.4,0.95
0.51,0.4,0.96
0.53,0.4,0.95
0.54,0.4,0.93
0.57,0.38,0.93
0.59,0.35,0.92
0.62,0.32,0.91
0.67,0.29,0.89
0.71,0.25,0.86
0.75,0.22,0.84
0.78,0.18,0.81
0.79,0.15,0.8
0.76,0.13,0.78
0.74,0.11,0.75
0.76,0.09,0.74
0.75,0.08,0.75
0.74,0.05,0.77
0.78,-0.03,0.8
0.82,-0.08,0.82
0.8,-0.14,0.8
0.76,-0.18,0.76
0.74,-0.22,0.71
0.72,-0.26,0.69
0.71,-0.3,0.66
0.71,-0.35,0.63
0.77,-0.41,0.66
0.88,-0.47,0.71
0.91,-0.53,0.73
0.84,-0.55,0.66
0.84,-0.55,0.66
0.82,-0.54,0.59
0.78,-0.53,0.54
0.77,-0.52,0.5
0.64,-0.46,0.45
0.62,-0.44,0.43
0.59,-0.43,0.42
0.54,-0.42,0.41
0.53,-0.4,0.41
0.51,-0.38,0.39
0.45,-0.36,0.38
0.4,-0.35,0.35
0.34,-0.34,0.29
0.34,-0.36,0.31
0.37,-0.39,0.33
0.39,-0.41,0.34
0.38,-0.44,0.36
0.39,-0.47,0.36
0.39,-0.48,0.35
0.38,-0.49,0.34
0.37,-0.5,0.32
0.38,-0.51,0.29
0.39,-0.53,0.27
0.42,-0.57,0.27
0.46,-0.67,0.24
0.45,-0.7,0.22
0.47,-0.72,0.22
0.48,-0.75,0.24
0.51,-0.79,0.23
0.5,-0.84,0.19
0.46,-0.87,0.18
0.46,-0.88,0.17
0.46,-0.91,0.14
0.45,-0.97,0.13
0.46,-1.02,0.11
0.48,-1.06,0.1
0.49,-1.13,0.13
0.49,-1.11,0.15
0.46,-1.1,0.13
0.47,-1.07,0.14
0.51,-1.1,0.14
0.52,-1.17,0.14
0.52,-1.16,0.15
0.54,-1.12,0.13
0.51,-1.13,0.16
0.5,-1.14,0.16
0.52,-1.11,0.12
0.53,-1.1,0.11
0.55,-1.05,0.11
0.49,-1.07,0.12
0.49,-1.06,0.11
0.48,-1.08,0.06
0.4,-1.46,-0.06
0.36,-1.47,-0.04
0.44,-1.19,-0.05
0.45,-1.13,-0.04
0.44,-1.1,-0.01
0.44,-1.14,0
0.45,-1.21,0
0.44,-1.23,0
0.43,-1.23,0.01
0.41,-1.23,0.03
0.41,-1.24,0.03
0.42,-1.24,0.02
0.4,-1.05,-0.04
0.39,-1.04,-0.02
0.4,-1.03,-0.02
0.41,-1.02,-0.02
0.42,-1.01,-0.02
0.42,-0.99,-0.01
0.42,-0.97,-0.01
0.45,-0.94,0.01
0.49,-0.92,0.04
0.51,-0.91,0.07
0.68,-0.62,0.16
0.69,-0.59,0.17
0.69,-0.59,0.17
0.7,-0.56,0.17
0.72,-0.54,0.18
0.82,-0.39,0.24
0.82,-0.39,0.24
0.84,-0.39,0.25
0.86,-0.39,0.26
0.87,-0.38,0.27
0.85,-0.35,0.3
0.84,-0.34,0.32
0.82,-0.33,0.32
0.81,-0.31,0.33
0.8,-0.3,0.32
0.8,-0.29,0.32
0.8,-0.27,0.33
0.8,-0.27,0.33
0.79,-0.25,0.34
0.78,-0.24,0.35
0.77,-0.24,0.35
0.75,-0.23,0.36
0.73,-0.22,0.36
0.69,-0.2,0.36
0.68,-0.2,0.36
0.67,-0.2,0.35
0.66,-0.21,0.35
0.65,-0.21,0.36
0.64,-0.22,0.37
0.63,-0.23,0.37
0.63,-0.25,0.38
0.63,-0.26,0.38
0.62,-0.28,0.38
0.62,-0.31,0.37
0.61,-0.35,0.36
0.61,-0.4,0.34
0.62,-0.45,0.33
0.63,-0.49,0.33
0.63,-0.52,0.34
0.61,-0.53,0.36
0.61,-0.54,0.36
0.6,-0.55,0.35
0.59,-0.57,0.33
0.57,-0.58,0.3
0.53,-0.58,0.28
0.51,-0.58,0.26
0.49,-0.58,0.24
0.47,-0.6,0.23
0.46,-0.63,0.21
0.42,-0.7,0.2
0.39,-0.75,0.18
0.37,-0.79,0.17
0.36,-0.85,0.16
0.34,-0.92,0.14
0.33,-0.97,0.13
0.35,-0.98,0.12
0.35,-1.03,0.1
0.34,-1.13,0.08
0.34,-1.18,0.08
0.34,-1.22,0.06
0.34,-1.24,0.05
0.34,-1.27,0.04
0.34,-1.31,0.02
0.33,-1.36,0.01
0.34,-1.4,-0.01
0.34,-1.43,-0.02
0.36,-1.42,-0.02
0.4,-1.44,-0.05
0.41,-1.47,-0.07
0.41,-1.46,-0.08
0.39,-1.44,-0.06
0.36,-1.42,-0.03
0.34,-1.41,-0.03
0.35,-1.4,-0.05
0.37,-1.38,-0.05
0.35,-1.32,-0.04
0.34,-1.28,-0.03
0.32,-1.23,-0.03
0.29,-1.18,-0.03
0.27,-1.13,-0.02
0.26,-1.1,-0.02
0.27,-1.08,-0.01
0.27,-1.08,-0.02
0.25,-1.08,-0.01
0.25,-1.06,-0.01
0.25,-1.05,-0.01
0.24,-1.06,-0.01
0.24,-1.07,-0.02
0.24,-1.08,-0.03
0.23,-1.08,-0.03
0.24,-1.09,-0.04
0.25,-1.1,-0.06
0.26,-1.1,-0.06
0.27,-1.11,-0.06
0.29,-1.11,-0.05
0.32,-1.12,-0.04
0.32,-1.12,-0.03
0.31,-1.11,-0.03
0.29,-1.09,-0.03
0.26,-1.09,-0.03
0.25,-1.08,-0.02
0.25,-1.07,0
0.24,-1.08,0.01
0.23,-1.08,0.02
0.22,-1.07,0.03
0.21,-1.07,0.04
0.18,-1.06,0.09
0.17,-1.06,0.09
0.17,-1.05,0.1
0.15,-1.05,0.11
0.15,-1.03,0.12
0.15,-1.02,0.14
0.15,-1,0.15
0.14,-0.98,0.16
0.13,-0.96,0.18
0.13,-0.94,0.18
0.13,-0.92,0.19
0.11,-0.9,0.2
0.09,-0.89,0.21
0.09,-0.87,0.23
0.09,-0.87,0.24
0.07,-0.87,0.25
0.07,-0.87,0.25
0.08,-0.85,0.25
0.07,-0.86,0.26
0.06,-0.98,0.24
0.04,-1.07,0.2
0.03,-1.12,0.16
0.03,-1.12,0.11
0.03,-1.06,0.08
0.05,-0.95,0.07
0.09,-0.83,0.07
0.14,-0.73,0.1
0.12,-0.69,0.17
0.06,-0.73,0.19
0.03,-0.73,0.16
0.02,-0.68,0.14
0,-0.6,0.1
0.01,-0.53,0.08
0.01,-0.5,0.06
0.03,-0.49,0.04
0.09,-0.45,0.03
0.16,-0.45,0.03
0.21,-0.53,0.01
0.21,-0.64,-0.06
0.21,-0.71,-0.12
0.18,-0.7,-0.15
0.19,-0.69,-0.2
0.2,-0.69,-0.25
0.16,-0.67,-0.26
0.19,-0.66,-0.26
0.21,-0.81,-0.35
0.31,-0.86,-0.38
0.27,-0.82,-0.37
0.3,-0.78,-0.34
0.36,-0.82,-0.37
0.37,-0.87,-0.37
0.37,-0.86,-0.35
0.38,-0.88,-0.34
0.39,-0.94,-0.34
0.41,-1.02,-0.37
0.48,-1.13,-0.46
0.48,-1.13,-0.46
0.43,-1.25,-0.4
0.45,-1.15,-0.36
0.47,-1.21,-0.4
0.33,-1.44,-0.28
0.89,-0.42,-0.45
1.06,-0.04,-0.64
0.34,-1.17,-0.35
0.37,-1.7,-0.24
0.36,-1.84,-0.4
0.37,-1.41,-0.26
0.55,-0.77,0.01
0.45,-0.89,0.03
0.56,-1.2,0.03
0.5,-1.24,0.13
0.43,-1.05,0.3
0.52,-0.92,0.28
0.66,-1.04,0.33
0.69,-0.9,0.4
0.64,-0.8,0.51
0.71,-0.71,0.67
0.64,-0.78,0.66
0.54,-0.94,0.78
0.56,-0.98,0.78
0.6,-0.92,0.72
0.61,-0.83,0.69
0.61,-0.97,0.59
0.64,-1.15,0.53
0.69,-1.14,0.5
0.71,-1.14,0.5
0.61,-1.21,0.57
0.57,-1.17,0.61
0.61,-1.09,0.52
0.59,-1.03,0.39
0.6,-0.98,0.26
0.71,-0.91,0.16
0.73,-0.81,0.21
0.65,-0.66,0.28
0.54,-0.48,0.27
0.37,-0.31,0.29
0.34,-0.57,-0.01
0.6,-0.78,-0.38
0.5,-0.87,-0.64
-0.14,-0.69,-0.8
-0.75,-0.3,-0.81
-0.38,-0.23,-0.6
2.09,-2.16,1.76
0.24,-3.14,2.06
-2.53,-1.06,-0.89
0.5,-0.46,-1.16
1,-0.79,0.43
-0.18,-0.8,2.29
-0.27,-0.65,2.6
0.05,-0.53,1.55
0.99,-0.63,0.81
1.29,0.49,0.46
1.5,0.58,0.46
1.23,-0.69,0.12
0.97,-1.18,0.1
0.98,-1.03,0.35
0.8,-0.76,0.57
0.61,-0.53,0.82
0.48,-0.37,0.95
0.5,-0.17,0.94
0.64,0.12,0.65
0.72,0.26,0.25
1.12,0.18,0.38
0.96,0.11,0.61
0.96,0.17,0.72
0.96,0.26,0.8
0.81,0.28,0.9
0.69,0.3,0.84
0.63,0.36,0.75
0.71,0.35,0.69
0.81,0.26,0.52
0.84,0.11,0.38
0.93,0,0.39
1.06,0.03,0.43
1.11,0.09,0.38
1.12,0.11,0.34
0.76,0.02,0.62
0.75,-0.02,0.64
0.74,-0.04,0.64
0.75,-0.02,0.62
0.84,0.02,0.59
0.86,0.06,0.58
0.81,0.06,0.62
0.74,0.01,0.7
0.66,-0.04,0.75
0.65,-0.04,0.77
0.71,-0.03,0.73
0.77,-0.02,0.68
0.84,-0.01,0.64
0.86,0.02,0.6
0.82,0.05,0.58
0.78,0.07,0.62
0.75,0.08,0.66
0.75,0.04,0.7
0.73,0,0.71
0.7,0,0.7
0.71,0,0.7
0.74,0,0.69
0.77,0.01,0.63
0.81,0.02,0.64
0.8,0.02,0.63
0.82,0.02,0.6
0.83,0.02,0.6
0.82,0.02,0.62
0.79,0.02,0.64
0.76,0.01,0.68
0.73,0.01,0.7
0.72,0.01,0.71
0.73,0.02,0.71
0.74,0.02,0.7
0.75,0.01,0.69
0.74,0.01,0.69
0.73,0.01,0.68
0.74,0.02,0.68
0.75,-0.01,0.69
0.76,0,0.7
0.76,0.01,0.68
0.75,0.02,0.67
0.74,0.02,0.69
0.74,0.01,0.7
0.73,0.01,0.7
0.73,0.02,0.7
0.76,0,0.71
0.77,-0.01,0.71
0.76,0.02,0.67
0.75,0.03,0.65
0.75,0.05,0.64
0.75,0.05,0.64
0.78,0.04,0.65
0.78,0.03,0.66
0.76,0.03,0.67
0.74,0.03,0.68
0.74,0.03,0.68
0.75,0.02,0.68
0.76,0.02,0.68
0.76,0.03,0.67
0.76,0.03,0.67
0.76,0.03,0.67
0.76,0.03,0.68
0.77,0.02,0.68
0.77,0.02,0.67
0.76,0.02,0.67
0.75,0.02,0.68
0.74,0.02,0.69
0.73,0.03,0.69
0.74,0.03,0.69
0.76,0.02,0.68
0.77,0.02,0.68
0.77,0.02,0.67
0.77,0.03,0.67
0.76,0.03,0.68
0.76,0.03,0.68
0.76,0.03,0.68
0.77,0.03,0.67
0.77,0.02,0.67
0.76,0.02,0.68
0.76,0.02,0.68
0.75,0.02,0.68
0.74,0.02,0.69
0.74,0.02,0.69
0.75,0.02,0.69
0.76,0.02,0.67
0.76,0.03,0.67
0.77,0.03,0.67
0.77,0.02,0.67
0.76,0.02,0.68
0.76,0.02,0.68
0.75,0.02,0.68
0.75,0.03,0.68
0.76,0.03,0.68
0.76,0.02,0.68
0.76,0.02,0.67
0.76,0.02,0.67
0.76,0.02,0.68
0.76,0.02,0.67
0.76,0.03,0.67
0.76,0.03,0.67
0.77,0.02,0.67
0.77,0.02,0.67
0.76,0.02,0.67
0.75,0.02,0.68
0.75,0.02,0.69
0.75,0.02,0.69
0.76,0.03,0.68
0.76,0.03,0.67
0.76,0.03,0.67
0.76,0.03,0.67
0.76,0.03,0.68
0.74,0.03,0.69
0.74,0.03,0.69
0.75,0.02,0.68
0.77,0.02,0.66
0.79,0.02,0.64
0.8,0.02,0.64
0.79,0.03,0.64
0.78,0.03,0.65
0.77,0.03,0.66
0.77,0.03,0.66
0.77,0.03,0.66
0.77,0.03,0.66
0.77,0.03,0.66
0.76,0.03,0.66
0.77,0.03,0.67
0.78,0.03,0.66
0.78,0.03,0.66
0.77,0.02,0.66
0.77,0.03,0.66
0.77,0.03,0.67
0.77,0.03,0.67
0.76,0.03,0.67
0.76,0.03,0.67
0.76,0.03,0.67
0.76,0.02,0.67
0.77,0.02,0.67
0.77,0.03,0.67
0.77,0.03,0.67
0.76,0.02,0.69
0.76,0.01,0.7
0.75,0.02,0.7
0.75,0.02,0.7
0.76,0.03,0.69
0.77,0.03,0.7
0.77,0.03,0.69
0.77,0.03,0.67
0.76,0.04,0.66
0.76,0.04,0.66
0.77,0.04,0.66
0.76,0.05,0.64
0.76,0.07,0.63
0.77,0.06,0.62
0.77,0.05,0.63
0.77,0.05,0.65
0.76,0.04,0.65
0.77,0.04,0.66
0.77,0.04,0.67
0.76,0.04,0.67
0.75,0.05,0.67
0.74,0.05,0.67
0.75,0.04,0.68
0.76,0.04,0.68
0.76,0.04,0.69
0.76,0.04,0.69
0.75,0.03,0.69
0.76,0.04,0.68
0.76,0.04,0.66
0.77,0.04,0.66
0.78,0.04,0.66
0.77,0.04,0.66
0.75,0.04,0.67
0.74,0.05,0.68
0.75,0.04,0.69
0.76,0.03,0.69
0.77,0.03,0.68
0.77,0.04,0.68
0.77,0.04,0.66
0.76,0.04,0.67
0.75,0.04,0.68
0.75,0.04,0.68
0.75,0.04,0.68
0.76,0.04,0.67
0.77,0.04,0.66
0.77,0.04,0.66
0.77,0.03,0.66
0.76,0.03,0.67
0.75,0.04,0.67
0.75,0.04,0.68
0.75,0.04,0.68
0.75,0.03,0.68
0.76,0.04,0.68
0.77,0.04,0.67
0.78,0.04,0.66
0.78,0.03,0.66
0.77,0.03,0.66
0.76,0.03,0.67
0.76,0.03,0.68
0.75,0.03,0.68
0.76,0.03,0.68
0.76,0.04,0.67
0.76,0.03,0.67
0.76,0.03,0.67
0.76,0.04,0.67
0.76,0.03,0.68
0.76,0.03,0.67
0.76,0.04,0.67
0.76,0.03,0.67
0.77,0.03,0.67
0.77,0.03,0.67
0.77,0.04,0.66
0.76,0.04,0.67
0.76,0.04,0.67
0.76,0.04,0.67
0.77,0.04,0.67
0.77,0.03,0.67
0.77,0.04,0.66
0.76,0.04,0.66
0.76,0.04,0.66
0.77,0.04,0.67
0.77,0.04,0.66
0.76,0.04,0.66
0.77,0.04,0.65
0.78,0.04,0.66
0.78,0.03,0.66
0.77,0.04,0.66
0.77,0.04,0.67
0.77,0.04,0.67
0.77,0.04,0.66
0.77,0.04,0.66
0.77,0.04,0.66
0.78,0.04,0.66
0.78,0.04,0.66
0.77,0.04,0.66
0.77,0.04,0.66
0.77,0.04,0.66
0.77,0.04,0.66
0.77,0.04,0.66
0.77,0.04,0.66
0.77,0.04,0.66
0.77,0.04,0.66
0.78,0.04,0.66
0.78,0.03,0.66
0.78,0.04,0.66
0.78,0.04,0.65
0.77,0.03,0.66
0.77,0.04,0.66
0.76,0.04,0.66
0.76,0.04,0.67
0.77,0.04,0.67
0.77,0.04,0.66
0.78,0.04,0.66
0.78,0.04,0.65
0.77,0.04,0.65
0.77,0.04,0.66
0.77,0.04,0.66
0.77,0.04,0.66
0.77,0.04,0.66
0.78,0.04,0.66
0.77,0.04,0.66
0.77,0.04,0.66
0.77,0.04,0.66
0.77,0.04,0.66
0.77,0.04,0.66
0.77,0.03,0.66
0.78,0.03,0.66
0.78,0.04,0.65
0.78,0.04,0.66
0.78,0.04,0.66
0.77,0.04,0.65
0.77,0.04,0.66
0.77,0.04,0.66
0.77,0.04,0.66
0.77,0.04,0.66
0.77,0.03,0.66
0.78,0.04,0.65
0.78,0.04,0.65
0.78,0.04,0.65
0.77,0.04,0.65
0.77,0.04,0.66
0.77,0.04,0.66
0.76,0.04,0.66
0.77,0.04,0.66
0.78,0.04,0.65
0.78,0.04,0.65
0.78,0.04,0.65
0.78,0.04,0.65
0.78,0.04,0.65
0.78,0.04,0.66
0.77,0.04,0.66
0.77,0.04,0.66
0.77,0.04,0.66
0.77,0.04,0.66
0.77,0.04,0.66
0.78,0.04,0.65
0.78,0.04,0.65
0.78,0.04,0.65
0.78,0.03,0.66
0.77,0.04,0.66
0.77,0.04,0.66
0.77,0.04,0.66
0.77,0.03,0.66
0.78,0.04,0.66
0.78,0.04,0.65
0.78,0.04,0.65
0.78,0.04,0.66
0.77,0.04,0.66
0.77,0.04,0.66
0.77,0.04,0.66
0.77,0.03,0.66
0.78,0.04,0.65
0.78,0.04,0.65
0.78,0.04,0.65
0.78,0.04,0.66
0.77,0.04,0.66
0.77,0.04,0.66
0.77,0.04,0.66
0.77,0.04,0.66
0.78,0.04,0.66
0.78,0.04,0.65
0.78,0.04,0.65
0.78,0.04,0.65
0.77,0.03,0.66
0.77,0.03,0.66
0.77,0.03,0.66
0.77,0.03,0.66
0.77,0.03,0.66
0.78,0.03,0.66
0.78,0.03,0.66
0.77,0.03,0.66
0.77,0.03,0.66
0.77,0.03,0.66
0.77,0.03,0.66
0.77,0.03,0.66
0.77,0.04,0.66
0.78,0.03,0.65
0.78,0.03,0.65
0.77,0.04,0.65
0.77,0.03,0.66
0.77,0.03,0.66
0.78,0.03,0.66
0.77,0.03,0.66
0.77,0.03,0.66
0.78,0.03,0.66
0.78,0.03,0.65
0.78,0.04,0.65
0.78,0.04,0.65
0.78,0.03,0.66
0.77,0.03,0.66
0.77,0.04,0.66
0.77,0.03,0.66
0.77,0.03,0.66
0.78,0.03,0.66
0.78,0.03,0.65
0.78,0.03,0.65
0.78,0.03,0.66
0.77,0.03,0.66
0.77,0.03,0.66
0.77,0.03,0.67
0.77,0.03,0.66
0.77,0.03,0.66
0.78,0.03,0.66
0.77,0.04,0.66
0.77,0.03,0.66
0.77,0.03,0.66
0.76,0.04,0.66
0.77,0.03,0.66
0.77,0.03,0.66
0.78,0.03,0.66
0.78,0.03,0.65
0.78,0.03,0.65
0.77,0.03,0.66
0.77,0.04,0.66
0.77,0.04,0.66
0.76,0.04,0.66
0.77,0.04,0.66
0.77,0.03,0.66
0.77,0.03,0.66
0.77,0.03,0.66
0.77,0.03,0.66
0.77,0.03,0.66
0.77,0.03,0.67
0.77,0.03,0.67
0.77,0.03,0.67
0.77,0.03,0.66
0.77,0.03,0.66
0.77,0.03,0.66
0.77,0.03,0.67
0.77,0.03,0.67
0.77,0.03,0.67
0.76,0.03,0.66
0.77,0.03,0.66
0.77,0.03,0.66
0.77,0.03,0.66
0.77,0.03,0.66
0.77,0.03,0.66
0.77,0.03,0.66
0.77,0.03,0.67
0.76,0.03,0.67
0.76,0.03,0.66
0.77,0.03,0.67
0.77,0.03,0.66
0.77,0.03,0.66
0.76,0.03,0.67
0.77,0.03,0.67
0.77,0.03,0.67
0.77,0.03,0.67
0.77,0.03,0.67
0.76,0.03,0.67
0.77,0.03,0.67
0.77,0.03,0.67
0.77,0.03,0.66
0.77,0.03,0.66
0.77,0.03,0.67
0.77,0.03,0.67
0.77,0.03,0.67
0.77,0.03,0.67
0.77,0.03,0.66
0.77,0.03,0.67
0.77,0.03,0.67
0.77,0.03,0.67
0.77,0.03,0.67
0.77,0.03,0.66
0.77,0.03,0.66
0.77,0.03,0.66
0.77,0.03,0.66
0.77,0.03,0.67
0.77,0.03,0.66
0.77,0.03,0.66
0.77,0.03,0.66
0.77,0.03,0.66
0.77,0.03,0.66
0.77,0.03,0.66
0.77,0.03,0.66
0.77,0.03,0.66
0.77,0.03,0.66
0.77,0.03,0.66
0.77,0.03,0.66
0.77,0.03,0.66
0.77,0.03,0.66
0.77,0.03,0.66
0.77,0.03,0.66
0.77,0.03,0.66
0.77,0.03,0.66
0.77,0.03,0.66
0.77,0.03,0.66
0.77,0.03,0.66
0.77,0.03,0.66
0.77,0.03,0.66
0.77,0.04,0.66
0.77,0.04,0.66
0.77,0.03,0.66
0.77,0.03,0.66
0.77,0.04,0.66
0.77,0.03,0.66
0.77,0.03,0.66
0.77,0.03,0.66
0.77,0.03,0.66
0.77,0.03,0.66
0.78,0.03,0.66
0.77,0.03,0.66
0.77,0.03,0.66
0.77,0.03,0.66
0.77,0.04,0.66
0.77,0.04,0.66
0.77,0.03,0.66
0.78,0.03,0.66
0.78,0.03,0.66
0.78,0.03,0.66
0.78,0.03,0.66
0.77,0.03,0.66
0.77,0.03,0.65
0.77,0.03,0.65
0.77,0.03,0.66
0.77,0.03,0.67
0.77,0.03,0.66
0.77,0.03,0.66
0.77,0.03,0.66
0.77,0.03,0.66
0.78,0.03,0.66
0.77,0.03,0.66
0.77,0.03,0.66
0.77,0.04,0.66
0.77,0.03,0.66
0.77,0.03,0.66
0.77,0.03,0.66
0.77,0.03,0.66
0.77,0.03,0.66
0.77,0.03,0.66
0.77,0.03,0.66
0.77,0.03,0.66
0.77,0.03,0.65
0.78,0.04,0.65
0.78,0.03,0.65
0.78,0.03,0.65
0.77,0.03,0.66
0.77,0.03,0.66
0.78,0.03,0.66
0.78,0.04,0.66
0.78,0.04,0.65
0.78,0.03,0.65
0.78,0.03,0.65
0.78,0.03,0.65
0.78,0.03,0.65
0.78,0.03,0.66
0.77,0.03,0.66
0.77,0.04,0.66
0.78,0.03,0.66
0.78,0.03,0.65
0.78,0.03,0.65
0.78,0.03,0.65
0.78,0.03,0.65
0.78,0.04,0.65
0.77,0.04,0.66
0.77,0.03,0.66
0.78,0.03,0.65
0.78,0.03,0.65
0.78,0.03,0.65
0.78,0.03,0.65
0.78,0.03,0.65
0.78,0.03,0.65
0.78,0.03,0.65
0.78,0.03,0.65
0.78,0.03,0.66
0.78,0.03,0.66
0.78,0.03,0.65
0.78,0.03,0.65
0.78,0.03,0.65
0.78,0.03,0.65
0.78,0.04,0.65
0.77,0.04,0.65
0.78,0.04,0.65
0.78,0.03,0.65
0.78,0.03,0.65
0.78,0.03,0.65
0.78,0.03,0.65
0.78,0.03,0.65
0.78,0.03,0.66
0.78,0.03,0.65
0.77,0.03,0.65
0.78,0.03,0.65
0.78,0.03,0.65
0.78,0.03,0.65
0.77,0.03,0.66
0.78,0.03,0.66
0.77,0.03,0.66
0.78,0.03,0.66
0.78,0.03,0.65
0.78,0.04,0.65
0.78,0.03,0.65
0.78,0.03,0.65
0.78,0.03,0.66
0.78,0.03,0.65
0.78,0.03,0.65
0.78,0.03,0.65
0.77,0.03,0.65
0.78,0.03,0.65
0.78,0.04,0.65
0.78,0.03,0.65
0.77,0.03,0.65
0.77,0.03,0.66
0.78,0.03,0.66
0.78,0.03,0.65
0.78,0.04,0.65
0.78,0.03,0.65
0.78,0.03,0.65
0.78,0.03,0.65
0.78,0.03,0.65
0.77,0.04,0.66
0.78,0.03,0.66
0.78,0.03,0.65
0.78,0.03,0.65
0.77,0.03,0.65
0.78,0.03,0.66
0.78,0.03,0.66
0.78,0.04,0.65
0.78,0.03,0.65
0.79,0.03,0.65
0.78,0.03,0.65
0.78,0.03,0.65
0.78,0.03,0.65
0.78,0.04,0.66
0.78,0.03,0.66
0.77,0.03,0.65
0.77,0.03,0.65
0.77,0.03,0.65
0.78,0.03,0.65
0.78,0.03,0.65
0.78,0.03,0.65
0.78,0.03,0.65
0.78,0.03,0.65
0.78,0.03,0.65
0.78,0.03,0.65
0.78,0.03,0.65
0.77,0.03,0.65
0.77,0.03,0.65
0.78,0.03,0.65
0.77,0.03,0.65
0.78,0.03,0.65
0.78,0.03,0.65
0.78,0.03,0.66
0.77,0.03,0.66
0.77,0.03,0.66
0.78,0.03,0.66
0.77,0.03,0.66
0.77,0.03,0.65
0.78,0.03,0.65
0.78,0.03,0.66
0.78,0.03,0.66
0.77,0.03,0.66
0.78,0.03,0.66
0.77,0.03,0.66
0.77,0.03,0.65
0.78,0.03,0.65
0.78,0.03,0.65
0.78,0.03,0.65
0.78,0.03,0.65
0.78,0.03,0.66
0.78,0.03,0.66
0.78,0.03,0.65
0.78,0.03,0.65
0.78,0.03,0.65
0.78,0.03,0.65
0.78,0.03,0.65
0.77,0.03,0.66
0.77,0.03,0.66
0.78,0.03,0.66
0.78,0.03,0.65
0.78,0.03,0.65
0.78,0.03,0.65
0.78,0.03,0.65
0.78,0.03,0.65
0.78,0.03,0.65
0.78,0.03,0.65
0.78,0.04,0.65
0.78,0.04,0.65
0.78,0.04,0.64
0.78,0.03,0.65
0.78,0.04,0.65
0.78,0.03,0.66
0.77,0.03,0.66
0.78,0.03,0.66
0.78,0.04,0.65
0.78,0.03,0.65
0.78,0.03,0.65
0.78,0.03,0.65
0.78,0.03,0.65
0.78,0.03,0.65
0.78,0.03,0.65
0.78,0.03,0.65
0.78,0.03,0.65
0.78,0.03,0.65
0.78,0.04,0.65
0.78,0.04,0.65
0.78,0.03,0.65
0.78,0.03,0.65
0.78,0.03,0.65
0.77,0.03,0.66
0.77,0.03,0.66
0.78,0.03,0.65
0.78,0.04,0.65
0.78,0.04,0.64
0.78,0.04,0.64
0.78,0.03,0.65
0.78,0.03,0.65
0.78,0.04,0.65
0.79,0.04,0.65
0.79,0.03,0.65
0.79,0.03,0.64
0.79,0.03,0.64
0.78,0.03,0.64
0.78,0.03,0.65
0.78,0.03,0.65
0.78,0.03,0.65
0.78,0.03,0.65
0.79,0.03,0.64
0.79,0.03,0.64
0.79,0.03,0.64
0.79,0.03,0.65
0.78,0.03,0.65
0.77,0.03,0.65
0.78,0.03,0.65
0.78,0.03,0.65
0.78,0.03,0.65
0.78,0.03,0.65
0.79,0.03,0.64
0.79,0.03,0.64
0.78,0.03,0.65
0.78,0.03,0.65
0.78,0.03,0.66
0.78,0.03,0.65
0.78,0.03,0.65
0.78,0.03,0.65
0.78,0.03,0.65
0.79,0.03,0.65
0.78,0.03,0.65
0.78,0.03,0.65
0.78,0.03,0.65
0.78,0.03,0.65
0.78,0.03,0.65
0.79,0.03,0.64
0.79,0.04,0.64
0.79,0.03,0.64
0.78,0.03,0.65
0.78,0.03,0.65
0.78,0.03,0.65
0.79,0.03,0.65
0.79,0.03,0.64
0.79,0.03,0.64
0.79,0.03,0.64
0.79,0.03,0.64
0.79,0.03,0.64
0.79,0.03,0.64
0.78,0.03,0.64
0.78,0.03,0.65
0.78,0.03,0.65
0.79,0.03,0.64
0.79,0.03,0.64
0.8,0.03,0.64
0.79,0.03,0.64
0.78,0.03,0.64
0.78,0.03,0.65
0.78,0.03,0.65
0.77,0.03,0.65
0.78,0.03,0.65
0.78,0.03,0.65
0.79,0.03,0.64
0.79,0.03,0.64
0.78,0.03,0.65
0.78,0.03,0.65
0.79,0.03,0.65
0.78,0.03,0.65
0.79,0.03,0.65
0.79,0.03,0.65
0.79,0.03,0.64
0.79,0.03,0.64
0.79,0.03,0.64
0.78,0.03,0.64
0.78,0.03,0.65
0.78,0.03,0.65
0.78,0.03,0.65
0.79,0.03,0.65
0.78,0.02,0.65
0.78,0.03,0.64
0.79,0.03,0.64
0.79,0.03,0.64
0.79,0.04,0.64
0.79,0.03,0.64
0.78,0.03,0.65
0.78,0.03,0.65
0.78,0.03,0.65
0.79,0.03,0.65
0.79,0.03,0.64
0.79,0.03,0.64
0.79,0.03,0.64
0.8,0.03,0.64
0.79,0.03,0.64
0.78,0.03,0.64
0.78,0.03,0.65
0.78,0.03,0.65
0.79,0.03,0.65
0.78,0.03,0.64
0.79,0.03,0.64
0.79,0.03,0.64
0.8,0.02,0.63
0.8,0.02,0.63
0.79,0.03,0.64
0.79,0.03,0.64
0.78,0.03,0.65
0.79,0.03,0.65
0.79,0.03,0.64
0.79,0.03,0.64
0.79,0.03,0.63
0.8,0.03,0.63
0.79,0.03,0.64
0.79,0.03,0.64
0.78,0.03,0.65
0.79,0.03,0.64
0.79,0.03,0.64
0.79,0.03,0.64
0.79,0.03,0.64
0.79,0.03,0.64
0.79,0.03,0.64
0.79,0.03,0.64
0.79,0.03,0.64
0.79,0.03,0.64
0.78,0.03,0.64
0.79,0.03,0.65
0.79,0.03,0.64
0.79,0.03,0.64
0.79,0.03,0.64
0.79,0.03,0.64
0.8,0.03,0.64
0.79,0.03,0.64
0.79,0.03,0.64
0.79,0.03,0.64
0.79,0.03,0.64
0.79,0.03,0.64
0.79,0.03,0.65
0.79,0.03,0.64
0.79,0.03,0.64
0.79,0.03,0.63
0.79,0.03,0.64
0.79,0.03,0.64
0.79,0.03,0.64
0.79,0.03,0.64
0.79,0.03,0.64
0.79,0.03,0.64
0.79,0.03,0.64
0.78,0.03,0.64
0.78,0.03,0.64
0.79,0.03,0.64
0.79,0.03,0.64
0.79,0.03,0.64
0.79,0.03,0.64
0.79,0.03,0.64
0.79,0.03,0.64
0.79,0.03,0.64
0.79,0.04,0.64
0.79,0.03,0.64
0.79,0.03,0.64
0.79,0.03,0.63
0.79,0.03,0.64
0.79,0.03,0.64
0.79,0.03,0.64
0.79,0.03,0.64
0.79,0.02,0.64
0.79,0.03,0.64
0.79,0.03,0.63
0.8,0.03,0.63
0.79,0.03,0.63
0.79,0.03,0.64
0.79,0.03,0.64
0.79,0.03,0.64
0.79,0.03,0.64
0.79,0.03,0.64
0.78,0.03,0.64
0.79,0.03,0.64
0.79,0.03,0.64
0.79,0.03,0.64
0.79,0.03,0.64
0.79,0.03,0.64
0.79,0.03,0.64
0.79,0.03,0.64
0.79,0.03,0.64
0.79,0.03,0.64
0.79,0.03,0.64
0.8,0.03,0.64
0.79,0.03,0.64
0.79,0.03,0.64
0.79,0.03,0.64
0.79,0.03,0.64
0.79,0.03,0.64
0.79,0.03,0.64
0.8,0.03,0.63
0.79,0.03,0.63
0.79,0.03,0.63
0.8,0.03,0.64
0.79,0.03,0.64
0.79,0.03,0.64
0.79,0.03,0.64
0.79,0.03,0.64
0.79,0.02,0.63
0.79,0.02,0.62
0.79,0.03,0.64
0.78,0.04,0.64
0.77,0.03,0.65
0.77,0.03,0.65
0.78,0.03,0.65
0.79,0.03,0.64
0.79,0.03,0.64
0.79,0.03,0.64
0.79,0.03,0.64
0.79,0.03,0.64
0.79,0.03,0.64
0.79,0.03,0.64
0.79,0.03,0.64
0.79,0.03,0.64
0.79,0.03,0.64
0.79,0.03,0.64
0.79,0.03,0.64
0.79,0.03,0.64
0.79,0.03,0.64
0.79,0.03,0.64
0.79,0.03,0.64
0.79,0.03,0.64
0.79,0.03,0.64
0.79,0.03,0.64
0.79,0.03,0.64
0.79,0.03,0.63
0.79,0.03,0.63
0.79,0.03,0.64
0.79,0.03,0.64
0.79,0.03,0.65
0.78,0.03,0.65
0.78,0.03,0.64
0.79,0.03,0.64
0.79,0.03,0.64
0.79,0.03,0.63
0.8,0.03,0.63
0.79,0.03,0.63
0.79,0.03,0.64
0.79,0.03,0.65
0.79,0.03,0.65
0.79,0.03,0.64
0.79,0.03,0.64
0.79,0.03,0.64
0.79,0.03,0.63
0.79,0.03,0.63
0.79,0.03,0.64
0.79,0.03,0.64
0.79,0.03,0.64
0.79,0.03,0.64
0.8,0.03,0.64
0.79,0.03,0.64
0.79,0.03,0.64
0.79,0.03,0.64
0.78,0.03,0.64
0.78,0.03,0.64
0.79,0.03,0.64
0.79,0.03,0.64
0.79,0.04,0.63
0.79,0.03,0.63
0.78,0.03,0.64
0.78,0.03,0.65
0.78,0.03,0.66
0.77,0.03,0.66
0.77,0.03,0.66
0.77,0.03,0.66
0.78,0.03,0.65
0.79,0.03,0.65
0.8,0.02,0.65
0.79,0.03,0.63
0.79,0.04,0.63
0.8,0.04,0.63
0.8,0.03,0.64
0.8,0.03,0.64
0.79,0.03,0.64
0.78,0.04,0.63
0.78,0.04,0.63
0.79,0.04,0.63
0.81,0.03,0.64
0.81,0.03,0.64
0.8,0.02,0.64
0.8,0.02,0.63
0.79,0.03,0.62
0.8,0.04,0.62
0.81,0.04,0.62
0.82,0.05,0.61
0.82,0.04,0.6
0.82,0.03,0.61
0.81,0.03,0.62
0.8,0.03,0.64
0.78,0.03,0.66
0.77,0.04,0.65
0.78,0.03,0.64
0.79,0.04,0.63
0.8,0.04,0.62
0.81,0.04,0.61
0.81,0.04,0.61
0.8,0.04,0.61
0.78,0.04,0.64
0.8,0.05,0.65
0.8,0.05,0.63
0.79,0.04,0.63
0.8,0.04,0.62
0.79,0.04,0.63
0.78,0.04,0.64
0.8,0.04,0.63
0.82,0.04,0.62
0.81,0.04,0.62
0.8,0.05,0.61
0.8,0.04,0.62
0.8,0.04,0.63
0.8,0.04,0.63
0.8,0.04,0.63
0.81,0.04,0.63
0.81,0.04,0.63
0.81,0.04,0.62
0.81,0.04,0.62
0.8,0.04,0.62
0.8,0.04,0.61
0.79,0.05,0.61
0.8,0.04,0.62
0.81,0.03,0.63
0.81,0.03,0.63
0.81,0.03,0.62
0.82,0.03,0.6
0.8,0.05,0.6
0.8,0.05,0.62
0.79,0.04,0.66
0.78,0.03,0.68
0.77,0.02,0.69
0.76,0.02,0.68
0.76,0.02,0.67
0.77,0.03,0.66
0.78,0.03,0.65
0.8,0.03,0.65
0.8,0.03,0.64
0.8,0.03,0.63
0.8,0.03,0.62
0.8,0.03,0.62
0.8,0.04,0.62
0.8,0.03,0.62
0.79,0.03,0.63
0.79,0.03,0.64
0.78,0.03,0.65
0.79,0.03,0.66
0.8,0.02,0.65
0.8,0.03,0.63
0.8,0.03,0.62
0.79,0.03,0.62
0.79,0.04,0.62
0.79,0.03,0.64
0.8,0.02,0.64
0.79,0.03,0.63
0.79,0.03,0.63
0.8,0.03,0.62
0.8,0.03,0.63
0.79,0.04,0.63
0.79,0.03,0.64
0.79,0.03,0.65
0.8,0.02,0.64
0.8,0.02,0.63
0.79,0.03,0.63
0.79,0.03,0.63
0.79,0.03,0.64
0.8,0.03,0.64
0.8,0.03,0.62
0.8,0.03,0.63
0.8,0.03,0.64
0.79,0.03,0.64
0.79,0.03,0.64
0.79,0.03,0.64
0.79,0.02,0.64
0.78,0.03,0.64
0.79,0.03,0.64
0.8,0.03,0.63
0.79,0.03,0.63
0.79,0.02,0.64
0.79,0.02,0.64
0.8,0.02,0.64
0.81,0.03,0.63
0.82,0.03,0.63
0.81,0.03,0.63
0.8,0.03,0.63
0.79,0.03,0.64
0.79,0.03,0.64
0.8,0.03,0.64
0.8,0.03,0.64
0.81,0.03,0.63
0.81,0.02,0.63
0.82,0.03,0.62
0.83,0.03,0.62
0.82,0.02,0.63
0.85,0.02,0.63
0.84,0.04,0.62
0.83,0.03,0.6
0.86,0.02,0.59
0.88,0.02,0.57
0.9,0.02,0.55
0.97,0.04,0.51
1.03,0.03,0.48
1.01,0.01,0.51
1.02,0.03,0.52
1.02,0.03,0.51
0.97,0.05,0.54
0.93,0.05,0.53
0.88,0.06,0.53
0.87,0.06,0.53
0.86,0.06,0.55
0.83,0.06,0.55
0.83,0.06,0.54
0.82,0.06,0.53
0.81,0.05,0.55
0.82,0.05,0.56
0.86,0.05,0.55
0.88,0.05,0.54
0.88,0.05,0.54
0.86,0.05,0.56
0.85,0.05,0.58
0.84,0.04,0.59
0.85,0.04,0.6
0.87,0.03,0.6
0.89,0.02,0.59
0.91,0.03,0.59
0.91,0.03,0.6
0.9,0.03,0.59
0.89,0.04,0.56
0.87,0.05,0.52
0.85,0.06,0.49
0.83,0.06,0.45
0.84,0.11,0.42
0.89,0.13,0.45
0.91,0.15,0.49
0.89,0.18,0.52
0.88,0.21,0.53
0.88,0.24,0.53
0.88,0.26,0.53
0.86,0.27,0.55
0.85,0.27,0.58
0.86,0.29,0.59
0.91,0.3,0.58
1,0.32,0.59
1.08,0.37,0.61
1.1,0.43,0.66
1.09,0.48,0.7
1.09,0.39,0.78
1.18,0.24,0.87
1.27,0.19,0.92
1.27,0.19,0.93
1.22,0.15,0.92
1.15,0.11,0.91
1.09,0.13,0.9
1.06,0.14,0.89
1.03,0.16,0.88
0.99,0.19,0.86
0.95,0.2,0.84
0.89,0.19,0.76
0.8,0.2,0.74
0.77,0.21,0.72
0.75,0.22,0.69
0.72,0.23,0.65
0.72,0.24,0.61
0.73,0.24,0.57
0.74,0.24,0.54
0.74,0.22,0.51
0.75,0.2,0.5
0.75,0.18,0.49
0.75,0.17,0.47
0.75,0.18,0.45
0.75,0.2,0.43
0.74,0.22,0.42
0.74,0.23,0.41
0.9,0.18,0.43
0.9,0.18,0.43
0.9,0.14,0.5
0.87,0.12,0.52
0.83,0.11,0.52
0.81,0.1,0.51
0.81,0.09,0.47
0.87,0.09,0.46
0.9,0.1,0.47
0.9,0.11,0.49
0.85,0.11,0.54
0.81,0.11,0.58
0.77,0.11,0.6
0.73,0.11,0.59
0.69,0.12,0.57
0.68,0.14,0.54
0.68,0.15,0.52
0.7,0.15,0.52
0.74,0.15,0.52
0.75,0.15,0.54
0.73,0.15,0.58
0.72,0.15,0.63
0.7,0.14,0.67
0.67,0.12,0.69
0.64,0.1,0.7
0.61,0.08,0.7
0.61,0.06,0.7
0.62,0.04,0.71
0.63,0.02,0.73
0.63,0.01,0.77
0.62,-0.01,0.82
0.6,-0.03,0.84
0.57,-0.03,0.9
0.49,-0.05,0.92
0.47,-0.05,0.92
0.46,-0.05,0.91
0.43,-0.05,0.87
0.41,-0.04,0.85
0.42,-0.03,0.84
0.43,-0.03,0.85
0.4,-0.04,0.88
0.37,-0.06,0.91
0.33,-0.07,0.94
0.3,-0.07,0.95
0.28,-0.07,0.95
0.26,-0.07,0.94
0.23,-0.08,0.92
0.22,-0.08,0.92
0.22,-0.09,0.92
0.25,-0.09,0.91
0.28,-0.09,0.89
0.3,-0.09,0.9
0.18,-0.14,0.99
0.18,-0.14,0.99
0.16,-0.14,0.99
0.15,-0.14,0.99
0.13,-0.13,1
0.13,-0.14,0.99
0.15,-0.14,0.97
0.16,-0.14,0.95
0.16,-0.14,0.94
0.14,-0.13,0.95
0.13,-0.11,0.97
0.1,-0.11,0.98
0.08,-0.11,0.99
0.06,-0.11,1
0.04,-0.11,1
0.03,-0.11,0.99
0.02,-0.12,1
0.01,-0.14,1.03
0.02,-0.18,1.08
0.04,-0.24,1.13
0.06,-0.32,1.14
0.08,-0.39,1.14
0.08,-0.46,1.12
0.11,-0.54,1.1
0.13,-0.61,1.1
0.12,-0.64,1.13
0.11,-0.67,1.15
0.1,-0.69,1.16
0.11,-0.7,1.16
0.14,-0.7,1.13
0.13,-0.7,1.11
0.06,-0.71,1.09
0.06,-0.7,1.06
0.08,-0.7,1.04
0.11,-0.7,1.02
0.1,-0.69,1.01
0.08,-0.68,0.99
0.06,-0.71,0.97
0.04,-0.72,0.96
0.03,-0.71,0.97
0.03,-0.67,0.96
0.04,-0.61,0.96
0.04,-0.56,0.97
0.02,-0.51,1
-0.01,-0.47,1.03
-0.04,-0.45,1.02
-0.06,-0.44,1
-0.07,-0.45,0.97
-0.08,-0.44,0.96
-0.08,-0.41,0.96
-0.1,-0.36,0.97
-0.12,-0.31,0.98
-0.13,-0.25,0.98
-0.14,-0.21,0.96
-0.14,-0.18,0.93
-0.14,-0.17,0.9
-0.15,-0.14,0.87
-0.16,-0.08,0.87
-0.17,-0.05,0.89
-0.19,-0.02,0.89
-0.19,-0.02,0.87
-0.17,-0.03,0.84
-0.16,-0.02,0.82
-0.16,-0.02,0.8
-0.15,-0.04,0.78
-0.13,-0.05,0.79
-0.11,-0.06,0.81
-0.12,-0.07,0.82
-0.13,-0.1,0.82
-0.14,-0.1,0.81
-0.14,-0.08,0.82
-0.14,-0.09,0.81
-0.13,-0.11,0.81
-0.12,-0.15,0.79
-0.1,-0.18,0.77
-0.09,-0.18,0.74
-0.09,-0.18,0.72
-0.09,-0.18,0.7
-0.09,-0.17,0.68
-0.1,-0.18,0.68
-0.11,-0.21,0.68
-0.12,-0.22,0.67
-0.14,-0.19,0.65
-0.19,-0.12,0.65
-0.2,-0.12,0.64
-0.21,-0.16,0.67
-0.23,-0.2,0.71
-0.25,-0.2,0.74
-0.27,-0.19,0.77
-0.29,-0.18,0.8
-0.3,-0.19,0.8
-0.31,-0.19,0.81
-0.33,-0.18,0.84
-0.35,-0.19,0.83
-0.35,-0.2,0.83
-0.33,-0.19,0.85
-0.3,-0.17,0.88
-0.27,-0.17,0.91
-0.26,-0.17,0.92
-0.26,-0.14,0.92
-0.24,-0.1,0.92
-0.22,-0.07,0.96
-0.22,-0.08,0.99
-0.24,-0.09,1
-0.26,-0.1,1
-0.26,-0.13,0.99
-0.21,-0.17,0.99
-0.15,-0.2,1
-0.1,-0.22,1.06
-0.07,-0.26,1.04
-0.01,-0.27,1
0.02,-0.3,0.98
0.04,-0.37,0.97
0.06,-0.47,0.97
0.07,-0.55,1.01
0.08,-0.58,1.05
0.09,-0.59,1.07
0.08,-0.6,1.07
0.08,-0.61,1.05
0.09,-0.62,1.05
0.11,-0.63,1.05
0.15,-0.67,1.06
0.17,-0.7,1.07
0.16,-0.71,1.08
0.16,-0.71,1.07
0.17,-0.69,1.06
0.15,-0.66,1.05
0.12,-0.62,1.05
0.11,-0.6,1.05
0.1,-0.58,1.03
0.1,-0.55,1.02
0.08,-0.51,1.01
0.07,-0.46,1.01
0.07,-0.4,1.01
0.08,-0.34,1.02
0.09,-0.29,1.06
0.05,-0.29,1.05
0.04,-0.31,1.01
0.04,-0.33,0.99
0.04,-0.34,0.99
0.04,-0.34,1.01
0.03,-0.35,1.01
0.01,-0.36,1
0,-0.36,0.97
-0.02,-0.35,0.93
-0.05,-0.32,0.89
-0.06,-0.26,0.85
-0.07,-0.23,0.84
-0.08,-0.18,0.81
-0.07,-0.14,0.78
-0.06,-0.14,0.76
-0.03,-0.18,0.76
-0.02,-0.22,0.78
-0.03,-0.24,0.8
-0.04,-0.23,0.81
-0.05,-0.22,0.81
-0.05,-0.22,0.82
-0.06,-0.22,0.85
-0.08,-0.22,0.88
-0.09,-0.23,0.9
-0.09,-0.3,0.95
-0.08,-0.32,0.97
-0.1,-0.32,0.99
-0.12,-0.3,0.99
-0.14,-0.3,0.99
-0.15,-0.3,1
-0.15,-0.31,1.01
-0.16,-0.31,1.03
-0.16,-0.31,1.05
-0.15,-0.31,1.04
-0.15,-0.32,1.02
-0.15,-0.35,0.99
-0.15,-0.38,0.99
-0.16,-0.41,1.01
-0.17,-0.45,1.02
-0.18,-0.5,1.02
-0.18,-0.56,1.01
-0.16,-0.62,1.01
-0.14,-0.67,1
-0.11,-0.72,1
-0.08,-0.74,0.99
-0.07,-0.76,0.98
-0.06,-0.77,0.97
-0.05,-0.76,0.96
-0.05,-0.76,0.97
-0.04,-0.74,0.97
-0.01,-0.69,1
0.05,-0.68,1.01
0.08,-0.69,1.03
0.09,-0.7,1.05
0.09,-0.72,1.08
0.09,-0.73,1.09
0.09,-0.74,1.11
0.1,-0.74,1.12
0.12,-0.76,1.13
0.14,-0.77,1.16
0.16,-0.79,1.17
0.18,-0.82,1.17
0.18,-0.84,1.18
0.14,-0.86,1.21
0.09,-0.87,1.22
0.06,-0.89,1.22
0.05,-0.89,1.2
0.08,-0.87,1.16
0.13,-0.85,1.15
0.14,-0.87,1.16
0.13,-0.92,1.15
0.1,-0.96,1.15
0.07,-0.98,1.15
0.05,-0.97,1.13
0.05,-0.93,1.11
0.07,-0.87,1.09
0.09,-0.83,1.07
0.1,-0.84,1.05
0.05,-0.85,1.06
0,-0.85,1.08
-0.03,-0.85,1.07
-0.07,-0.87,1.07
-0.12,-0.87,1.06
-0.16,-0.84,1.05
-0.2,-0.79,1.05
-0.23,-0.74,1.07
-0.26,-0.71,1.09
-0.27,-0.69,1.09
-0.28,-0.68,1.07
-0.28,-0.65,1.01
-0.25,-0.6,0.93
-0.17,-0.53,0.86
-0.07,-0.48,0.84
-0.02,-0.47,0.83
-0.01,-0.48,0.83
-0.03,-0.48,0.81
-0.04,-0.49,0.77
-0.03,-0.5,0.72
-0.02,-0.51,0.67
-0.03,-0.51,0.63
-0.04,-0.5,0.59
-0.04,-0.49,0.54
-0.02,-0.48,0.39
0.03,-0.45,0.34
0.02,-0.46,0.3
0.02,-0.47,0.28
-0.02,-0.48,0.27
-0.11,-0.48,0.26
-0.2,-0.48,0.25
-0.28,-0.5,0.21
-0.33,-0.54,0.17
-0.33,-0.58,0.16
-0.31,-0.6,0.15
-0.27,-0.61,0.15
-0.24,-0.62,0.14
-0.22,-0.63,0.12
-0.2,-0.64,0.11
-0.18,-0.65,0.1
-0.16,-0.67,0.11
-0.18,-0.69,0.13
-0.21,-0.71,0.17
-0.23,-0.74,0.21
-0.21,-0.75,0.23
-0.17,-0.76,0.22
-0.14,-0.75,0.2
-0.13,-0.74,0.2
-0.11,-0.74,0.22
-0.09,-0.74,0.24
-0.06,-0.75,0.3
-0.03,-0.72,0.32
-0.03,-0.71,0.35
-0.02,-0.71,0.37
-0.01,-0.73,0.4
0,-0.75,0.43
0.03,-0.76,0.45
0.08,-0.77,0.47
0.15,-0.77,0.49
0.22,-0.76,0.51
0.29,-0.77,0.54
0.32,-0.76,0.59
0.31,-0.74,0.65
0.31,-0.73,0.72
0.3,-0.73,0.8
0.3,-0.74,0.86
0.32,-0.75,0.87
0.33,-0.77,0.85
0.37,-0.77,0.84
0.42,-0.76,0.86
0.46,-0.75,0.9
0.48,-0.73,0.93
0.46,-0.7,0.97
0.42,-0.66,1
0.45,-0.61,1.03
0.39,-0.58,1.08
0.32,-0.63,1.02
0.31,-0.64,1.02
0.28,-0.64,1.03
0.27,-0.64,1.03
0.27,-0.64,1.02
0.26,-0.62,1
0.25,-0.62,1
0.23,-0.61,0.99
0.22,-0.61,0.99
0.21,-0.61,0.99
0.19,-0.62,0.99
0.18,-0.62,0.99
0.17,-0.63,0.99
0.17,-0.64,0.97
0.16,-0.65,0.94
0.16,-0.65,0.91
0.16,-0.67,0.89
0.19,-0.7,0.87
0.17,-0.73,0.87
0.16,-0.79,0.85
0.18,-0.85,0.84
0.17,-0.89,0.83
0.17,-0.93,0.83
0.15,-0.94,0.83
0.13,-0.93,0.83
0.12,-0.93,0.82
0.12,-0.93,0.78
0.12,-0.96,0.77
0.11,-0.98,0.75
0.1,-0.99,0.72
0.1,-0.99,0.7
0.12,-1,0.67
0.13,-1.02,0.64
0.13,-1.05,0.63
0.13,-1.07,0.62
0.13,-1.08,0.61
0.13,-1.07,0.6
0.13,-1.06,0.59
0.14,-1.04,0.58
0.15,-1.02,0.58
0.16,-1.02,0.57
0.17,-1.01,0.56
0.17,-0.98,0.55
0.16,-0.94,0.54
0.14,-0.89,0.53
0.14,-0.87,0.51
0.13,-0.85,0.5
0.13,-0.84,0.49
0.13,-0.82,0.49
0.14,-0.81,0.48
0.14,-0.8,0.48
0.14,-0.79,0.49
0.14,-0.77,0.49
0.15,-0.75,0.47
0.18,-0.75,0.45
0.18,-0.75,0.45
0.18,-0.74,0.45
0.17,-0.74,0.45
0.16,-0.74,0.45
0.16,-0.75,0.46
0.15,-0.76,0.46
0.16,-0.78,0.47
0.16,-0.79,0.48
0.16,-0.8,0.48
0.16,-0.79,0.47
0.17,-0.79,0.47
0.17,-0.79,0.46
0.18,-0.78,0.46
0.18,-0.78,0.46
0.17,-0.79,0.47
0.18,-0.79,0.47
0.18,-0.8,0.47
0.18,-0.81,0.48
0.18,-0.82,0.48
0.18,-0.84,0.49
0.19,-0.85,0.49
0.19,-0.86,0.5
0.19,-0.87,0.52
0.19,-0.89,0.54
0.17,-0.95,0.56
0.16,-1,0.54
0.18,-1.08,0.51
0.18,-1.15,0.5
0.18,-1.22,0.52
0.17,-1.27,0.54
0.17,-1.27,0.56
0.16,-1.2,0.58
0.16,-1.08,0.61
0.16,-0.99,0.64
0.16,-0.94,0.65
0.15,-0.91,0.66
0.14,-0.9,0.65
0.12,-0.9,0.62
0.11,-0.9,0.57
0.08,-0.9,0.53
0.04,-0.9,0.49
0.03,-0.9,0.47
0.03,-0.91,0.46
0.03,-0.93,0.46
0.04,-0.95,0.45
0.07,-0.95,0.46
0.09,-0.93,0.46
0.13,-0.9,0.45
0.19,-0.85,0.45
0.24,-0.8,0.48
0.24,-0.74,0.54
0.21,-0.72,0.55
0.2,-0.7,0.55
0.21,-0.67,0.54
0.21,-0.66,0.54
0.22,-0.64,0.54
0.24,-0.64,0.53
0.27,-0.63,0.54
0.31,-0.63,0.55
0.35,-0.64,0.56
0.36,-0.65,0.57
0.37,-0.67,0.57
0.37,-0.68,0.56
0.38,-0.69,0.56
0.39,-0.69,0.55
0.4,-0.7,0.56
0.41,-0.7,0.56
0.42,-0.7,0.56
0.44,-0.69,0.55
0.47,-0.68,0.54
0.5,-0.65,0.53
0.51,-0.62,0.53
0.51,-0.59,0.52
0.49,-0.55,0.53
0.49,-0.53,0.53
0.48,-0.53,0.52
0.47,-0.53,0.51
0.45,-0.53,0.52
0.45,-0.53,0.53
0.46,-0.53,0.54
0.49,-0.56,0.54
0.52,-0.61,0.54
0.56,-0.68,0.54
0.6,-0.75,0.55
0.61,-0.79,0.55
0.61,-0.8,0.54
0.64,-0.76,0.54
0.68,-0.73,0.53
0.7,-0.73,0.54
0.7,-0.75,0.54
0.71,-0.77,0.55
0.7,-0.8,0.56
0.7,-0.85,0.59
0.69,-0.93,0.61
0.7,-1,0.62
0.68,-1.05,0.61
0.66,-1.06,0.59
0.62,-1.03,0.57
0.57,-0.96,0.54
0.52,-0.88,0.52
0.47,-0.8,0.51
0.43,-0.73,0.49
0.41,-0.67,0.5
0.4,-0.62,0.5
0.41,-0.62,0.51
0.42,-0.64,0.51
0.44,-0.65,0.5
0.44,-0.65,0.49
0.43,-0.65,0.48
0.43,-0.65,0.48
0.46,-0.66,0.46
0.48,-0.68,0.46
0.49,-0.69,0.46
0.5,-0.71,0.47
0.51,-0.73,0.48
0.52,-0.75,0.48
0.54,-0.76,0.48
0.55,-0.76,0.48
0.56,-0.76,0.47
0.55,-0.74,0.46
0.54,-0.72,0.45
0.53,-0.7,0.43
0.53,-0.68,0.43
0.55,-0.66,0.43
0.59,-0.64,0.43
0.63,-0.64,0.45
0.64,-0.63,0.47
0.64,-0.62,0.48
0.63,-0.6,0.46
0.61,-0.55,0.44
0.61,-0.52,0.44
0.63,-0.51,0.45
0.66,-0.51,0.47
0.68,-0.51,0.49
0.69,-0.49,0.51
0.69,-0.47,0.52
0.68,-0.44,0.53
0.65,-0.41,0.53
0.61,-0.38,0.53
0.58,-0.35,0.52
0.57,-0.32,0.52
0.59,-0.31,0.53
0.61,-0.32,0.55
0.63,-0.31,0.56
0.66,-0.3,0.57
0.68,-0.3,0.61
0.68,-0.3,0.65
0.68,-0.28,0.67
0.69,-0.23,0.66
0.7,-0.18,0.64
0.71,-0.16,0.63
0.74,-0.17,0.64
0.76,-0.17,0.66
0.75,-0.16,0.67
0.8,-0.17,0.71
0.94,-0.19,0.73
0.95,-0.19,0.75
0.89,-0.19,0.75
0.8,-0.2,0.73
0.74,-0.23,0.72
0.73,-0.24,0.69
0.73,-0.23,0.66
0.71,-0.22,0.66
0.71,-0.21,0.67
0.74,-0.2,0.7
0.75,-0.19,0.71
0.78,-0.18,0.72
0.81,-0.16,0.75
0.75,-0.13,0.78
0.65,-0.1,0.8
0.62,-0.08,0.82
0.66,-0.07,0.82
0.7,-0.05,0.81
0.72,-0.03,0.81
0.72,0,0.83
0.69,0.04,0.87
0.68,0.07,0.9
0.67,0.09,0.89
0.64,0.12,0.87
0.64,0.15,0.84
0.62,0.18,0.82
0.51,0.24,0.82
0.49,0.27,0.82
0.51,0.29,0.83
0.52,0.33,0.84
0.53,0.37,0.87
0.52,0.4,0.91
0.52,0.42,0.95
0.5,0.42,0.99
0.47,0.42,1.01
0.44,0.43,1.01
0.43,0.43,1.01
0.42,0.43,1.02
0.41,0.45,1.01
0.38,0.46,1
0.36,0.48,0.97
0.32,0.49,0.94
0.29,0.5,0.94
0.26,0.5,0.93
0.24,0.49,0.92
0.22,0.48,0.91
0.23,0.47,0.9
0.23,0.47,0.9
0.21,0.47,0.89
0.21,0.47,0.88
0.2,0.48,0.87
0.19,0.47,0.84
0.18,0.46,0.82
0.18,0.47,0.81
0.2,0.47,0.83
0.22,0.46,0.86
0.21,0.44,0.89
0.21,0.43,0.93
0.21,0.41,0.96
0.2,0.4,0.96
0.21,0.38,0.93
0.2,0.37,0.9
0.16,0.37,0.87
0.13,0.36,0.86
0.12,0.34,0.86
0.14,0.32,0.85
0.17,0.32,0.84
0.17,0.31,0.85
0.16,0.31,0.86
0.17,0.31,0.85
0.14,0.32,0.84
0.1,0.32,0.83
0.1,0.34,0.82
0.08,0.33,0.81
0.08,0.34,0.82
0.13,0.36,0.81
0.1,0.38,0.82
0.05,0.37,0.84
0.01,0.35,0.89
0.01,0.36,0.87
0.01,0.36,0.85
0.03,0.36,0.87
0.03,0.35,0.88
0.02,0.36,0.91
0.02,0.35,0.94
0.01,0.34,0.96
-0.02,0.34,0.96
-0.04,0.36,0.95
-0.04,0.37,0.95
-0.04,0.36,0.95
-0.02,0.35,0.96
0.01,0.34,0.96
0.02,0.35,0.97
-0.01,0.35,0.97
-0.06,0.35,0.96
-0.08,0.35,0.95
-0.08,0.37,0.95
-0.06,0.38,0.95
-0.07,0.37,0.95
-0.06,0.37,0.97
-0.05,0.38,0.97
-0.05,0.38,0.95
-0.06,0.39,0.93
-0.05,0.4,0.91
-0.05,0.41,0.89
-0.06,0.41,0.89
-0.07,0.4,0.9
-0.07,0.4,0.91
-0.06,0.4,0.91
-0.06,0.41,0.91
-0.07,0.42,0.91
-0.07,0.43,0.9
-0.07,0.43,0.89
-0.06,0.43,0.89
-0.06,0.44,0.88
-0.06,0.44,0.9
-0.06,0.45,0.91
-0.07,0.45,0.91
-0.06,0.45,0.91
-0.04,0.45,0.9
-0.03,0.44,0.9
-0.04,0.43,0.9
-0.06,0.43,0.9
-0.05,0.43,0.9
-0.03,0.42,0.9
-0.04,0.42,0.91
-0.05,0.42,0.91
-0.06,0.42,0.9
-0.09,0.42,0.9
-0.1,0.43,0.9
-0.1,0.42,0.91
-0.08,0.42,0.9
-0.09,0.42,0.9
-0.11,0.42,0.89
-0.13,0.42,0.89
-0.15,0.42,0.89
-0.15,0.42,0.88
-0.15,0.42,0.88
-0.15,0.41,0.88
-0.15,0.41,0.88
-0.15,0.41,0.88
-0.15,0.4,0.89
-0.16,0.4,0.89
-0.16,0.41,0.89
-0.15,0.42,0.89
-0.15,0.41,0.89
-0.14,0.41,0.89
-0.13,0.42,0.89
-0.14,0.41,0.89
-0.14,0.41,0.88
