Acc_x,Acc_y,Acc_z
0,0,0
0,0,0
0,0,0
0,0,0
0,0,0
0,0,0
0,0,0
0,0,0
0,0,0
0,0,0
0,0,0
0,0,0
0,0,0
0,0,0
0,0,0
0,0,0
0,0,0
0,0,0
0,0,0
0,0,0
0,0,0
0,0,0
0,0,0
0,0,0
0,0,0
0,0,0
0,0,0
0,0,0
0,0,0
0,0,0
0,0,0
0,0,0
0,0,0
0,0,0
0,0,0
0,0,0
0,0,0
0,0,0
0,0,0
0,0,0
0,0,0
0,0,0
0,0,0
0,0,0
0,0,0
0,0,0
0,0,0
0,0,0
0,0,0
0,0,0
0,0,0
0,0,0
0,0,0
0,0,0
0,0,0
0,0,0
0,0,0
0,0,0
0,0,0
0,0,0
0,0,0
0,0,0
0,0,0
0,0,0
0,0,0
0,0,0
0,0,0
0,0,0
0,0,0
0,0,0
0,0,0
0,0,0
0,0,0
0,0,0
0,0,0
0,0,0
0,0,0
0,0,0
0,0,0
0,0,0
0,0,0
0,0,0
0,0,0
0,0,0
0,0,0
0,0,0
0,0,0
0,0,0
0,0,0
0,0,0
0,0,0
0,0,0
0,0,0
0,0,0
0,0,0
0,0,0
0,0,0
0,0,0
0,0,0
0,0,0
0,0,0
0,0,0
0,0,0
0,0,0
0,0,0
0,0,0
0,0,0
0,0,0
0,0,0
0,0,0
0,0,0
0,0,0
0,0,0
0,0,0
0,0,0
0,0,0
0,0,0
0,0,0
0,0,0
0,0,0
0,0,0
0,0,0
0,0,0
0,0,0
0,0,0
0,0,0
0,0,0
0,0,0
0,0,0
0,0,0
0,0,0
0,0,0
0,0,0
0,0,0
0,0,0
0,0,0
0,0,0
0,0,0
0,0,0
0,0,0
0,0,0
0,0,0
0,0,0
0,0,0
0,0,0
0,0,0
0,0,0
0,0,0
0,0,0
0,0,0
0,0,0
0,0,0
0,0,0
0,0,0
0,0,0
0,0,0
0,0,0
0,0,0
0,0,0
0,0,0
0,0,0
0,0,0
0,0,0
0,0,0
0,0,0
0,0,0
0,0,0
0,0,0
0,0,0
0,0,0
0,0,0
0,0,0
0,0,0
0,0,0
0,0,0
0,0,0
0,0,0
0,0,0
0,0,0
0,0,0
0,0,0
0,0,0
0,0,0
0,0,0
0,0,0
0,0,0
0,0,0
0,0,0
0,0,0
0,0,0
0,0,0
0,0,0
0,0,0
0,0,0
0,0,0
0,0,0
0,0,0
0,0,0
0,0,0
0,0,0
0,0,0
0,0,0
0,0,0
0,0,0
0,0,0
0,0,0
0,0,0
0,0,0
0,0,0
0,0,0
0,0,0
0,0,0
0,0,0
0,0,0
0,0,0
0,0,0
0,0,0
0,0,0
0,0,0
0,0,0
0,0,0
0,0,0
0,0,0
0,0,0
0,0,0
0,0,0
0,0,0
0,0,0
0,0,0
0,0,0
0,0,0
0,0,0
0,0,0
0,0,0
0,0,0
0,0,0
0,0,0
0,0,0
0,0,0
0,0,0
0,0,0
0,0,0
0,0,0
0,0,0
0,0,0
0,0,0
0,0,0
0,0,0
0,0,0
0,0,0
0,0,0
0,0,0
0,0,0
0,0,0
0,0,0
0,0,0
0,0,0
0,0,0
0,0,0
0,0,0
0,0,0
0,0,0
0,0,0
0,0,0
0,0,0
0,0,0
0,0,0
0,0,0
0,0,0
0,0,0
0,0,0
0,0,0
0,0,0
0,0,0
0,0,0
0,0,0
0,0,0
0,0,0
0,0,0
0,0,0
0,0,0
0,0,0
0,0,0
0,0,0
0,0,0
0,0,0
0,0,0
0,0,0
0,0,0
0,0,0
0,0,0
0,0,0
0,0,0
0,0,0
0,0,0
0,0,0
0,0,0
0,0,0
0,0,0
0,0,0
0,0,0
0,0,0
0,0,0
0,0,0
0,0,0
0,0,0
0,0,0
0,0,0
0,0,0
0,0,0
0,0,0
0,0,0
0,0,0
0,0,0
0,0,0
0,0,0
0,0,0
0,0,0
0,0,0
0,0,0
0,0,0
0,0,0
0,0,0
0,0,0
0,0,0
0,0,0
0,0,0
0,0,0
0,0,0
0,0,0
0,0,0
0,0,0
0,0,0
0,0,0
0,0,0
0,0,0
0,0,0
0,0,0
0,0,0
0,0,0
0,0,0
0,0,0
0,0,0
0,0,0
0,0,0
0,0,0
0,0,0
0,0,0
0,0,0
0,0,0
0,0,0
0,0,0
0,0,0
0,0,0
0,0,0
0,0,0
0,0,0
0,0,0
0,0,0
0,0,0
0,0,0
0,0,0
0,0,0
0,0,0
0,0,0
0,0,0
0,0,0
0,0,0
0,0,0
0,0,0
0,0,0
0,0,0
0,0,0
0,0,0
0,0,0
0,0,0
0,0,0
0,0,0
0,0,0
0,0,0
0,0,0
0,0,0
0,0,0
0,0,0
0,0,0
0,0,0
0,0,0
0,0,0
0,0,0
0,0,0
0,0,0
0,0,0
0,0,0
0,0,0
0,0,0
0,0,0
0,0,0
0,0,0
0,0,0
0,0,0
0,0,0
0,0,0
0,0,0
0,0,0
0,0,0
0,0,0
0,0,0
0,0,0
0,0,0
0,0,0
0,0,0
0,0,0
0,0,0
0,0,0
0,0,0
0,0,0
0,0,0
0,0,0
0,0,0
0,0,0
0,0,0
0,0,0
0,0,0
0,0,0
0,0,0
0,0,0
0,0,0
0,0,0
0,0,0
0,0,0
0,0,0
0,0,0
0,0,0
0,0,0
0,0,0
0,0,0
0,0,0
0,0,0
0,0,0
0,0,0
0,0,0
0,0,0
0,0,0
0,0,0
0,0,0
0,0,0
0,0,0
0,0,0
0,0,0
0,0,0
0,0,0
0,0,0
0,0,0
0,0,0
0,0,0
0,0,0
0,0,0
0,0,0
0,0,0
0,0,0
0,0,0
0,0,0
0,0,0
0,0,0
0,0,0
0,0,0
0,0,0
0,0,0
0,0,0
0,0,0
0,0,0
0,0,0
0,0,0
0,0,0
0,0,0
0,0,0
0,0,0
0,0,0
0,0,0
0,0,0
0,0,0
0,0,0
0,0,0
0,0,0
0,0,0
0,0,0
0,0,0
0,0,0
0,0,0
0,0,0
0,0,0
0,0,0
0,0,0
0,0,0
0,0,0
0,0,0
0,0,0
0,0,0
0,0,0
0,0,0
0,0,0
0,0,0
0,0,0
0,0,0
0,0,0
0,0,0
0,0,0
0,0,0
0,0,0
0,0,0
0,0,0
0,0,0
0,0,0
0,0,0
0,0,0
0,0,0
0,0,0
0,0,0
0,0,0
0,0,0
0,0,0
0,0,0
0,0,0
0,0,0
0,0,0
0,0,0
0,0,0
0,0,0
0,0,0
0,0,0
0,0,0
0,0,0
0,0,0
0,0,0
0,0,0
0,0,0
0,0,0
0,0,0
0,0,0
0,0,0
0,0,0
0,0,0
0,0,0
0,0,0
0,0,0
0,0,0
0,0,0
0,0,0
0,0,0
0,0,0
0,0,0
0,0,0
0,0,0
0,0,0
0,0,0
0,0,0
0,0,0
0,0,0
0,0,0
0,0,0
0,0,0
0,0,0
0,0,0
0,0,0
0,0,0
0,0,0
0,0,0
0,0,0
0,0,0
0,0,0
0,0,0
0,0,0
0,0,0
0,0,0
0,0,0
0,0,0
0,0,0
0,0,0
0,0,0
0,0,0
0,0,0
0,0,0
0,0,0
0,0,0
0,0,0
0,0,0
0,0,0
0,0,0
0,0,0
0,0,0
0,0,0
0,0,0
0,0,0
0,0,0
0,0,0
0,0,0
0,0,0
0,0,0
0,0,0
0,0,0
0,0,0
0,0,0
0,0,0
0,0,0
0,0,0
0,0,0
0,0,0
0,0,0
0,0,0
0,0,0
0,0,0
0,0,0
0,0,0
0,0,0
0,0,0
0,0,0
0,0,0
0,0,0
0,0,0
0,0,0
0,0,0
0,0,0
0,0,0
0,0,0
0,0,0
0,0,0
0,0,0
0,0,0
0,0,0
0,0,0
0,0,0
0,0,0
0,0,0
0,0,0
0,0,0
0,0,0
0,0,0
0,0,0
0,0,0
0,0,0
0,0,0
0,0,0
0,0,0
0,0,0
0,0,0
0,0,0
0,0,0
0,0,0
0,0,0
0,0,0
0,0,0
0,0,0
0,0,0
0,0,0
0,0,0
0,0,0
0,0,0
0,0,0
0,0,0
0,0,0
0,0,0
0,0,0
0,0,0
0,0,0
0,0,0
0,0,0
0,0,0
0,0,0
0,0,0
0,0,0
0,0,0
0,0,0
0,0,0
0,0,0
0,0,0
0,0,0
0,0,0
0,0,0
0,0,0
0,0,0
0,0,0
0,0,0
0,0,0
0,0,0
0,0,0
0,0,0
0,0,0
0,0,0
0,0,0
0,0,0
0,0,0
0,0,0
0,0,0
0,0,0
0,0,0
0,0,0
0,0,0
0,0,0
0,0,0
0,0,0
0,0,0
0,0,0
0,0,0
0,0,0
0,0,0
0,0,0
0,0,0
0,0,0
0,0,0
0,0,0
0,0,0
0,0,0
0,0,0
0,0,0
0,0,0
0,0,0
0,0,0
0,0,0
0,0,0
0,0,0
0,0,0
0,0,0
0,0,0
0,0,0
0,0,0
0,0,0
0,0,0
0,0,0
0,0,0
0,0,0
0,0,0
0,0,0
0,0,0
0,0,0
0,0,0
0,0,0
0,0,0
0,0,0
0,0,0
0,0,0
0,0,0
0,0,0
0,0,0
0,0,0
0,0,0
0,0,0
0,0,0
0,0,0
0,0,0
0,0,0
0,0,0
0,0,0
0,0,0
0,0,0
0,0,0
0,0,0
0,0,0
0,0,0
0,0,0
0,0,0
0,0,0
0,0,0
0,0,0
0,0,0
0,0,0
0,0,0
0,0,0
0,0,0
0,0,0
0,0,0
0,0,0
0,0,0
0,0,0
0,0,0
0,0,0
0,0,0
0,0,0
0,0,0
0,0,0
0,0,0
0,0,0
0,0,0
0,0,0
0,0,0
0,0,0
0,0,0
0,0,0
0,0,0
0,0,0
0,0,0
0,0,0
0,0,0
0,0,0
0,0,0
0,0,0
0,0,0
0,0,0
0,0,0
0,0,0
0,0,0
0,0,0
0,0,0
0.12,0.78,0.25
0.08,0.78,0.29
0.09,0.78,0.3
0.1,0.75,0.31
0.08,0.73,0.34
0.04,0.72,0.37
0.01,0.71,0.38
-0.02,0.71,0.38
-0.04,0.71,0.38
0,0.72,0.32
0.03,0.7,0.32
-0.14,0.68,0.44
-0.33,0.69,0.54
-0.26,0.71,0.54
-0.1,0.72,0.51
-0.07,0.73,0.48
-0.04,0.75,0.44
0,0.77,0.4
0.04,0.78,0.38
0.08,0.77,0.36
0.11,0.76,0.36
0.13,0.76,0.38
0.18,0.78,0.38
0.22,0.78,0.4
0.23,0.77,0.4
0.2,0.78,0.39
0.13,0.78,0.4
0.12,0.79,0.41
0.16,0.79,0.41
0.12,0.79,0.41
0.04,0.8,0.42
0.01,0.82,0.46
0.04,0.85,0.47
0.08,0.86,0.47
0.07,0.85,0.47
0.06,0.85,0.43
0.08,0.86,0.41
0.1,0.88,0.39
0.12,0.89,0.36
0.13,0.9,0.35
0.11,0.9,0.34
0.1,0.88,0.41
0.15,0.86,0.42
0.14,0.86,0.44
0.12,0.86,0.45
0.12,0.88,0.46
0.1,0.89,0.46
0.08,0.9,0.44
0.1,0.89,0.43
0.06,0.89,0.41
0.06,0.88,0.41
0.09,0.89,0.42
0.07,0.9,0.41
0.03,0.9,0.4
0,0.9,0.41
-0.01,0.9,0.42
-0.02,0.89,0.43
-0.01,0.88,0.45
0.03,0.87,0.46
0.07,0.86,0.46
0.09,0.86,0.47
0.09,0.87,0.46
0.07,0.87,0.43
0.06,0.88,0.41
0.05,0.88,0.4
0.04,0.88,0.4
0.04,0.89,0.4
0.06,0.9,0.38
0.09,0.88,0.36
0.05,0.87,0.4
0.04,0.88,0.42
0.02,0.89,0.42
-0.01,0.9,0.45
-0.03,0.9,0.47
-0.02,0.9,0.45
-0.01,0.9,0.42
0.01,0.9,0.41
0.03,0.89,0.41
0.04,0.88,0.42
0.05,0.88,0.42
0.06,0.88,0.41
0.07,0.88,0.41
0.06,0.88,0.4
0.04,0.89,0.42
0.01,0.87,0.44
0.04,0.86,0.44
0.07,0.89,0.41
0.08,0.89,0.4
0.07,0.89,0.39
0,0.88,0.4
-0.03,0.88,0.42
0.01,0.88,0.43
0.02,0.88,0.45
-0.01,0.88,0.47
0,0.88,0.47
0.04,0.88,0.45
0.09,0.88,0.43
0.11,0.89,0.42
0.08,0.89,0.41
0.05,0.9,0.41
0.05,0.91,0.42
0.05,0.91,0.42
0.04,0.92,0.4
0.06,0.93,0.38
0.08,0.93,0.35
0.08,0.9,0.35
0.05,0.88,0.39
0.04,0.88,0.43
0.06,0.87,0.45
0.06,0.86,0.47
0.04,0.86,0.48
0.03,0.86,0.49
0.02,0.88,0.48
0.02,0.89,0.46
0.03,0.89,0.44
0.03,0.9,0.44
0.04,0.9,0.43
0.06,0.91,0.42
0.06,0.91,0.42
0.07,0.9,0.42
0.08,0.89,0.44
0.07,0.88,0.44
0.06,0.88,0.44
0.05,0.87,0.44
0.06,0.86,0.44
0.04,0.86,0.44
0.02,0.86,0.43
0.03,0.86,0.42
0.09,0.86,0.41
0.11,0.87,0.39
0.09,0.88,0.38
0.08,0.9,0.38
0.03,0.9,0.4
0.01,0.88,0.43
0.04,0.88,0.44
0.06,0.87,0.46
0.08,0.86,0.48
0.11,0.84,0.47
0.12,0.85,0.45
0.09,0.86,0.45
0.09,0.87,0.45
0.09,0.87,0.44
0.09,0.87,0.44
0.08,0.88,0.43
0.09,0.89,0.4
0.1,0.88,0.36
0.1,0.86,0.36
0.11,0.83,0.38
0.1,0.82,0.4
0.08,0.82,0.43
0.06,0.81,0.46
0.02,0.81,0.48
-0.01,0.82,0.49
-0.03,0.81,0.49
-0.05,0.8,0.47
-0.06,0.8,0.46
-0.05,0.78,0.46
-0.04,0.76,0.49
-0.04,0.76,0.53
-0.04,0.77,0.57
-0.03,0.77,0.59
-0.03,0.77,0.59
-0.05,0.77,0.59
-0.05,0.77,0.6
-0.07,0.77,0.6
-0.07,0.75,0.59
-0.05,0.73,0.57
-0.02,0.71,0.55
0,0.72,0.54
0.03,0.75,0.54
0.08,0.76,0.52
0.11,0.77,0.5
0.14,0.76,0.5
0.19,0.73,0.52
0.18,0.72,0.54
0.2,0.72,0.53
0.26,0.71,0.5
0.33,0.73,0.48
0.4,0.75,0.47
0.48,0.73,0.47
0.55,0.72,0.48
0.6,0.7,0.49
0.64,0.68,0.5
0.71,0.65,0.51
0.77,0.6,0.5
0.82,0.56,0.48
0.87,0.56,0.46
0.92,0.56,0.44
1.01,0.53,0.4
1.09,0.5,0.38
1.16,0.48,0.37
1.21,0.45,0.37
1.24,0.41,0.32
1.22,0.38,0.27
1.16,0.35,0.24
1.13,0.31,0.22
1.1,0.28,0.18
1.08,0.24,0.32
1.12,0.18,0.41
1.3,0.08,0.44
1.27,0.03,0.46
1.22,0.02,0.45
1.15,-0.01,0.34
1.14,-0.03,0.24
1.19,-0.04,0.18
1.14,-0.06,0.14
1.07,-0.04,0.16
1.04,-0.03,0.21
1.03,-0.02,0.28
1.01,-0.02,0.35
1.03,0,0.41
1,0.01,0.4
0.93,0.01,0.34
0.9,0.01,0.27
0.85,0,0.21
0.85,-0.03,0.16
0.85,0,0.16
0.8,0.01,0.2
0.82,-0.01,0.25
0.84,-0.04,0.33
0.87,-0.07,0.38
0.87,-0.06,0.38
0.79,-0.04,0.29
0.74,-0.07,0.2
0.79,-0.14,0.23
0.85,-0.09,0.24
0.92,-0.18,0.28
0.93,-0.22,0.33
0.93,-0.2,0.39
0.94,-0.19,0.38
0.94,-0.19,0.35
0.91,-0.2,0.3
0.87,-0.19,0.29
0.85,-0.17,0.31
0.87,-0.18,0.32
0.88,-0.19,0.35
0.88,-0.19,0.38
0.9,-0.2,0.39
0.9,-0.22,0.4
0.9,-0.21,0.42
0.92,-0.21,0.44
0.94,-0.21,0.43
0.98,-0.21,0.41
1.03,-0.21,0.4
1.08,-0.23,0.41
1.18,-0.28,0.43
1.25,-0.35,0.48
1.21,-0.37,0.52
1.25,-0.4,0.49
1.34,-0.48,0.46
1.3,-0.47,0.46
1.42,-0.49,0.43
1.4,-0.48,0.45
1.24,-0.44,0.47
1.29,-0.41,0.43
1.33,-0.43,0.38
1.26,-0.45,0.36
1.19,-0.43,0.39
1.21,-0.42,0.41
1.28,-0.45,0.41
1.31,-0.48,0.34
1.23,-0.47,0.34
1.15,-0.41,0.4
1.14,-0.4,0.38
1.07,-0.4,0.38
1.02,-0.37,0.38
0.99,-0.34,0.36
0.95,-0.32,0.33
0.89,-0.3,0.33
0.83,-0.28,0.33
0.77,-0.26,0.32
0.72,-0.24,0.31
0.68,-0.21,0.29
0.66,-0.2,0.28
0.63,-0.2,0.26
0.6,-0.2,0.24
0.57,-0.2,0.21
0.53,-0.22,0.21
0.54,-0.25,0.21
0.55,-0.26,0.23
0.55,-0.28,0.24
0.54,-0.28,0.25
0.52,-0.28,0.25
0.51,-0.3,0.24
0.49,-0.31,0.22
0.48,-0.33,0.21
0.48,-0.35,0.21
0.47,-0.38,0.19
0.47,-0.4,0.16
0.47,-0.42,0.13
0.48,-0.44,0.13
0.48,-0.48,0.14
0.47,-0.53,0.15
0.47,-0.53,0.19
0.49,-0.53,0.22
0.5,-0.6,0.2
0.51,-0.65,0.19
0.53,-0.68,0.19
0.55,-0.73,0.18
0.56,-0.77,0.17
0.57,-0.81,0.16
0.56,-0.85,0.15
0.52,-0.91,0.14
0.49,-1.01,0.15
0.52,-1.06,0.11
0.44,-1.11,0.1
0.4,-1.16,0.11
0.39,-1.22,0.1
0.37,-1.27,0.08
0.36,-1.3,0.05
0.36,-1.35,0.04
0.35,-1.43,0.02
0.31,-1.55,-0.02
0.37,-1.69,-0.06
0.47,-1.76,-0.12
0.45,-1.72,-0.13
0.42,-1.62,-0.13
0.4,-1.5,-0.14
0.41,-1.38,-0.12
0.45,-1.25,-0.11
0.47,-1.1,-0.07
0.49,-0.97,-0.01
0.49,-0.89,0.05
0.49,-0.83,0.09
0.5,-0.81,0.1
0.47,-0.85,0.08
0.44,-0.93,0.04
0.41,-1.04,0
0.36,-1.15,-0.03
0.33,-1.41,-0.13
0.26,-1.47,-0.15
0.23,-1.47,-0.12
0.24,-1.43,-0.08
0.22,-1.42,-0.06
0.22,-1.38,-0.05
0.24,-1.3,-0.04
0.27,-1.2,-0.01
0.3,-1.1,0.01
0.32,-1.01,0.03
0.34,-0.91,0.05
0.36,-0.82,0.06
0.36,-0.74,0.09
0.38,-0.68,0.11
0.41,-0.64,0.11
0.41,-0.61,0.11
0.39,-0.59,0.12
0.37,-0.59,0.12
0.37,-0.6,0.12
0.36,-0.62,0.12
0.34,-0.66,0.13
0.33,-0.69,0.15
0.34,-0.71,0.16
0.37,-0.74,0.16
0.38,-0.76,0.16
0.39,-0.79,0.15
0.39,-0.84,0.15
0.41,-0.86,0.16
0.43,-0.87,0.15
0.46,-0.89,0.14
0.48,-0.9,0.14
0.5,-0.9,0.16
0.54,-0.91,0.17
0.57,-0.92,0.18
0.59,-0.94,0.19
0.57,-0.96,0.2
0.54,-0.96,0.19
0.53,-0.97,0.16
0.51,-1.01,0.12
0.49,-1.09,0.08
0.49,-1.22,0.05
0.49,-1.39,0.02
0.48,-1.55,0.03
0.47,-1.67,0.04
0.45,-1.72,0.06
0.44,-1.7,0.08
0.43,-1.63,0.08
0.43,-1.53,0.04
0.41,-1.4,-0.01
0.39,-1.28,-0.03
0.4,-1.18,-0.04
0.4,-1.12,-0.06
0.39,-1.11,-0.06
0.42,-1.18,-0.04
0.43,-1.27,-0.06
0.43,-1.34,-0.08
0.43,-1.41,-0.07
0.41,-1.46,-0.05
0.4,-1.48,-0.03
0.41,-1.46,-0.11
0.4,-1.43,-0.15
0.37,-1.4,-0.12
0.31,-1.34,-0.13
0.27,-1.3,-0.14
0.27,-1.27,-0.1
0.25,-1.2,-0.09
0.24,-1.15,-0.08
0.22,-1.12,-0.06
0.21,-1.1,-0.05
0.22,-1.08,-0.05
0.21,-1.07,-0.06
0.2,-1.05,-0.06
0.2,-1.05,-0.06
0.2,-1.05,-0.07
0.2,-1.05,-0.07
0.21,-1.03,-0.08
0.21,-1.01,-0.08
0.22,-0.99,-0.08
0.22,-0.96,-0.09
0.21,-0.91,-0.09
0.21,-0.89,-0.1
0.21,-0.88,-0.1
0.21,-0.87,-0.11
0.21,-0.86,-0.11
0.21,-0.85,-0.11
0.21,-0.84,-0.1
0.22,-0.84,-0.1
0.21,-0.84,-0.11
0.21,-0.85,-0.1
0.2,-0.85,-0.09
0.21,-0.84,-0.09
0.21,-0.83,-0.1
0.21,-0.82,-0.11
0.21,-0.8,-0.11
0.21,-0.79,-0.09
0.22,-0.79,-0.09
0.23,-0.82,-0.09
0.25,-0.87,-0.1
0.27,-0.95,-0.12
0.27,-1.02,-0.12
0.26,-1.06,-0.12
0.27,-1.05,-0.09
0.28,-1.02,-0.04
0.29,-1,-0.02
0.27,-0.98,0.03
0.26,-0.89,0.05
0.27,-0.83,0.07
0.27,-0.79,0.11
0.29,-0.76,0.15
0.31,-0.76,0.19
0.32,-0.78,0.22
0.34,-0.8,0.19
0.33,-0.85,0.17
0.25,-0.95,0.19
0.22,-0.97,0.17
0.28,-1.02,0.15
0.27,-1.22,0.16
0.21,-1.3,0.07
0.19,-1.47,0.03
0.2,-1.57,0.08
0.16,-1.28,0.16
0.18,-1.3,0.14
0.21,-1.58,0.03
0.15,-1.45,0.12
0.15,-1.21,0.22
0.18,-1.26,0.19
0.21,-1.29,0.17
0.24,-1.18,0.18
0.27,-1.1,0.17
0.3,-1.09,0.14
0.31,-1.07,0.12
0.29,-1,0.14
0.3,-0.99,0.15
0.31,-0.99,0.16
0.28,-0.98,0.17
0.27,-0.97,0.19
0.26,-0.96,0.19
0.24,-0.94,0.2
0.25,-0.93,0.21
0.26,-0.92,0.21
0.26,-0.92,0.21
0.27,-0.92,0.2
0.29,-0.92,0.21
0.31,-0.92,0.22
0.33,-0.92,0.23
0.34,-0.94,0.25
0.35,-0.96,0.27
0.36,-0.98,0.27
0.35,-0.99,0.28
0.34,-0.99,0.28
0.34,-0.98,0.28
0.34,-0.99,0.28
0.35,-1.02,0.28
0.35,-1.05,0.29
0.35,-1.09,0.3
0.36,-1.13,0.29
0.36,-1.17,0.26
0.32,-1.23,0.24
0.31,-1.24,0.22
0.3,-1.26,0.2
0.3,-1.27,0.19
0.3,-1.28,0.18
0.3,-1.28,0.16
0.31,-1.27,0.15
0.3,-1.25,0.14
0.28,-1.23,0.13
0.28,-1.21,0.13
0.27,-1.22,0.12
0.26,-1.22,0.09
0.25,-1.21,0.06
0.23,-1.19,0.04
0.22,-1.17,0.03
0.22,-1.17,0.02
0.2,-1.17,0.01
0.19,-1.16,-0.01
0.18,-1.13,-0.02
0.17,-1.1,-0.03
0.17,-1.07,-0.05
0.17,-1.04,-0.06
0.17,-1.01,-0.05
0.18,-0.98,-0.04
0.18,-0.97,-0.03
0.18,-0.95,-0.02
0.17,-0.89,-0.02
0.15,-0.85,-0.03
0.13,-0.81,-0.03
0.12,-0.77,-0.03
0.12,-0.73,-0.03
0.12,-0.7,-0.01
0.12,-0.7,0
0.12,-0.71,0.01
0.11,-0.73,0.01
0.1,-0.75,0.01
0.09,-0.77,0
0.08,-0.8,0
0.08,-0.83,0
0.09,-0.87,-0.01
0.1,-0.91,-0.02
0.11,-0.97,-0.02
0.12,-1.02,-0.03
0.12,-1.08,-0.04
0.13,-1.12,-0.04
0.12,-1.15,-0.05
0.11,-1.16,-0.06
0.08,-1.13,-0.08
0.06,-1.08,-0.08
0.05,-1.03,-0.09
0.05,-1.01,-0.1
0.06,-1,-0.13
0.03,-1.05,-0.15
0.02,-1.08,-0.17
0.02,-1.16,-0.18
0.02,-1.19,-0.18
0.02,-1.15,-0.17
0.02,-1.16,-0.2
0.01,-1.18,-0.23
0.01,-1.16,-0.25
0.01,-1.11,-0.24
0.02,-1.08,-0.25
0.04,-1.05,-0.25
0.05,-1.04,-0.24
0.06,-1.02,-0.23
0.06,-1.01,-0.22
0.06,-1,-0.23
0.06,-0.99,-0.23
0.06,-0.98,-0.24
0.06,-0.97,-0.24
0.06,-0.97,-0.23
0.06,-0.97,-0.22
0.05,-0.98,-0.22
0.04,-1,-0.21
0.04,-1,-0.2
0.04,-1,-0.2
0.04,-0.99,-0.2
0.04,-0.99,-0.2
0.05,-1,-0.19
0.06,-1,-0.18
0.06,-1,-0.17
0.07,-1.01,-0.15
0.08,-1.03,-0.15
0.09,-1.05,-0.15
0.09,-1.06,-0.15
0.1,-1.07,-0.13
0.1,-1.07,-0.1
0.11,-1.08,-0.07
0.14,-1.09,-0.03
0.16,-1.1,0
0.17,-1.11,0.01
0.18,-1.12,0.02
0.18,-1.13,0.03
0.18,-1.13,0.05
0.19,-1.13,0.09
0.22,-1.13,0.13
0.23,-1.12,0.16
0.23,-1.11,0.18
0.23,-1.1,0.2
0.24,-1.1,0.22
0.24,-1.11,0.24
0.25,-1.13,0.26
0.25,-1.16,0.28
0.26,-1.19,0.31
0.26,-1.19,0.35
0.24,-1.17,0.37
0.24,-1.13,0.38
0.22,-1.1,0.39
0.19,-1.06,0.39
0.17,-1.03,0.4
0.15,-1,0.39
0.14,-0.97,0.39
0.11,-0.95,0.39
0.09,-0.94,0.39
0.08,-0.93,0.38
0.08,-0.93,0.37
0.09,-0.92,0.36
0.11,-0.91,0.35
0.13,-0.91,0.33
0.13,-0.89,0.32
0.13,-0.88,0.31
0.14,-0.88,0.31
0.14,-0.89,0.3
0.14,-0.9,0.28
0.14,-0.91,0.26
0.14,-0.91,0.25
0.13,-0.91,0.24
0.13,-0.92,0.23
0.12,-0.92,0.21
0.12,-0.92,0.2
0.12,-0.93,0.17
0.13,-0.95,0.16
0.12,-0.97,0.15
0.12,-0.98,0.14
0.12,-0.99,0.13
0.11,-1,0.12
0.1,-0.99,0.11
0.1,-0.98,0.09
0.09,-0.95,0.08
0.09,-0.93,0.08
0.09,-0.92,0.07
0.09,-0.92,0.07
0.09,-0.93,0.06
0.08,-0.93,0.05
0.07,-0.95,0.04
0.06,-0.97,0.03
0.06,-0.97,0.01
0.05,-0.98,-0.01
0.05,-0.98,-0.01
0.06,-0.99,-0.02
0.07,-0.99,-0.03
0.12,-1,-0.06
0.15,-1.02,-0.1
0.14,-1.03,-0.11
0.1,-1.01,-0.11
0.06,-0.97,-0.1
0.03,-0.9,-0.08
-0.05,-0.88,-0.06
-0.07,-0.87,-0.04
-0.09,-0.9,-0.02
-0.11,-0.95,-0.02
-0.11,-1,-0.03
-0.09,-1.06,-0.04
-0.07,-1.12,-0.07
-0.06,-1.17,-0.11
-0.07,-1.19,-0.14
-0.08,-1.2,-0.17
-0.07,-1.2,-0.18
-0.06,-1.19,-0.19
-0.05,-1.17,-0.2
-0.04,-1.13,-0.19
-0.03,-1.11,-0.19
-0.03,-1.09,-0.18
-0.03,-1.07,-0.17
-0.04,-1.05,-0.16
-0.04,-1.03,-0.15
-0.04,-1.02,-0.15
-0.04,-1.01,-0.16
-0.03,-0.99,-0.17
-0.02,-0.97,-0.16
-0.02,-0.97,-0.16
-0.01,-0.97,-0.16
-0.02,-0.97,-0.17
-0.02,-0.96,-0.16
-0.02,-0.96,-0.16
-0.02,-0.97,-0.16
-0.02,-0.98,-0.15
-0.02,-0.98,-0.15
-0.02,-0.98,-0.16
-0.01,-0.98,-0.16
-0.01,-0.98,-0.16
0.01,-0.99,-0.16
0.03,-0.99,-0.16
0.05,-1.01,-0.15
0.05,-1.02,-0.14
0.05,-1.02,-0.12
0.05,-1.03,-0.1
0.04,-1.03,-0.07
0.04,-1.03,-0.05
0.04,-1.03,-0.04
0.04,-1.03,-0.04
0.03,-1.03,-0.03
0.03,-1.04,-0.03
0.04,-1.05,-0.03
0.05,-1.06,-0.01
0.05,-1.08,0.01
0.05,-1.09,0.01
0.05,-1.09,0.01
0.05,-1.1,0.02
0.06,-1.1,0.02
0.07,-1.12,0.03
0.07,-1.14,0.05
0.07,-1.16,0.06
0.08,-1.2,0.08
0.08,-1.25,0.09
0.06,-1.3,0.1
0.03,-1.3,0.1
0.01,-1.27,0.12
0.01,-1.23,0.15
0,-1.19,0.18
-0.01,-1.17,0.19
-0.02,-1.14,0.19
-0.03,-1.11,0.2
-0.05,-1.07,0.21
-0.07,-1.06,0.2
-0.09,-1.05,0.2
-0.11,-1.04,0.19
-0.12,-1.04,0.16
-0.14,-1.04,0.14
-0.15,-1.03,0.14
-0.16,-1,0.13
-0.15,-0.99,0.14
-0.15,-0.98,0.14
-0.15,-0.96,0.14
-0.15,-0.94,0.13
-0.16,-0.92,0.13
-0.17,-0.92,0.11
-0.18,-0.92,0.1
-0.19,-0.93,0.09
-0.2,-0.93,0.07
-0.22,-0.95,0.05
-0.23,-0.96,0.02
-0.23,-0.98,0
-0.24,-1,-0.01
-0.25,-1.02,-0.02
-0.24,-1.04,-0.04
-0.25,-1.07,-0.05
-0.26,-1.09,-0.06
-0.27,-1.1,-0.08
-0.28,-1.11,-0.09
-0.3,-1.1,-0.1
-0.31,-1.09,-0.11
-0.31,-1.08,-0.11
-0.29,-1.05,-0.11
-0.26,-1.03,-0.1
-0.23,-1.02,-0.09
-0.21,-1.01,-0.08
-0.19,-1.01,-0.08
-0.17,-1,-0.07
-0.14,-1,-0.07
-0.12,-1.01,-0.05
-0.08,-0.99,-0.04
-0.04,-0.98,-0.01
-0.01,-0.98,0.01
0.01,-0.98,0.02
0.02,-0.97,0.02
0.05,-0.96,0.03
0.07,-0.96,0.04
0.09,-0.95,0.05
0.1,-0.95,0.07
0.1,-0.95,0.07
0.1,-0.95,0.08
0.11,-0.94,0.1
0.13,-0.93,0.1
0.13,-0.93,0.11
0.13,-0.93,0.11
0.14,-0.92,0.11
0.13,-0.91,0.12
0.13,-0.91,0.13
0.13,-0.9,0.14
0.12,-0.89,0.15
0.11,-0.89,0.17
0.1,-0.89,0.18
0.09,-0.89,0.19
0.09,-0.9,0.2
0.1,-0.92,0.21
0.08,-0.93,0.22
0.07,-0.94,0.22
0.07,-0.94,0.22
0.07,-0.94,0.21
0.07,-0.94,0.21
0.07,-0.93,0.23
0.06,-0.93,0.23
0.06,-0.94,0.24
0.06,-0.95,0.23
0.05,-0.96,0.23
0.03,-0.97,0.22
0.01,-0.99,0.22
-0.01,-1.01,0.21
-0.01,-1.03,0.2
-0.03,-1.04,0.19
-0.05,-1.05,0.16
-0.07,-1.06,0.15
-0.07,-1.05,0.14
-0.07,-1.05,0.12
-0.05,-1.06,0.11
-0.04,-1.07,0.09
-0.03,-1.09,0.08
-0.02,-1.12,0.06
-0.03,-1.14,0.04
-0.04,-1.15,0.01
-0.05,-1.14,-0.01
-0.06,-1.13,-0.06
-0.04,-1.22,-0.07
-0.03,-1.24,-0.07
-0.02,-1.25,-0.09
-0.02,-1.27,-0.1
-0.01,-1.3,-0.11
0,-1.31,-0.12
0.02,-1.29,-0.14
0.02,-1.26,-0.15
0,-1.21,-0.15
0,-1.18,-0.17
-0.01,-1.15,-0.17
-0.02,-1.13,-0.18
-0.06,-1.12,-0.2
-0.08,-1.13,-0.22
-0.05,-1.16,-0.23
-0.02,-1.22,-0.25
0,-1.27,-0.27
0,-1.29,-0.28
0,-1.27,-0.3
-0.04,-1.21,-0.33
-0.08,-1.12,-0.35
-0.1,-1.03,-0.36
-0.08,-0.95,-0.34
-0.04,-0.89,-0.32
0,-0.86,-0.3
0.01,-0.85,-0.28
0.03,-0.87,-0.27
0.04,-0.86,-0.26
0.04,-0.86,-0.26
0.05,-0.86,-0.25
0.06,-0.86,-0.25
0.07,-0.89,-0.24
0.09,-0.92,-0.25
0.09,-0.94,-0.25
0.09,-0.95,-0.24
0.1,-0.98,-0.23
0.11,-1,-0.22
0.13,-1.04,-0.22
0.14,-1.07,-0.21
0.12,-1.1,-0.22
0.1,-1.12,-0.22
0.12,-1.13,-0.22
0.15,-1.14,-0.21
0.17,-1.15,-0.19
0.17,-1.15,-0.17
0.18,-1.13,-0.15
0.18,-1.1,-0.13
0.17,-1.09,-0.12
0.17,-1.08,-0.12
0.17,-1.07,-0.12
0.17,-1.06,-0.11
0.17,-1.05,-0.1
0.17,-1.06,-0.08
0.17,-1.06,-0.06
0.16,-1.06,-0.04
0.14,-1.05,-0.02
0.11,-1.05,-0.02
0.09,-1.05,0
0.09,-1.06,0.01
0.09,-1.07,0.02
0.08,-1.06,0.03
0.06,-1.05,0.04
0.04,-1.04,0.04
0.03,-1.04,0.05
0.03,-1.05,0.07
0.03,-1.06,0.08
0.01,-1.08,0.09
-0.01,-1.1,0.08
-0.03,-1.11,0.06
-0.06,-1.12,0.05
-0.08,-1.11,0.05
-0.09,-1.1,0.06
-0.08,-1.08,0.09
-0.07,-1.05,0.12
-0.07,-1.02,0.16
-0.06,-1.01,0.18
-0.07,-1,0.21
-0.08,-0.98,0.23
-0.09,-1.02,0.23
-0.08,-1.08,0.21
-0.08,-1.16,0.17
-0.06,-1.25,0.14
-0.05,-1.33,0.11
-0.05,-1.37,0.1
-0.04,-1.34,0.1
-0.02,-1.28,0.12
0.01,-1.19,0.16
0.02,-1.08,0.21
0.04,-0.99,0.24
0.07,-0.91,0.25
0.09,-0.85,0.25
0.09,-0.8,0.23
0.11,-0.76,0.22
0.12,-0.75,0.2
0.13,-0.75,0.19
0.15,-0.77,0.18
0.17,-0.8,0.17
0.2,-0.82,0.16
0.2,-0.85,0.16
0.21,-0.87,0.15
0.23,-0.9,0.14
0.24,-0.91,0.15
0.24,-0.92,0.17
0.25,-0.92,0.18
0.28,-0.94,0.19
0.31,-0.94,0.18
0.33,-0.95,0.17
0.34,-0.97,0.16
0.35,-0.99,0.14
0.35,-1.02,0.13
0.35,-1.04,0.13
0.35,-1.06,0.12
0.34,-1.07,0.11
0.33,-1.09,0.1
0.32,-1.1,0.09
0.31,-1.12,0.08
0.3,-1.14,0.07
0.3,-1.16,0.06
0.31,-1.19,0.05
0.32,-1.2,0.03
0.33,-1.19,0.02
0.35,-1.19,0.01
0.38,-1.2,0
0.39,-1.2,-0.01
0.4,-1.19,0
0.4,-1.18,0
0.4,-1.16,0
0.39,-1.14,0
0.38,-1.13,-0.02
0.38,-1.15,-0.04
0.39,-1.2,-0.08
0.41,-1.34,-0.1
0.45,-1.41,-0.12
0.46,-1.47,-0.11
0.43,-1.5,-0.1
0.39,-1.48,-0.09
0.39,-1.41,-0.09
0.4,-1.33,-0.08
0.35,-1.28,-0.08
0.35,-1.22,-0.07
0.41,-1.11,-0.05
0.4,-1.04,-0.01
0.4,-1,0.01
0.43,-0.95,0.02
0.46,-0.92,0.02
0.47,-0.88,0.03
0.47,-0.83,0.04
0.46,-0.79,0.05
0.45,-0.77,0.05
0.44,-0.75,0.05
0.43,-0.73,0.05
0.43,-0.7,0.06
0.44,-0.67,0.08
0.45,-0.67,0.1
0.46,-0.65,0.14
0.46,-0.64,0.17
0.47,-0.63,0.19
0.49,-0.59,0.19
0.49,-0.58,0.18
0.49,-0.58,0.18
0.49,-0.57,0.18
0.49,-0.55,0.18
0.49,-0.54,0.19
0.5,-0.53,0.2
0.51,-0.53,0.21
0.53,-0.52,0.21
0.53,-0.5,0.22
0.54,-0.5,0.23
0.54,-0.51,0.23
0.55,-0.52,0.23
0.56,-0.53,0.23
0.55,-0.54,0.22
0.55,-0.56,0.22
0.56,-0.58,0.23
0.57,-0.6,0.23
0.58,-0.61,0.24
0.59,-0.62,0.25
0.6,-0.64,0.26
0.6,-0.66,0.26
0.6,-0.68,0.26
0.59,-0.71,0.25
0.58,-0.74,0.24
0.59,-0.79,0.18
0.58,-0.9,0.17
0.57,-0.95,0.15
0.55,-1,0.15
0.53,-1.03,0.15
0.52,-1.06,0.15
0.51,-1.09,0.14
0.5,-1.12,0.13
0.48,-1.13,0.12
0.45,-1.12,0.11
0.44,-1.08,0.11
0.43,-1.04,0.11
0.42,-1.02,0.1
0.41,-1.01,0.08
0.41,-1,0.07
0.41,-0.97,0.07
0.4,-0.96,0.05
0.41,-0.98,0.01
0.41,-1,-0.01
0.41,-1.01,-0.01
0.41,-1.02,0.01
0.41,-1.02,0.05
0.4,-1.06,0.05
0.36,-1.11,0.04
0.31,-1.14,0.01
0.26,-1.13,-0.03
0.22,-1.13,-0.09
0.16,-1.16,-0.1
0.15,-1.17,-0.08
0.14,-1.18,-0.07
0.13,-1.19,-0.07
0.12,-1.19,-0.08
0.12,-1.19,-0.09
0.11,-1.18,-0.1
0.11,-1.15,-0.11
0.1,-1.12,-0.11
0.08,-1.1,-0.1
0.07,-1.07,-0.1
0.05,-1.04,-0.1
0.04,-1.02,-0.09
0.03,-1,-0.08
0.02,-0.98,-0.07
0.02,-0.96,-0.07
0.04,-0.94,-0.07
0.07,-0.93,-0.07
0.09,-0.93,-0.07
0.1,-0.94,-0.08
0.12,-0.94,-0.08
0.12,-0.96,-0.06
0.11,-0.99,-0.05
0.1,-1.01,-0.03
0.1,-1.02,-0.01
0.11,-1.02,0.03
0.12,-1.03,0.04
0.11,-1.03,0.05
0.11,-1.03,0.06
0.11,-1.02,0.05
0.11,-1.03,0.05
0.1,-1.03,0.05
0.1,-1.02,0.06
0.11,-1.01,0.08
0.11,-1,0.09
0.1,-0.98,0.1
0.1,-0.96,0.1
0.1,-0.94,0.11
0.09,-0.93,0.12
0.08,-0.93,0.12
0.06,-0.94,0.12
0.06,-0.93,0.13
0.06,-0.93,0.12
0.06,-0.93,0.12
0.06,-0.94,0.13
0.07,-0.95,0.13
0.07,-0.97,0.14
0.05,-0.98,0.15
0.03,-1.02,0.15
0.01,-1.06,0.15
0.01,-1.13,0.15
0,-1.2,0.12
-0.02,-1.25,0.1
-0.05,-1.21,0.09
-0.07,-1.14,0.08
-0.09,-1.08,0.08
-0.1,-1.01,0.09
-0.12,-0.93,0.11
-0.16,-0.86,0.12
0.21,-0.8,0.11
-0.23,-0.76,0.12
-0.23,-0.74,0.12
-0.24,-0.74,0.13
-0.25,-0.75,0.12
-0.25,-0.76,0.09
-0.25,-0.78,0.06
-0.24,-0.81,0.03
-0.24,-0.83,0.01
-0.26,-0.85,0
-0.3,-0.85,0
-0.33,-0.85,-0.01
-0.37,-0.86,-0.02
-0.41,-0.85,-0.05
-0.45,-0.8,-0.05
-0.46,-0.74,-0.05
-0.45,-0.7,-0.03
-0.43,-0.67,-0.03
-0.43,-0.65,-0.03
-0.36,-0.62,-0.06
-0.34,-0.62,-0.07
-0.32,-0.63,-0.07
-0.31,-0.65,-0.05
-0.33,-0.64,-0.03
-0.34,-0.62,-0.01
-0.35,-0.63,0
-0.36,-0.68,0
-0.35,-0.75,0
-0.33,-0.81,-0.02
-0.32,-0.87,-0.03
-0.34,-0.93,-0.03
-0.36,-0.99,-0.02
-0.37,-1.02,-0.02
-0.37,-1.03,-0.01
-0.36,-1.04,0.01
-0.36,-1.07,0.07
-0.35,-1.14,0.15
-0.34,-1.23,0.24
-0.32,-1.27,0.33
-0.34,-1.25,0.38
-0.34,-1.24,0.37
-0.32,-1.26,0.33
-0.3,-1.26,0.34
-0.3,-1.26,0.39
-0.28,-1.25,0.46
-0.24,-1.15,0.64
-0.12,-1.11,0.7
-0.04,-1.09,0.71
0.1,-1.09,0.65
0.26,-1.12,0.58
0.43,-1.11,0.59
0.63,-1.05,0.68
0.88,-0.98,0.72
1.24,-0.9,0.69
1.62,-0.83,0.66
1.83,-0.84,0.66
2.03,-0.73,0.61
2.19,-0.59,0.56
2.18,-0.52,0.56
2.16,-0.48,0.53
2.09,-0.58,0.57
1.94,-0.75,0.57
1.71,-0.91,0.49
1.48,-1.03,0.39
1.28,-1.15,0.2
1.13,-1.38,-0.05
0.91,-1.69,-0.18
0.61,-1.89,-0.09
0.43,-1.87,0.13
0.4,-1.75,0.29
0.26,-1.69,0.28
0.08,-1.67,0.09
-0.07,-1.65,-0.06
-0.19,-1.58,-0.15
-0.21,-1.39,-0.15
-0.17,-1.28,-0.07
-0.06,-1.39,0.1
0.01,-1.57,0.21
0.01,-1.68,0.24
-0.03,-1.02,0.21
-0.27,-0.39,0.12
-0.91,-1,-0.22
-1.12,-1.63,-0.24
-0.36,-0.84,0.56
-0.13,-0.81,0.68
-0.76,-1.66,0.02
-0.88,-1.98,-0.24
-0.84,-1.74,-0.13
-0.86,-1.51,-0.22
-0.9,-1.47,-0.49
-0.97,-1.58,-1.74
0.84,-1.44,-3.38
1.18,-2.61,-0.03
0.75,-3.37,3.97
0.03,-0.76,1.49
0.4,-0.42,1.78
0.41,0.25,1.63
0.41,0.23,1.03
0.17,-0.97,0.14
0.68,-0.92,0.46
1.11,-0.54,0.8
1.1,-0.61,0.54
0.59,-1.15,0.22
0.33,-1.22,0.13
0.59,-0.39,0.77
0.77,-0.34,0.63
0.68,-0.53,0.63
0.31,-0.76,0.6
0.46,-0.62,0.77
0.8,0.19,0.62
0.8,-0.02,0.8
0.72,-0.27,0.98
0.55,-0.37,0.79
0.45,-0.48,0.81
0.3,-0.46,1.13
0.04,-0.33,1.25
-0.03,-0.17,1.23
0.11,0,1.13
0.21,0.36,1.04
0.64,0.52,1.11
0.96,0.26,0.9
0.61,-0.27,0.53
0.55,-0.28,0.69
0.69,0.28,1.06
0.61,-0.38,0.72
0.59,-0.69,0.58
0.52,-0.67,0.66
0.39,-0.41,0.85
0.32,-0.19,0.94
0.63,-0.02,1.1
0.59,0.15,1.06
0.49,0.02,0.79
0.66,-0.11,0.74
0.54,-0.11,0.8
0.39,-0.14,0.81
0.38,-0.14,0.84
0.53,-0.11,0.89
0.71,-0.02,0.93
0.75,0.06,0.88
0.62,0.06,0.79
0.47,0.01,0.77
0.4,-0.01,0.79
0.42,-0.01,0.82
0.53,-0.06,0.85
0.59,-0.14,0.88
0.6,-0.18,0.91
0.59,-0.18,0.89
0.54,-0.14,0.84
0.54,-0.1,0.8
0.58,-0.07,0.81
0.6,-0.07,0.83
0.59,-0.08,0.83
0.54,-0.1,0.84
0.51,-0.12,0.85
0.5,-0.11,0.85
0.53,-0.07,0.83
0.58,-0.03,0.85
0.62,-0.01,0.85
0.55,-0.03,0.86
0.51,-0.08,0.88
0.5,-0.11,0.85
0.48,-0.09,0.8
0.53,-0.05,0.81
0.61,-0.05,0.86
0.62,-0.08,0.89
0.59,-0.06,0.87
0.55,-0.08,0.85
0.52,-0.12,0.86
0.5,-0.13,0.87
0.52,-0.12,0.87
0.54,-0.1,0.86
0.54,-0.09,0.85
0.52,-0.1,0.86
0.47,-0.12,0.85
0.46,-0.11,0.86
0.5,-0.1,0.88
0.53,-0.09,0.87
0.54,-0.08,0.87
0.52,-0.09,0.88
0.49,-0.1,0.88
0.49,-0.11,0.88
0.52,-0.1,0.88
0.52,-0.08,0.85
0.51,-0.05,0.86
0.51,-0.09,0.89
0.48,-0.11,0.9
0.46,-0.11,0.9
0.47,-0.09,0.89
0.5,-0.08,0.87
0.52,-0.08,0.85
0.53,-0.07,0.84
0.52,-0.08,0.86
0.51,-0.12,0.88
0.49,-0.12,0.9
0.49,-0.1,0.92
0.47,-0.07,0.88
0.47,-0.05,0.86
0.49,-0.06,0.88
0.5,-0.09,0.88
0.49,-0.11,0.88
0.49,-0.1,0.89
0.49,-0.09,0.88
0.48,-0.06,0.86
0.5,-0.04,0.86
0.5,-0.07,0.87
0.47,-0.1,0.89
0.45,-0.12,0.91
0.48,-0.12,0.91
0.5,-0.09,0.9
0.51,-0.06,0.88
0.45,-0.08,0.87
0.42,-0.1,0.88
0.45,-0.11,0.89
0.48,-0.1,0.9
0.52,-0.07,0.91
0.56,-0.07,0.89
0.55,-0.07,0.87
0.5,-0.08,0.87
0.44,-0.1,0.86
0.42,-0.1,0.87
0.44,-0.11,0.91
0.47,-0.1,0.92
0.47,-0.07,0.89
0.45,-0.06,0.88
0.45,-0.09,0.9
0.45,-0.11,0.91
0.48,-0.11,0.91
0.5,-0.1,0.88
0.49,-0.06,0.85
0.48,-0.04,0.86
0.49,-0.06,0.88
0.48,-0.08,0.87
0.46,-0.09,0.88
0.46,-0.08,0.9
0.49,-0.06,0.91
0.52,-0.05,0.86
0.51,-0.09,0.85
0.46,-0.11,0.86
0.45,-0.11,0.9
0.47,-0.1,0.92
0.49,-0.08,0.9
0.49,-0.07,0.88
0.48,-0.07,0.87
0.47,-0.09,0.89
0.47,-0.09,0.89
0.49,-0.08,0.89
0.52,-0.07,0.89
0.53,-0.08,0.89
0.52,-0.1,0.89
0.49,-0.13,0.88
0.45,-0.11,0.88
0.47,-0.08,0.88
0.5,-0.08,0.88
0.47,-0.11,0.89
0.47,-0.1,0.89
0.47,-0.1,0.89
0.48,-0.09,0.89
0.51,-0.07,0.88
0.51,-0.05,0.87
0.49,-0.06,0.85
0.49,-0.08,0.85
0.49,-0.1,0.89
0.5,-0.11,0.91
0.49,-0.1,0.9
0.51,-0.07,0.9
0.49,-0.01,0.88
0.5,-0.02,0.85
0.51,-0.08,0.85
0.49,-0.12,0.87
0.48,-0.15,0.88
0.46,-0.14,0.92
0.48,-0.11,0.92
0.53,-0.08,0.88
0.53,-0.06,0.86
0.5,-0.06,0.86
0.46,-0.06,0.88
0.47,-0.09,0.89
0.49,-0.11,0.89
0.49,-0.1,0.89
0.5,-0.1,0.88
0.5,-0.08,0.88
0.51,-0.09,0.87
0.49,-0.11,0.86
0.48,-0.1,0.87
0.48,-0.09,0.88
0.49,-0.08,0.87
0.52,-0.08,0.87
0.53,-0.09,0.87
0.51,-0.09,0.87
0.49,-0.09,0.89
0.48,-0.09,0.89
0.47,-0.09,0.88
0.49,-0.08,0.88
0.52,-0.08,0.88
0.53,-0.08,0.86
0.52,-0.08,0.86
0.51,-0.09,0.88
0.48,-0.11,0.89
0.46,-0.1,0.89
0.47,-0.09,0.89
0.5,-0.08,0.87
0.51,-0.06,0.87
0.52,-0.08,0.87
0.51,-0.1,0.87
0.48,-0.1,0.87
0.46,-0.1,0.88
0.48,-0.09,0.88
0.5,-0.08,0.88
0.5,-0.08,0.87
0.51,-0.08,0.87
0.49,-0.08,0.88
0.47,-0.12,0.89
0.49,-0.1,0.89
0.52,-0.08,0.88
0.54,-0.07,0.87
0.52,-0.06,0.87
0.52,-0.1,0.9
0.48,-0.14,0.91
0.44,-0.14,0.89
0.5,-0.1,0.88
0.56,-0.07,0.87
0.54,-0.04,0.85
0.49,-0.07,0.85
0.47,-0.1,0.87
0.44,-0.11,0.9
0.43,-0.12,0.9
0.45,-0.11,0.9
0.47,-0.11,0.9
0.49,-0.1,0.88
0.51,-0.09,0.86
0.51,-0.07,0.87
0.47,-0.07,0.88
0.44,-0.09,0.9
0.43,-0.1,0.91
0.46,-0.12,0.91
0.5,-0.11,0.89
0.53,-0.09,0.86
0.54,-0.07,0.86
0.46,-0.09,0.89
0.43,-0.11,0.91
0.43,-0.12,0.91
0.45,-0.11,0.9
0.48,-0.08,0.87
0.5,-0.06,0.86
0.49,-0.06,0.88
0.45,-0.09,0.89
0.4,-0.11,0.91
0.4,-0.11,0.91
0.47,-0.1,0.89
0.54,-0.09,0.87
0.56,-0.1,0.86
0.5,-0.11,0.87
0.44,-0.11,0.89
0.45,-0.1,0.92
0.51,-0.1,0.9
0.53,-0.11,0.88
0.51,-0.12,0.88
0.45,-0.12,0.9
0.42,-0.11,0.92
0.41,-0.13,0.9
0.43,-0.1,0.87
0.5,-0.04,0.89
0.56,-0.04,0.88
0.55,-0.11,0.88
0.45,-0.13,0.91
0.46,-0.15,0.94
0.44,-0.17,0.93
0.49,-0.13,0.88
0.56,-0.06,0.83
0.61,-0.03,0.82
0.59,-0.06,0.87
0.48,-0.11,0.92
0.36,-0.12,0.98
0.39,-0.1,0.99
0.54,-0.08,0.95
0.66,-0.07,0.87
0.69,-0.07,0.81
0.65,-0.07,0.74
0.49,-0.04,0.75
0.37,-0.03,0.87
0.38,-0.07,0.93
0.45,-0.07,0.93
0.52,-0.07,0.88
0.58,-0.09,0.79
0.62,-0.08,0.74
0.56,-0.05,0.79
0.43,-0.05,0.87
0.31,-0.1,0.94
0.3,-0.1,0.99
0.35,-0.03,0.85
0.6,-0.07,0.76
0.65,-0.1,0.75
0.58,-0.11,0.85
0.43,-0.11,0.96
0.34,-0.08,1.01
0.35,-0.05,0.98
0.4,-0.07,0.89
0.46,-0.11,0.81
0.5,-0.12,0.8
0.5,-0.11,0.86
0.47,-0.1,0.95
0.45,-0.08,0.98
0.42,-0.04,0.96
0.42,-0.05,0.89
0.41,-0.07,0.83
0.43,-0.11,0.81
0.48,-0.13,0.84
0.55,-0.1,0.92
0.57,-0.07,0.94
0.51,-0.08,0.93
0.43,-0.09,0.93
0.39,-0.1,0.94
0.37,-0.12,0.95
0.38,-0.13,0.93
0.41,-0.12,0.92
0.45,-0.11,0.91
0.5,-0.09,0.9
0.5,-0.09,0.89
0.49,-0.09,0.89
0.47,-0.1,0.89
0.45,-0.1,0.9
0.46,-0.11,0.9
0.46,-0.11,0.89
0.44,-0.11,0.89
0.44,-0.11,0.9
0.44,-0.11,0.89
0.46,-0.1,0.88
0.47,-0.1,0.88
0.49,-0.1,0.89
0.49,-0.11,0.89
0.48,-0.1,0.9
0.46,-0.1,0.9
0.45,-0.1,0.9
0.45,-0.11,0.9
0.46,-0.11,0.89
0.47,-0.1,0.88
0.48,-0.09,0.88
0.48,-0.1,0.89
0.47,-0.11,0.9
0.46,-0.11,0.9
0.45,-0.1,0.9
0.45,-0.1,0.89
0.47,-0.1,0.89
0.48,-0.11,0.88
0.48,-0.1,0.88
0.47,-0.1,0.89
0.46,-0.1,0.89
0.45,-0.1,0.9
0.46,-0.1,0.89
0.47,-0.1,0.89
0.47,-0.1,0.89
0.47,-0.1,0.89
0.47,-0.1,0.89
0.46,-0.1,0.89
0.46,-0.1,0.89
0.46,-0.1,0.9
0.47,-0.1,0.9
0.48,-0.1,0.89
0.48,-0.1,0.89
0.47,-0.11,0.89
0.47,-0.11,0.89
0.47,-0.1,0.89
0.47,-0.1,0.89
0.47,-0.1,0.89
0.47,-0.1,0.89
0.47,-0.1,0.88
0.48,-0.1,0.88
0.47,-0.1,0.89
0.46,-0.1,0.89
0.46,-0.1,0.89
0.47,-0.11,0.89
0.47,-0.11,0.89
0.48,-0.11,0.89
0.48,-0.11,0.89
0.47,-0.1,0.89
0.47,-0.1,0.89
0.47,-0.11,0.89
0.47,-0.11,0.89
0.48,-0.1,0.89
0.48,-0.1,0.88
0.48,-0.1,0.88
0.48,-0.11,0.89
0.48,-0.11,0.88
0.47,-0.11,0.88
0.47,-0.11,0.89
0.47,-0.1,0.89
0.48,-0.11,0.89
0.48,-0.1,0.88
0.49,-0.1,0.88
0.49,-0.1,0.88
0.48,-0.1,0.88
0.48,-0.11,0.89
0.47,-0.11,0.89
0.46,-0.1,0.89
0.48,-0.11,0.89
0.48,-0.11,0.88
0.49,-0.11,0.88
0.49,-0.11,0.88
0.5,-0.1,0.88
0.49,-0.1,0.88
0.48,-0.11,0.89
0.48,-0.11,0.89
0.48,-0.1,0.88
0.5,-0.11,0.87
0.52,-0.1,0.87
0.52,-0.1,0.87
0.5,-0.1,0.87
0.48,-0.1,0.88
0.47,-0.1,0.88
0.46,-0.1,0.88
0.46,-0.11,0.88
0.49,-0.1,0.87
0.5,-0.09,0.87
0.5,-0.11,0.86
0.5,-0.12,0.86
0.51,-0.11,0.87
0.51,-0.09,0.88
0.52,-0.09,0.87
0.53,-0.09,0.86
0.52,-0.1,0.86
0.51,-0.1,0.87
0.5,-0.11,0.88
0.49,-0.11,0.88
0.5,-0.11,0.87
0.52,-0.1,0.87
0.53,-0.1,0.86
0.53,-0.1,0.86
0.52,-0.11,0.87
0.53,-0.1,0.87
0.54,-0.09,0.85
0.54,-0.1,0.84
0.52,-0.11,0.85
0.5,-0.12,0.87
0.47,-0.09,0.87
0.48,-0.1,0.86
0.51,-0.14,0.85
0.52,-0.13,0.85
0.54,-0.11,0.84
0.55,-0.1,0.84
0.53,-0.1,0.85
0.52,-0.11,0.86
0.5,-0.12,0.86
0.52,-0.11,0.85
0.54,-0.1,0.85
0.57,-0.1,0.84
0.58,-0.1,0.84
0.58,-0.11,0.84
0.56,-0.11,0.84
0.53,-0.11,0.85
0.51,-0.11,0.87
0.5,-0.12,0.87
0.51,-0.12,0.86
0.53,-0.11,0.85
0.54,-0.11,0.86
0.55,-0.11,0.86
0.54,-0.11,0.86
0.54,-0.1,0.86
0.56,-0.09,0.84
0.57,-0.08,0.83
0.56,-0.09,0.84
0.55,-0.11,0.83
0.53,-0.09,0.82
0.52,-0.1,0.86
0.52,-0.13,0.87
0.52,-0.12,0.86
0.52,-0.11,0.86
0.55,-0.12,0.85
0.57,-0.12,0.83
0.59,-0.11,0.8
0.59,-0.13,0.81
0.57,-0.14,0.84
0.56,-0.11,0.85
0.57,-0.11,0.85
0.56,-0.11,0.86
0.54,-0.12,0.88
0.52,-0.15,0.88
0.51,-0.16,0.88
0.52,-0.18,0.87
0.53,-0.22,0.85
0.54,-0.25,0.84
0.51,-0.26,0.83
0.51,-0.23,0.83
0.52,-0.2,0.87
0.47,-0.23,0.87
0.43,-0.24,0.84
0.41,-0.26,0.83
0.45,-0.24,0.89
0.46,-0.24,0.96
0.48,-0.25,0.94
0.57,-0.25,0.89
0.62,-0.3,0.86
0.55,-0.35,0.86
0.45,-0.48,0.94
0.56,-0.5,0.94
0.68,-0.44,0.89
0.63,-0.5,0.88
0.55,-0.58,0.81
0.43,-0.63,0.74
0.31,-0.47,0.71
0.45,-0.54,0.7
0.51,-0.57,0.73
0.5,-0.56,0.75
0.51,-0.6,0.79
0.53,-0.65,0.84
0.53,-0.69,0.89
0.51,-0.71,0.91
0.5,-0.71,0.88
0.5,-0.71,0.86
0.49,-0.68,0.81
0.47,-0.69,0.78
0.43,-0.72,0.77
0.44,-0.71,0.74
0.46,-0.74,0.73
0.43,-0.77,0.73
0.42,-0.79,0.71
0.44,-0.83,0.66
0.47,-0.84,0.61
0.5,-0.84,0.59
0.55,-0.82,0.59
0.55,-0.81,0.59
0.56,-0.81,0.62
0.6,-0.81,0.61
0.6,-0.84,0.62
0.53,-0.86,0.64
0.51,-0.88,0.63
0.46,-0.92,0.63
0.43,-0.91,0.62
0.42,-0.9,0.57
0.42,-0.89,0.52
0.42,-0.88,0.48
0.39,-0.87,0.45
0.38,-0.87,0.43
0.39,-0.87,0.46
0.38,-0.87,0.48
0.36,-0.88,0.5
0.36,-0.89,0.52
0.43,-0.93,0.49
0.43,-0.93,0.49
0.46,-0.92,0.48
0.48,-0.92,0.42
0.5,-0.95,0.46
0.47,-0.89,0.48
0.45,-0.91,0.48
0.49,-1,0.44
0.55,-0.96,0.47
0.66,-0.94,0.49
0.71,-1.03,0.44
0.67,-1.03,0.45
0.66,-0.7,0.54
0.48,-0.33,0.51
0.96,-0.88,0.07
1.09,-1.22,0.09
0.58,-0.8,0.45
0.6,-0.69,0.44
0.64,-0.76,0.4
0.59,-0.76,0.39
0.55,-0.71,0.39
0.55,-0.71,0.35
0.53,-0.72,0.33
0.51,-0.71,0.31
0.51,-0.69,0.28
0.5,-0.69,0.26
0.49,-0.7,0.26
0.48,-0.71,0.27
0.46,-0.72,0.26
0.44,-0.72,0.25
0.42,-0.73,0.24
0.4,-0.72,0.22
0.37,-0.73,0.22
0.36,-0.74,0.21
0.36,-0.73,0.18
0.39,-0.72,0.15
0.39,-0.74,0.13
0.37,-0.75,0.12
0.35,-0.75,0.12
0.35,-0.75,0.11
0.34,-0.76,0.11
0.32,-0.76,0.12
0.31,-0.77,0.11
0.3,-0.77,0.1
0.3,-0.78,0.09
0.3,-0.78,0.09
0.29,-0.8,0.1
0.29,-0.81,0.09
0.29,-0.8,0.07
0.3,-0.8,0.05
0.31,-0.82,0.04
0.32,-0.82,0.05
0.31,-0.83,0.06
0.29,-0.85,0.06
0.28,-0.86,0.05
0.28,-0.86,0.04
0.29,-0.87,0.05
0.29,-0.89,0.07
0.28,-0.93,0.07
0.28,-0.96,0.04
0.29,-1,0.01
0.31,-1.05,-0.02
0.33,-1.09,-0.03
0.33,-1.12,-0.02
0.33,-1.15,-0.01
0.32,-1.19,0
0.32,-1.2,0.01
0.33,-1.19,0.01
0.32,-1.18,0.02
0.32,-1.17,0.04
0.31,-1.17,0.03
0.31,-1.19,0.05
0.32,-1.22,0.07
0.34,-1.25,0.07
0.35,-1.29,0.06
0.36,-1.3,0.04
0.38,-1.28,0.02
0.39,-1.21,0.05
0.38,-1.14,0.09
0.33,-1.08,0.13
0.3,-1.03,0.15
0.29,-1,0.17
0.3,-0.99,0.2
0.3,-1.03,0.19
0.31,-1.08,0.19
0.31,-1.12,0.2
0.31,-1.15,0.21
0.29,-1.18,0.22
0.28,-1.21,0.23
0.27,-1.23,0.23
0.25,-1.23,0.23
0.22,-1.21,0.23
0.19,-1.17,0.22
0.17,-1.12,0.22
0.13,-1.07,0.23
0.1,-1.02,0.23
0.1,-0.97,0.23
0.1,-0.93,0.22
0.1,-0.9,0.2
0.08,-0.91,0.19
0.05,-0.94,0.16
0.04,-1,0.12
0.04,-1.05,0.07
0.05,-1.08,0
0.07,-1.07,-0.06
0.09,-1.04,-0.12
0.1,-1.02,-0.14
0.1,-1,-0.13
0.09,-0.99,-0.09
0.04,-1.01,-0.08
0.04,-1.03,-0.07
0.04,-1.05,-0.07
0.04,-1.05,-0.08
0.04,-1.05,-0.09
0.04,-1.04,-0.09
0.05,-1.04,-0.1
0.06,-1.03,-0.1
0.06,-1.02,-0.09
0.07,-1.02,-0.08
0.09,-1.05,-0.06
0.11,-1.08,-0.04
0.12,-1.09,-0.04
0.12,-1.08,-0.03
0.13,-1.07,-0.02
0.15,-1.06,-0.02
0.15,-1.04,-0.01
0.16,-1,0.01
0.18,-0.97,0.02
0.2,-0.94,0.03
0.21,-0.92,0.05
0.22,-0.9,0.07
0.22,-0.89,0.09
0.22,-0.88,0.1
0.23,-0.87,0.1
0.23,-0.86,0.1
0.25,-0.79,0.1
0.25,-0.76,0.11
0.25,-0.72,0.11
0.24,-0.68,0.12
0.24,-0.66,0.14
0.25,-0.64,0.14
0.26,-0.65,0.14
0.28,-0.67,0.14
0.3,-0.7,0.15
0.32,-0.73,0.17
0.34,-0.76,0.18
0.35,-0.78,0.18
0.36,-0.79,0.19
0.36,-0.8,0.2
0.36,-0.8,0.21
0.37,-0.8,0.22
0.39,-0.81,0.23
0.4,-0.82,0.24
0.41,-0.82,0.24
0.42,-0.84,0.24
0.43,-0.86,0.23
0.43,-0.88,0.23
0.44,-0.91,0.23
0.44,-0.93,0.23
0.44,-0.94,0.23
0.44,-0.95,0.24
0.43,-0.95,0.26
0.44,-0.94,0.26
0.45,-0.94,0.27
0.45,-0.95,0.26
0.45,-0.95,0.26
0.44,-0.95,0.27
0.43,-0.95,0.28
0.42,-0.97,0.29
0.41,-0.98,0.3
0.39,-0.98,0.29
0.39,-0.98,0.28
0.38,-0.97,0.27
0.37,-0.95,0.26
0.36,-0.93,0.26
0.35,-0.91,0.26
0.35,-0.9,0.27
0.35,-0.89,0.27
0.35,-0.89,0.26
0.36,-0.9,0.25
0.36,-0.9,0.24
0.35,-0.9,0.24
0.35,-0.89,0.23
0.34,-0.88,0.22
0.32,-0.8,0.15
0.32,-0.81,0.14
0.32,-0.82,0.13
0.32,-0.81,0.12
0.32,-0.82,0.12
0.33,-0.86,0.1
0.33,-0.86,0.1
0.32,-0.85,0.11
0.29,-0.84,0.12
0.29,-0.85,0.12
0.29,-0.85,0.11
0.29,-0.83,0.1
0.28,-0.81,0.09
0.27,-0.81,0.1
0.26,-1.02,0.07
0.28,-1.14,0.03
0.31,-1.2,0
0.35,-1.2,0.01
0.36,-1.15,0.06
0.35,-1.09,0.16
0.31,-1.05,0.24
0.3,-1.03,0.26
0.29,-1.01,0.27
0.25,-1.05,0.29
0.22,-1.12,0.28
0.23,-1.18,0.26
0.24,-1.23,0.24
0.25,-1.28,0.23
0.24,-1.34,0.21
0.22,-1.36,0.18
0.24,-1.34,0.15
0.23,-1.32,0.14
0.18,-1.27,0.14
0.17,-1.22,0.15
0.18,-1.16,0.17
0.19,-1.1,0.17
0.2,-1.03,0.16
0.21,-0.96,0.15
0.22,-0.91,0.13
0.24,-0.88,0.12
0.24,-0.83,0.11
0.23,-0.81,0.11
0.22,-0.8,0.1
0.21,-0.79,0.09
0.22,-0.78,0.09
0.23,-0.79,0.08
0.23,-0.79,0.08
0.23,-0.8,0.09
0.24,-0.82,0.1
0.25,-0.83,0.11
0.26,-0.84,0.12
0.27,-0.86,0.13
0.29,-0.88,0.14
0.3,-0.9,0.13
0.31,-0.92,0.13
0.33,-0.92,0.12
0.35,-0.91,0.1
0.35,-0.89,0.09
0.35,-0.87,0.09
0.37,-0.86,0.1
0.38,-0.85,0.1
0.39,-0.85,0.11
0.41,-0.84,0.12
0.44,-0.85,0.14
0.45,-0.86,0.15
0.46,-0.85,0.16
0.47,-0.83,0.19
0.49,-0.84,0.2
0.51,-0.84,0.21
0.53,-0.84,0.22
0.53,-0.85,0.23
0.52,-0.87,0.23
0.51,-0.88,0.23
0.51,-0.87,0.21
0.52,-0.85,0.19
0.55,-0.85,0.18
0.59,-0.89,0.19
0.62,-0.96,0.2
0.62,-1.02,0.23
0.62,-1.07,0.25
0.63,-1.11,0.27
0.65,-1.13,0.26
0.65,-1.12,0.24
0.64,-1.1,0.21
0.64,-1.08,0.19
0.64,-1.08,0.17
0.64,-1.08,0.15
0.62,-1.07,0.14
0.61,-1.05,0.15
0.6,-1.04,0.18
0.6,-1.08,0.21
0.58,-1.12,0.22
0.57,-1.13,0.17
0.51,-1.05,0.15
0.48,-0.99,0.13
0.46,-0.93,0.12
0.44,-0.88,0.13
0.42,-0.84,0.13
0.41,-0.82,0.13
0.4,-0.81,0.13
0.38,-0.78,0.13
0.38,-0.76,0.13
0.37,-0.74,0.13
0.37,-0.73,0.13
0.38,-0.73,0.13
0.39,-0.75,0.14
0.4,-0.78,0.15
0.42,-0.8,0.15
0.42,-0.82,0.16
0.43,-0.82,0.16
0.43,-0.81,0.16
0.44,-0.79,0.15
0.45,-0.78,0.15
0.46,-0.77,0.16
0.47,-0.77,0.18
0.47,-0.78,0.19
0.49,-0.8,0.2
0.51,-0.81,0.21
0.52,-0.82,0.22
0.53,-0.85,0.23
0.55,-0.86,0.23
0.56,-0.88,0.23
0.56,-0.88,0.23
0.56,-0.87,0.23
0.56,-0.85,0.24
0.56,-0.82,0.24
0.56,-0.78,0.25
0.56,-0.73,0.27
0.58,-0.71,0.29
0.61,-0.73,0.3
0.64,-0.78,0.32
0.68,-0.83,0.34
0.7,-0.87,0.35
0.72,-0.9,0.36
0.74,-0.91,0.36
0.75,-0.91,0.37
0.75,-0.9,0.38
0.73,-0.86,0.4
0.72,-0.83,0.42
0.7,-0.79,0.44
0.69,-0.74,0.45
0.68,-0.7,0.46
0.67,-0.67,0.46
0.66,-0.65,0.46
0.65,-0.64,0.45
0.62,-0.64,0.45
0.63,-0.65,0.47
0.63,-0.68,0.49
0.63,-0.7,0.5
0.63,-0.71,0.52
0.63,-0.71,0.55
0.63,-0.7,0.56
0.64,-0.68,0.57
0.64,-0.66,0.57
0.65,-0.63,0.57
0.66,-0.6,0.57
0.66,-0.58,0.57
0.66,-0.56,0.57
0.66,-0.54,0.57
0.65,-0.53,0.56
0.65,-0.52,0.55
0.65,-0.51,0.56
0.65,-0.51,0.57
0.65,-0.51,0.58
0.64,-0.52,0.59
0.63,-0.52,0.6
0.62,-0.52,0.6
0.62,-0.52,0.59
0.6,-0.52,0.58
0.58,-0.51,0.57
0.57,-0.5,0.56
0.56,-0.49,0.56
0.55,-0.48,0.56
0.52,-0.46,0.55
0.5,-0.43,0.53
0.48,-0.39,0.51
0.48,-0.35,0.49
0.5,-0.32,0.47
0.54,-0.31,0.47
0.6,-0.32,0.48
0.64,-0.37,0.51
0.68,-0.4,0.54
0.72,-0.42,0.57
0.76,-0.41,0.59
0.78,-0.4,0.61
0.79,-0.38,0.63
0.79,-0.37,0.64
0.79,-0.39,0.66
0.79,-0.42,0.67
0.78,-0.45,0.69
0.77,-0.47,0.71
0.78,-0.49,0.71
0.79,-0.49,0.69
0.78,-0.48,0.67
0.77,-0.45,0.64
0.75,-0.42,0.62
0.73,-0.39,0.61
0.72,-0.35,0.64
0.71,-0.35,0.67
0.7,-0.35,0.68
0.69,-0.35,0.67
0.7,-0.34,0.66
0.7,-0.33,0.65
0.69,-0.33,0.65
0.67,-0.31,0.65
0.64,-0.31,0.67
0.62,-0.31,0.68
0.6,-0.32,0.68
0.6,-0.32,0.69
0.61,-0.32,0.69
0.61,-0.31,0.67
0.61,-0.31,0.66
0.6,-0.3,0.66
0.59,-0.29,0.68
0.57,-0.28,0.7
0.55,-0.28,0.72
0.54,-0.28,0.72
0.52,-0.26,0.72
0.5,-0.27,0.73
0.48,-0.27,0.73
0.46,-0.28,0.73
0.45,-0.29,0.72
0.43,-0.29,0.71
0.41,-0.25,0.81
0.27,-0.23,0.85
0.28,-0.26,0.85
0.32,-0.25,0.89
0.32,-0.24,0.93
0.34,-0.25,0.95
0.36,-0.25,0.94
0.35,-0.22,0.94
0.36,-0.19,0.96
0.39,-0.21,0.98
0.38,-0.23,1.02
0.35,-0.26,1.06
0.31,-0.26,1.09
0.27,-0.26,1.11
0.23,-0.26,1.11
0.22,-0.25,1.09
0.22,-0.24,1.05
0.23,-0.21,1.02
0.22,-0.19,1
0.17,-0.18,0.96
0.11,-0.15,0.95
0.06,-0.13,0.96
0.04,-0.11,0.96
0.04,-0.06,0.92
0.07,-0.01,0.91
0.1,0.03,0.91
0.11,0.05,0.97
0.12,0.02,1.01
0.09,0.02,1.04
0.03,0.03,1.05
-0.05,0.04,1.02
-0.1,0.06,0.98
-0.1,0.08,0.93
-0.09,0.09,0.88
-0.12,0.11,0.85
-0.14,0.15,0.85
-0.14,0.14,0.86
-0.12,0.12,0.89
-0.15,0.12,0.94
-0.21,0.13,0.99
-0.22,0.16,1.01
-0.21,0.18,1.01
-0.22,0.19,0.98
-0.25,0.21,0.93
-0.3,0.24,0.89
-0.34,0.26,0.88
-0.36,0.27,0.89
-0.35,0.26,0.93
-0.34,0.23,0.98
-0.34,0.22,1.01
-0.34,0.22,1.02
-0.33,0.21,1.02
-0.3,0.23,1
-0.33,0.26,0.98
-0.35,0.28,0.97
-0.34,0.3,0.97
-0.3,0.29,1.01
-0.24,0.26,1.04
-0.21,0.23,1.05
-0.21,0.23,1.04
-0.21,0.21,1.03
-0.22,0.21,0.99
-0.23,0.22,0.96
-0.21,0.22,0.97
-0.2,0.22,0.96
-0.23,0.22,0.96
-0.25,0.22,0.96
-0.26,0.22,0.95
-0.25,0.22,0.95
-0.23,0.25,0.93
-0.19,0.26,0.91
-0.17,0.27,0.91
-0.2,0.27,0.91
-0.24,0.28,0.91
-0.25,0.29,0.91
-0.25,0.29,0.91
-0.23,0.28,0.92
-0.24,0.26,0.93
-0.23,0.24,0.89
-0.2,0.24,0.87
-0.22,0.25,0.86
-0.22,0.27,0.87
-0.21,0.27,0.9
-0.18,0.25,0.94
-0.16,0.24,0.97
-0.15,0.24,0.98
-0.14,0.25,0.97
-0.12,0.27,0.95
