Acc_x,Acc_y,Acc_z
0,0,0
0,0,0
0,0,0
0,0,0
0,0,0
0,0,0
0,0,0
0,0,0
0,0,0
0,0,0
0,0,0
0,0,0
0,0,0
0,0,0
0,0,0
0,0,0
0,0,0
0,0,0
0,0,0
0,0,0
0,0,0
0,0,0
0,0,0
0,0,0
0,0,0
0,0,0
0,0,0
0,0,0
0,0,0
0,0,0
0,0,0
0,0,0
0,0,0
0,0,0
0,0,0
0,0,0
0,0,0
0,0,0
0,0,0
0,0,0
0,0,0
0,0,0
0,0,0
0,0,0
0,0,0
0,0,0
0,0,0
0,0,0
0,0,0
0,0,0
0,0,0
0,0,0
0,0,0
0,0,0
0,0,0
0,0,0
0,0,0
0,0,0
0,0,0
0,0,0
0,0,0
0,0,0
0,0,0
0,0,0
0,0,0
0,0,0
0,0,0
0,0,0
0,0,0
0,0,0
0,0,0
0,0,0
0,0,0
0,0,0
0,0,0
0,0,0
0,0,0
0,0,0
0,0,0
0,0,0
0,0,0
0,0,0
0,0,0
0,0,0
0,0,0
0,0,0
0,0,0
0,0,0
0,0,0
0,0,0
0,0,0
0,0,0
0,0,0
0,0,0
0,0,0
0,0,0
0,0,0
0,0,0
0,0,0
0,0,0
0,0,0
0,0,0
0,0,0
0,0,0
0,0,0
0,0,0
0,0,0
0,0,0
0,0,0
0,0,0
0,0,0
0,0,0
0,0,0
0,0,0
0,0,0
0,0,0
0,0,0
0,0,0
0,0,0
0,0,0
0,0,0
0,0,0
0,0,0
0,0,0
0,0,0
0,0,0
0,0,0
0,0,0
0,0,0
0,0,0
0,0,0
0,0,0
0,0,0
0,0,0
0,0,0
0,0,0
0,0,0
0,0,0
0,0,0
0,0,0
0,0,0
0,0,0
0,0,0
0,0,0
0,0,0
0,0,0
0,0,0
0,0,0
0,0,0
0,0,0
0,0,0
0,0,0
0,0,0
0,0,0
0,0,0
0,0,0
0,0,0
0,0,0
0,0,0
0,0,0
0,0,0
0,0,0
0,0,0
0,0,0
0,0,0
0,0,0
0,0,0
0,0,0
0,0,0
0,0,0
0,0,0
0,0,0
0,0,0
0,0,0
0,0,0
0,0,0
0,0,0
0,0,0
0,0,0
0,0,0
0,0,0
0,0,0
0,0,0
0,0,0
0,0,0
0,0,0
0,0,0
0,0,0
0,0,0
0,0,0
0,0,0
0,0,0
0,0,0
0,0,0
0,0,0
0,0,0
0,0,0
0,0,0
0,0,0
0,0,0
0,0,0
0,0,0
0,0,0
0,0,0
0,0,0
0,0,0
0,0,0
0,0,0
0,0,0
0,0,0
0,0,0
0,0,0
0,0,0
0,0,0
0,0,0
0,0,0
0,0,0
0,0,0
0,0,0
0,0,0
0,0,0
0,0,0
0,0,0
0,0,0
0,0,0
0,0,0
0,0,0
0,0,0
0,0,0
0,0,0
0,0,0
0,0,0
0,0,0
0,0,0
0,0,0
0,0,0
0,0,0
0,0,0
0,0,0
0,0,0
0,0,0
0,0,0
0,0,0
0,0,0
0,0,0
0,0,0
0,0,0
0,0,0
0,0,0
0,0,0
0,0,0
0,0,0
0,0,0
0,0,0
0,0,0
0,0,0
0,0,0
0,0,0
0,0,0
0,0,0
0,0,0
0,0,0
0,0,0
0,0,0
0,0,0
0,0,0
0,0,0
0,0,0
0,0,0
0,0,0
0,0,0
0,0,0
0,0,0
0,0,0
0,0,0
0,0,0
0,0,0
0,0,0
0,0,0
0,0,0
0,0,0
0,0,0
0,0,0
0,0,0
0,0,0
0,0,0
0,0,0
0,0,0
0,0,0
0,0,0
0,0,0
0,0,0
0,0,0
0,0,0
0,0,0
0,0,0
0,0,0
0,0,0
0,0,0
0,0,0
0,0,0
0,0,0
0,0,0
0,0,0
0,0,0
0,0,0
0,0,0
0,0,0
0,0,0
0,0,0
0,0,0
0,0,0
0,0,0
0,0,0
0,0,0
0,0,0
0,0,0
0,0,0
0,0,0
0,0,0
0,0,0
0,0,0
0,0,0
0,0,0
0,0,0
0,0,0
0,0,0
0,0,0
0,0,0
0,0,0
0,0,0
0,0,0
0,0,0
0,0,0
0,0,0
0,0,0
0,0,0
0,0,0
0,0,0
0,0,0
0,0,0
0,0,0
0,0,0
0,0,0
0,0,0
0,0,0
0,0,0
0,0,0
0,0,0
0,0,0
0,0,0
0,0,0
0,0,0
0,0,0
0,0,0
0,0,0
0,0,0
0,0,0
0,0,0
0,0,0
0,0,0
0,0,0
0,0,0
0,0,0
0,0,0
0,0,0
0,0,0
0,0,0
0,0,0
0,0,0
0,0,0
0,0,0
0,0,0
0,0,0
0,0,0
0,0,0
0,0,0
0,0,0
0,0,0
0,0,0
0,0,0
0,0,0
0,0,0
0,0,0
0,0,0
0,0,0
0,0,0
0,0,0
0,0,0
0,0,0
0,0,0
0,0,0
0,0,0
0,0,0
0,0,0
0,0,0
0,0,0
0,0,0
0,0,0
0,0,0
0,0,0
0,0,0
0,0,0
0,0,0
0,0,0
0,0,0
0,0,0
0,0,0
0,0,0
0,0,0
0,0,0
0,0,0
0,0,0
0,0,0
0,0,0
0,0,0
0,0,0
0,0,0
0,0,0
0,0,0
0,0,0
0,0,0
0,0,0
0,0,0
0,0,0
0,0,0
0,0,0
0,0,0
0,0,0
0,0,0
0,0,0
0,0,0
0,0,0
0,0,0
0,0,0
0,0,0
0,0,0
0,0,0
0,0,0
0,0,0
0,0,0
0,0,0
0,0,0
0,0,0
0,0,0
0,0,0
0,0,0
0,0,0
0,0,0
0,0,0
0,0,0
0,0,0
0,0,0
0,0,0
0,0,0
0,0,0
0,0,0
0,0,0
0,0,0
0,0,0
0,0,0
0,0,0
0,0,0
0,0,0
0,0,0
0,0,0
0,0,0
0,0,0
0,0,0
0,0,0
0,0,0
0,0,0
0,0,0
0,0,0
0,0,0
0,0,0
0,0,0
0,0,0
0,0,0
0,0,0
0,0,0
0,0,0
0,0,0
0,0,0
0,0,0
0,0,0
0,0,0
0,0,0
0,0,0
0,0,0
0,0,0
0,0,0
0,0,0
0,0,0
0,0,0
0,0,0
0,0,0
0,0,0
0,0,0
0,0,0
0,0,0
0,0,0
0,0,0
0,0,0
0,0,0
0,0,0
0,0,0
0,0,0
0,0,0
0,0,0
0,0,0
0,0,0
0,0,0
0,0,0
0,0,0
0,0,0
0,0,0
0,0,0
0,0,0
0,0,0
0,0,0
0,0,0
0,0,0
0,0,0
0,0,0
0,0,0
0,0,0
0,0,0
0,0,0
0,0,0
0,0,0
0,0,0
0,0,0
0,0,0
0,0,0
0,0,0
0,0,0
0,0,0
0,0,0
0,0,0
0,0,0
0,0,0
0,0,0
0,0,0
0,0,0
0,0,0
0,0,0
0,0,0
0,0,0
0,0,0
0,0,0
0,0,0
0,0,0
0,0,0
0,0,0
0,0,0
0,0,0
0,0,0
0,0,0
0,0,0
0,0,0
0,0,0
0,0,0
0,0,0
0,0,0
0,0,0
0,0,0
0,0,0
0,0,0
0,0,0
0,0,0
0,0,0
0,0,0
0,0,0
0,0,0
0,0,0
0,0,0
0,0,0
0,0,0
0,0,0
0,0,0
0,0,0
0,0,0
0,0,0
0,0,0
0,0,0
0,0,0
0,0,0
0,0,0
0,0,0
0,0,0
0,0,0
0,0,0
0,0,0
0,0,0
0,0,0
0,0,0
0,0,0
0,0,0
0,0,0
0,0,0
0,0,0
0,0,0
0,0,0
0,0,0
0,0,0
0,0,0
0,0,0
0,0,0
0,0,0
0,0,0
0,0,0
0,0,0
0,0,0
0,0,0
0,0,0
0,0,0
0,0,0
0,0,0
0,0,0
0,0,0
0,0,0
0,0,0
0,0,0
0,0,0
0,0,0
0,0,0
0,0,0
0,0,0
0,0,0
0,0,0
0,0,0
0,0,0
0,0,0
0,0,0
0,0,0
0,0,0
0,0,0
0,0,0
0,0,0
0,0,0
0,0,0
0,0,0
0,0,0
0,0,0
0,0,0
0,0,0
0,0,0
0,0,0
0,0,0
0,0,0
0,0,0
0,0,0
0,0,0
0,0,0
0,0,0
0,0,0
0,0,0
0,0,0
0,0,0
0,0,0
0,0,0
0,0,0
0,0,0
0,0,0
0,0,0
0,0,0
0,0,0
0,0,0
0,0,0
0,0,0
0,0,0
0,0,0
0,0,0
0,0,0
0,0,0
0,0,0
0,0,0
0,0,0
0,0,0
0,0,0
0,0,0
0,0,0
0,0,0
0,0,0
0,0,0
0,0,0
0,0,0
0,0,0
0,0,0
0,0,0
0,0,0
0,0,0
0,0,0
0,0,0
0,0,0
0,0,0
0,0,0
0,0,0
0,0,0
0,0,0
0,0,0
0,0,0
0,0,0
0,0,0
0,0,0
0,0,0
0,0,0
0,0,0
0,0,0
0,0,0
0,0,0
0,0,0
0,0,0
0,0,0
0,0,0
0,0,0
0,0,0
0,0,0
0,0,0
0,0,0
0,0,0
0,0,0
0,0,0
0,0,0
0,0,0
0,0,0
0,0,0
0,0,0
0,0,0
0,0,0
0,0,0
0,0,0
0,0,0
0,0,0
0,0,0
0,0,0
0,0,0
0,0,0
0,0,0
0,0,0
0,0,0
0,0,0
0,0,0
0,0,0
0,0,0
0,0,0
0,0,0
0,0,0
0,0,0
0,0,0
0,0,0
0,0,0
0,0,0
0,0,0
0,0,0
0,0,0
0,0,0
0,0,0
0,0,0
0,0,0
0,0,0
0,0,0
0,0,0
0,0,0
0,0,0
0,0,0
0,0,0
0,0,0
0,0,0
0,0,0
0,0,0
0,0,0
0,0,0
0,0,0
0,0,0
0,0,0
0,0,0
0,0,0
0,0,0
0,0,0
0,0,0
0,0,0
0,0,0
0,0,0
0,0,0
0,0,0
0,0,0
0,0,0
0,0,0
0,0,0
0,0,0
0,0,0
0,0,0
0,0,0
0,0,0
0,0,0
0,0,0
0,0,0
0,0,0
0,0,0
0,0,0
0,0,0
0,0,0
0,0,0
0,0,0
0,0,0
0,0,0
0,0,0
0,0,0
0,0,0
0,0,0
0,0,0
0,0,0
0,0,0
0,0,0
0,0,0
0,0,0
0,0,0
0,0,0
0,0,0
0,0,0
0,0,0
0.45,0.2,0.88
0.44,0.2,0.89
0.44,0.2,0.89
0.43,0.2,0.89
0.43,0.2,0.89
0.43,0.2,0.89
0.43,0.2,0.88
0.43,0.21,0.88
0.44,0.21,0.88
0.44,0.2,0.88
0.44,0.2,0.88
0.44,0.2,0.88
0.44,0.2,0.88
0.43,0.2,0.89
0.43,0.2,0.89
0.43,0.2,0.89
0.44,0.2,0.89
0.44,0.21,0.88
0.45,0.2,0.88
0.44,0.2,0.88
0.44,0.2,0.88
0.44,0.2,0.89
0.43,0.2,0.89
0.43,0.2,0.89
0.43,0.2,0.89
0.43,0.2,0.89
0.43,0.2,0.88
0.44,0.2,0.88
0.44,0.2,0.88
0.44,0.2,0.89
0.44,0.2,0.89
0.44,0.2,0.89
0.43,0.2,0.89
0.43,0.2,0.89
0.43,0.2,0.89
0.43,0.2,0.89
0.43,0.2,0.89
0.43,0.2,0.88
0.44,0.2,0.88
0.44,0.2,0.88
0.43,0.2,0.89
0.43,0.2,0.89
0.43,0.2,0.89
0.42,0.2,0.89
0.42,0.2,0.89
0.43,0.2,0.89
0.43,0.21,0.89
0.45,0.22,0.88
0.45,0.22,0.87
0.44,0.22,0.88
0.43,0.21,0.89
0.42,0.21,0.89
0.42,0.2,0.9
0.42,0.19,0.9
0.43,0.19,0.9
0.45,0.19,0.89
0.45,0.2,0.88
0.44,0.21,0.88
0.43,0.21,0.88
0.42,0.22,0.88
0.41,0.22,0.89
0.42,0.21,0.89
0.43,0.21,0.88
0.43,0.22,0.87
0.43,0.22,0.88
0.42,0.22,0.89
0.4,0.23,0.88
0.42,0.24,0.87
0.42,0.23,0.87
0.42,0.22,0.88
0.42,0.22,0.89
0.43,0.22,0.89
0.42,0.21,0.89
0.41,0.21,0.91
0.39,0.22,0.93
0.39,0.22,0.94
0.41,0.24,0.91
0.41,0.25,0.87
0.43,0.27,0.85
0.43,0.29,0.84
0.37,0.32,0.8
0.32,0.31,0.81
0.33,0.27,0.86
0.36,0.23,0.86
0.38,0.22,0.89
0.37,0.17,0.92
0.42,0.14,0.92
0.51,0.14,0.9
0.52,0.13,0.91
0.49,0.14,0.93
0.46,0.16,0.92
0.45,0.18,0.91
0.46,0.19,0.92
0.49,0.19,0.93
0.47,0.19,0.94
0.45,0.2,0.94
0.44,0.2,0.93
0.42,0.2,0.92
0.42,0.21,0.91
0.42,0.22,0.89
0.41,0.24,0.88
0.4,0.24,0.89
0.38,0.23,0.92
0.35,0.2,0.94
0.38,0.17,0.95
0.43,0.17,0.95
0.46,0.19,0.95
0.47,0.17,0.94
0.45,0.14,0.94
0.45,0.09,0.93
0.47,0.08,0.9
0.5,0.07,0.88
0.47,0.03,0.89
0.46,0.03,0.91
0.49,0.03,0.91
0.51,-0.01,0.9
0.53,-0.02,0.89
0.49,-0.02,0.9
0.44,-0.01,0.89
0.45,-0.04,0.87
0.53,-0.06,0.86
0.55,-0.09,0.85
0.54,-0.1,0.85
0.55,-0.07,0.84
0.54,-0.05,0.84
0.51,-0.05,0.85
0.47,-0.07,0.87
0.44,-0.09,0.91
0.45,-0.07,0.92
0.46,-0.07,0.9
0.46,-0.09,0.9
0.46,-0.1,0.92
0.42,-0.11,0.96
0.35,-0.14,0.97
0.33,-0.18,0.97
0.35,-0.24,0.96
0.34,-0.29,0.93
0.32,-0.31,0.91
0.29,-0.32,0.9
0.29,-0.34,0.88
0.32,-0.39,0.83
0.36,-0.46,0.84
0.37,-0.54,0.88
0.33,-0.62,0.88
0.29,-0.69,0.92
0.17,-0.71,0.9
0.16,-0.67,0.87
0.23,-0.63,0.81
0.25,-0.63,0.81
0.21,-0.7,0.85
0.22,-0.76,0.89
0.21,-0.77,0.92
0.17,-0.76,0.93
0.14,-0.75,0.93
0.15,-0.73,0.91
0.16,-0.7,0.89
0.14,-0.67,0.87
0.1,-0.63,0.84
0.05,-0.61,0.83
0.07,-0.62,0.82
0.12,-0.64,0.83
0.13,-0.65,0.82
0.12,-0.63,0.82
0.12,-0.6,0.82
0.14,-0.56,0.81
0.17,-0.54,0.81
0.16,-0.53,0.8
0.16,-0.52,0.8
0.15,-0.51,0.78
0.14,-0.5,0.77
0.14,-0.49,0.74
0.19,-0.47,0.72
0.22,-0.46,0.71
0.24,-0.44,0.71
0.26,-0.43,0.71
0.27,-0.42,0.72
0.26,-0.43,0.75
0.25,-0.45,0.77
0.26,-0.48,0.77
0.27,-0.49,0.77
0.28,-0.5,0.76
0.28,-0.51,0.76
0.29,-0.52,0.77
0.3,-0.53,0.79
0.32,-0.54,0.81
0.32,-0.56,0.83
0.28,-0.56,0.83
0.25,-0.56,0.85
0.23,-0.54,0.85
0.23,-0.53,0.85
0.23,-0.52,0.84
0.23,-0.53,0.83
0.23,-0.55,0.83
0.23,-0.57,0.85
0.22,-0.58,0.87
0.22,-0.58,0.87
0.22,-0.57,0.86
0.23,-0.54,0.85
0.26,-0.52,0.85
0.29,-0.52,0.85
0.3,-0.54,0.85
0.3,-0.56,0.84
0.3,-0.59,0.84
0.3,-0.6,0.84
0.28,-0.6,0.85
0.27,-0.59,0.84
0.29,-0.56,0.83
0.32,-0.53,0.81
0.34,-0.5,0.8
0.35,-0.48,0.81
0.35,-0.47,0.81
0.35,-0.47,0.82
0.34,-0.47,0.81
0.34,-0.47,0.8
0.33,-0.46,0.78
0.33,-0.45,0.75
0.33,-0.43,0.73
0.35,-0.4,0.72
0.37,-0.37,0.69
0.39,-0.35,0.67
0.42,-0.35,0.67
0.44,-0.36,0.68
0.46,-0.38,0.72
0.46,-0.39,0.72
0.47,-0.38,0.7
0.49,-0.37,0.67
0.52,-0.36,0.67
0.57,-0.38,0.66
0.63,-0.42,0.66
0.68,-0.45,0.64
0.71,-0.45,0.62
0.71,-0.43,0.6
0.72,-0.4,0.58
0.75,-0.36,0.55
0.78,-0.33,0.55
0.79,-0.31,0.56
0.8,-0.28,0.57
0.82,-0.26,0.56
0.84,-0.26,0.55
0.84,-0.26,0.53
0.85,-0.27,0.51
0.88,-0.28,0.5
0.92,-0.29,0.51
0.95,-0.28,0.53
0.95,-0.26,0.55
0.95,-0.26,0.57
0.95,-0.26,0.57
0.96,-0.28,0.58
0.96,-0.3,0.58
0.96,-0.36,0.57
0.96,-0.38,0.57
0.95,-0.4,0.58
0.94,-0.43,0.58
0.92,-0.46,0.59
0.89,-0.48,0.59
0.87,-0.49,0.59
0.85,-0.5,0.59
0.84,-0.51,0.58
0.84,-0.52,0.58
0.83,-0.52,0.58
0.81,-0.54,0.58
0.8,-0.57,0.59
0.77,-0.59,0.58
0.74,-0.6,0.57
0.73,-0.62,0.56
0.72,-0.65,0.56
0.71,-0.68,0.58
0.7,-0.72,0.6
0.67,-0.75,0.61
0.64,-0.75,0.6
0.61,-0.74,0.6
0.6,-0.72,0.59
0.6,-0.7,0.59
0.6,-0.68,0.6
0.61,-0.67,0.6
0.59,-0.64,0.64
0.5,-0.62,0.66
0.46,-0.59,0.65
0.42,-0.55,0.63
0.4,-0.52,0.6
0.39,-0.5,0.58
0.41,-0.49,0.57
0.41,-0.47,0.57
0.4,-0.45,0.58
0.39,-0.43,0.6
0.36,-0.41,0.61
0.36,-0.39,0.61
0.38,-0.36,0.6
0.4,-0.35,0.57
0.43,-0.35,0.54
0.47,-0.35,0.53
0.51,-0.35,0.53
0.52,-0.35,0.55
0.5,-0.34,0.58
0.49,-0.35,0.6
0.51,-0.39,0.6
0.54,-0.42,0.6
0.58,-0.44,0.62
0.61,-0.45,0.63
0.63,-0.45,0.63
0.65,-0.44,0.63
0.67,-0.42,0.67
0.72,-0.42,0.71
0.74,-0.43,0.76
0.75,-0.42,0.8
0.77,-0.39,0.79
0.83,-0.35,0.77
0.9,-0.32,0.74
0.95,-0.29,0.72
0.99,-0.28,0.71
1.01,-0.27,0.72
1.03,-0.25,0.74
1.04,-0.22,0.74
1.04,-0.19,0.73
1.03,-0.15,0.71
1.01,-0.1,0.67
1.01,-0.05,0.63
1.03,-0.01,0.59
1.04,0,0.57
1.05,0.01,0.55
1.02,0.02,0.51
0.99,0.04,0.45
0.98,0.07,0.38
0.96,0.11,0.33
0.94,0.15,0.29
0.92,0.19,0.27
0.89,0.22,0.27
0.87,0.25,0.26
0.81,0.26,0.25
0.79,0.26,0.23
0.79,0.26,0.22
0.79,0.26,0.23
0.8,0.27,0.22
0.8,0.28,0.21
0.81,0.28,0.2
0.81,0.27,0.19
0.8,0.26,0.21
0.78,0.24,0.23
0.76,0.24,0.24
0.73,0.25,0.23
0.72,0.26,0.22
0.73,0.27,0.19
0.76,0.29,0.16
0.81,0.3,0.14
0.83,0.32,0.13
0.84,0.33,0.12
0.83,0.35,0.13
0.79,0.37,0.13
0.77,0.39,0.15
0.76,0.39,0.17
0.75,0.4,0.2
0.74,0.39,0.22
0.76,0.38,0.21
0.8,0.38,0.19
0.9,0.43,0.18
0.92,0.45,0.2
0.9,0.47,0.24
0.87,0.48,0.29
0.86,0.5,0.35
0.83,0.51,0.38
0.79,0.49,0.42
0.81,0.48,0.42
0.84,0.48,0.39
0.84,0.48,0.38
0.84,0.49,0.38
0.81,0.49,0.4
0.79,0.49,0.43
0.81,0.5,0.47
0.85,0.49,0.51
0.86,0.47,0.54
0.89,0.45,0.56
0.92,0.39,0.59
0.91,0.36,0.58
0.93,0.37,0.56
0.94,0.37,0.54
0.93,0.36,0.53
0.84,0.37,0.52
0.76,0.34,0.52
0.77,0.32,0.52
0.77,0.33,0.49
0.74,0.32,0.5
0.73,0.3,0.52
0.73,0.31,0.54
0.74,0.31,0.55
0.7,0.31,0.56
0.65,0.31,0.56
0.61,0.33,0.55
0.59,0.35,0.56
0.56,0.35,0.58
0.54,0.34,0.6
0.56,0.35,0.6
0.58,0.38,0.58
0.6,0.39,0.56
0.64,0.39,0.54
0.64,0.38,0.54
0.62,0.34,0.56
0.61,0.32,0.6
0.61,0.35,0.64
0.6,0.36,0.68
0.6,0.36,0.72
0.63,0.37,0.75
0.64,0.39,0.77
0.66,0.41,0.76
0.7,0.44,0.72
0.74,0.45,0.69
0.75,0.46,0.7
0.68,0.5,0.71
0.7,0.56,0.71
0.65,0.61,0.75
0.62,0.64,0.78
0.61,0.65,0.78
0.58,0.65,0.79
0.57,0.64,0.78
0.58,0.63,0.77
0.59,0.62,0.76
0.6,0.62,0.71
0.57,0.62,0.72
0.48,0.61,0.77
0.45,0.59,0.8
0.44,0.59,0.8
0.37,0.6,0.78
0.33,0.62,0.75
0.35,0.63,0.71
0.37,0.64,0.68
0.38,0.68,0.68
0.38,0.71,0.68
0.39,0.71,0.67
0.39,0.69,0.65
0.41,0.66,0.65
0.43,0.62,0.66
0.42,0.61,0.67
0.41,0.62,0.74
0.36,0.65,0.77
0.34,0.61,0.77
0.33,0.59,0.73
0.33,0.57,0.69
0.34,0.54,0.65
0.35,0.51,0.61
0.38,0.5,0.59
0.4,0.49,0.57
0.4,0.48,0.55
0.39,0.48,0.55
0.39,0.46,0.56
0.39,0.45,0.57
0.41,0.45,0.59
0.42,0.43,0.61
0.39,0.42,0.62
0.38,0.42,0.64
0.39,0.43,0.66
0.4,0.45,0.69
0.41,0.48,0.72
0.46,0.49,0.76
0.58,0.51,0.83
0.66,0.52,0.88
0.71,0.54,0.93
0.79,0.56,0.92
0.86,0.54,0.88
0.88,0.53,0.84
0.49,0.49,0.62
0.49,0.47,0.55
0.53,0.48,0.54
0.55,0.5,0.56
0.57,0.51,0.58
0.57,0.52,0.59
0.58,0.54,0.59
0.57,0.54,0.61
0.58,0.52,0.64
0.6,0.53,0.66
0.63,0.54,0.67
0.68,0.56,0.68
0.69,0.55,0.68
0.68,0.55,0.68
0.7,0.55,0.67
0.69,0.52,0.66
0.65,0.5,0.64
0.63,0.5,0.61
0.63,0.5,0.6
0.61,0.5,0.59
0.59,0.5,0.59
0.57,0.51,0.59
0.57,0.52,0.6
0.56,0.52,0.6
0.54,0.53,0.61
0.54,0.53,0.62
0.54,0.53,0.63
0.55,0.54,0.65
0.56,0.54,0.66
0.57,0.54,0.67
0.57,0.54,0.67
0.56,0.54,0.67
0.56,0.53,0.66
0.54,0.52,0.65
0.54,0.51,0.64
0.54,0.51,0.65
0.54,0.51,0.65
0.53,0.51,0.65
0.52,0.52,0.65
0.5,0.52,0.66
0.5,0.53,0.66
0.51,0.53,0.66
0.53,0.53,0.66
0.54,0.53,0.65
0.56,0.53,0.65
0.58,0.54,0.64
0.59,0.54,0.64
0.59,0.54,0.63
0.59,0.53,0.63
0.58,0.53,0.63
0.58,0.53,0.64
0.56,0.53,0.64
0.54,0.53,0.64
0.53,0.53,0.65
0.53,0.53,0.65
0.54,0.53,0.66
0.54,0.52,0.66
0.55,0.53,0.66
0.55,0.53,0.66
0.55,0.53,0.65
0.55,0.53,0.64
0.56,0.53,0.65
0.58,0.52,0.65
0.58,0.52,0.65
0.57,0.53,0.66
0.56,0.53,0.66
0.55,0.53,0.65
0.54,0.53,0.65
0.53,0.53,0.65
0.53,0.52,0.65
0.53,0.52,0.65
0.53,0.53,0.64
0.53,0.53,0.65
0.53,0.53,0.65
0.53,0.53,0.65
0.53,0.53,0.65
0.54,0.53,0.65
0.54,0.53,0.65
0.54,0.53,0.65
0.54,0.53,0.64
0.56,0.53,0.64
0.57,0.53,0.63
0.58,0.53,0.64
0.57,0.52,0.65
0.57,0.53,0.65
0.58,0.53,0.64
0.58,0.53,0.64
0.59,0.53,0.64
0.59,0.53,0.64
0.58,0.53,0.63
0.58,0.53,0.63
0.58,0.53,0.64
0.58,0.53,0.64
0.58,0.52,0.64
0.57,0.52,0.64
0.57,0.52,0.64
0.56,0.52,0.64
0.56,0.53,0.64
0.56,0.53,0.64
0.55,0.53,0.64
0.55,0.53,0.64
0.55,0.52,0.64
0.56,0.53,0.64
0.56,0.53,0.64
0.56,0.52,0.64
0.57,0.52,0.64
0.57,0.52,0.64
0.57,0.53,0.64
0.57,0.53,0.63
0.57,0.52,0.63
0.57,0.52,0.64
0.56,0.52,0.64
0.56,0.53,0.63
0.57,0.53,0.63
0.56,0.53,0.63
0.57,0.53,0.64
0.57,0.53,0.64
0.57,0.53,0.64
0.57,0.53,0.64
0.57,0.53,0.64
0.57,0.53,0.63
0.57,0.53,0.63
0.57,0.53,0.63
0.56,0.53,0.64
0.56,0.52,0.64
0.57,0.52,0.63
0.57,0.53,0.63
0.57,0.53,0.64
0.57,0.52,0.64
0.58,0.52,0.64
0.58,0.52,0.64
0.58,0.52,0.63
0.57,0.53,0.63
0.57,0.52,0.63
0.57,0.53,0.63
0.56,0.53,0.63
0.56,0.53,0.63
0.56,0.53,0.63
0.56,0.53,0.63
0.56,0.53,0.63
0.56,0.53,0.63
0.56,0.53,0.63
0.56,0.53,0.63
0.56,0.53,0.63
0.57,0.53,0.63
0.57,0.52,0.63
0.57,0.52,0.63
0.57,0.52,0.63
0.58,0.52,0.63
0.58,0.53,0.63
0.58,0.53,0.63
0.59,0.53,0.63
0.58,0.52,0.63
0.59,0.53,0.63
0.59,0.53,0.63
0.59,0.53,0.63
0.58,0.53,0.63
0.58,0.53,0.62
0.57,0.53,0.63
0.57,0.53,0.63
0.57,0.53,0.63
0.57,0.53,0.63
0.57,0.53,0.62
0.57,0.53,0.63
0.58,0.53,0.63
0.58,0.53,0.63
0.58,0.53,0.63
0.58,0.53,0.62
0.58,0.53,0.62
0.58,0.53,0.63
0.57,0.53,0.63
0.58,0.53,0.62
0.59,0.52,0.62
0.58,0.53,0.62
0.58,0.53,0.62
0.58,0.53,0.62
0.58,0.53,0.62
0.58,0.53,0.62
0.58,0.54,0.62
0.58,0.53,0.62
0.58,0.53,0.62
0.59,0.53,0.62
0.59,0.53,0.62
0.58,0.53,0.62
0.58,0.53,0.62
0.59,0.53,0.62
0.59,0.53,0.62
0.58,0.53,0.63
0.59,0.53,0.63
0.59,0.53,0.63
0.58,0.53,0.62
0.58,0.53,0.62
0.58,0.53,0.62
0.58,0.53,0.62
0.58,0.53,0.62
0.58,0.53,0.62
0.58,0.53,0.62
0.58,0.53,0.62
0.58,0.53,0.62
0.58,0.53,0.62
0.58,0.53,0.62
0.58,0.53,0.62
0.58,0.53,0.62
0.58,0.53,0.62
0.58,0.53,0.62
0.58,0.53,0.62
0.58,0.53,0.62
0.57,0.53,0.62
0.58,0.53,0.62
0.59,0.53,0.62
0.59,0.53,0.62
0.6,0.53,0.62
0.6,0.53,0.62
0.59,0.53,0.62
0.59,0.53,0.62
0.58,0.53,0.62
0.58,0.53,0.62
0.58,0.53,0.62
0.58,0.53,0.62
0.58,0.53,0.62
0.58,0.53,0.62
0.58,0.52,0.62
0.58,0.53,0.62
0.59,0.53,0.62
0.59,0.53,0.62
0.58,0.53,0.62
0.58,0.53,0.63
0.58,0.53,0.63
0.58,0.53,0.62
0.58,0.53,0.62
0.58,0.53,0.62
0.58,0.53,0.62
0.57,0.53,0.63
0.57,0.53,0.63
0.56,0.53,0.63
0.57,0.53,0.63
0.57,0.53,0.63
0.58,0.53,0.63
0.59,0.52,0.63
0.6,0.53,0.63
0.61,0.53,0.64
0.64,0.53,0.65
0.64,0.53,0.66
0.65,0.54,0.67
0.65,0.54,0.66
0.66,0.55,0.67
0.63,0.55,0.69
0.61,0.54,0.71
0.66,0.54,0.72
0.68,0.55,0.75
0.64,0.54,0.78
0.6,0.52,0.78
0.56,0.51,0.77
0.53,0.55,0.78
0.53,0.58,0.79
0.51,0.54,0.75
0.57,0.53,0.73
0.7,0.55,0.76
0.78,0.56,0.74
0.82,0.59,0.74
0.78,0.59,0.74
0.68,0.58,0.73
0.62,0.56,0.68
0.62,0.57,0.66
0.62,0.58,0.64
0.58,0.57,0.61
0.56,0.57,0.57
0.54,0.58,0.55
0.53,0.6,0.54
0.52,0.62,0.53
0.5,0.64,0.52
0.47,0.65,0.53
0.46,0.67,0.52
0.46,0.67,0.52
0.46,0.67,0.51
0.44,0.67,0.51
0.42,0.68,0.52
0.42,0.67,0.51
0.41,0.67,0.5
0.37,0.68,0.49
0.35,0.7,0.49
0.34,0.7,0.49
0.33,0.69,0.49
0.31,0.69,0.5
0.27,0.7,0.5
0.23,0.72,0.49
0.2,0.7,0.46
0.23,0.7,0.47
0.28,0.71,0.48
0.24,0.69,0.48
0.21,0.69,0.48
0.17,0.72,0.46
0.12,0.74,0.5
0.1,0.71,0.55
0.1,0.68,0.53
0.05,0.68,0.52
-0.04,0.66,0.58
-0.11,0.66,0.54
-0.13,0.68,0.52
-0.15,0.66,0.56
-0.15,0.67,0.58
-0.22,0.63,0.62
-0.25,0.58,0.63
-0.23,0.57,0.66
-0.28,0.58,0.7
-0.36,0.59,0.74
-0.37,0.57,0.74
-0.35,0.56,0.7
-0.39,0.56,0.72
-0.46,0.57,0.72
-0.5,0.55,0.69
-0.46,0.57,0.67
-0.39,0.6,0.65
-0.43,0.6,0.64
-0.46,0.59,0.68
-0.52,0.6,0.66
-0.57,0.62,0.66
-0.61,0.62,0.65
-0.61,0.61,0.64
-0.58,0.61,0.62
-0.57,0.62,0.61
-0.53,0.62,0.6
-0.51,0.61,0.61
-0.54,0.6,0.62
-0.54,0.59,0.61
-0.5,0.59,0.6
-0.52,0.58,0.57
-0.49,0.59,0.56
-0.47,0.61,0.58
-0.55,0.59,0.6
-0.61,0.58,0.63
-0.57,0.58,0.63
-0.55,0.57,0.61
-0.59,0.57,0.62
-0.56,0.58,0.61
-0.54,0.58,0.6
-0.52,0.57,0.59
-0.51,0.57,0.57
-0.55,0.57,0.58
-0.6,0.57,0.6
-0.62,0.58,0.64
-0.66,0.55,0.66
-0.63,0.54,0.67
-0.61,0.53,0.66
-0.63,0.53,0.65
-0.64,0.52,0.65
-0.62,0.51,0.65
-0.6,0.51,0.65
-0.59,0.5,0.65
-0.59,0.5,0.64
-0.59,0.51,0.66
-0.6,0.52,0.67
-0.61,0.51,0.68
-0.6,0.51,0.7
-0.58,0.5,0.72
-0.53,0.5,0.72
-0.45,0.52,0.73
-0.39,0.54,0.75
-0.37,0.54,0.75
-0.35,0.54,0.75
-0.32,0.56,0.73
-0.31,0.56,0.72
-0.32,0.56,0.73
-0.35,0.56,0.73
-0.38,0.56,0.73
-0.38,0.55,0.73
-0.38,0.55,0.73
-0.39,0.54,0.73
-0.39,0.54,0.72
-0.39,0.54,0.73
-0.4,0.54,0.73
-0.41,0.54,0.73
-0.4,0.55,0.73
-0.41,0.55,0.74
-0.4,0.54,0.74
-0.37,0.54,0.74
-0.36,0.54,0.74
-0.37,0.54,0.74
-0.38,0.54,0.75
-0.38,0.54,0.75
-0.37,0.54,0.74
-0.36,0.54,0.73
-0.35,0.55,0.73
-0.35,0.55,0.73
-0.36,0.55,0.73
-0.37,0.56,0.73
-0.37,0.56,0.74
-0.38,0.56,0.74
-0.39,0.56,0.75
-0.4,0.56,0.75
-0.41,0.56,0.75
-0.42,0.56,0.77
-0.42,0.56,0.77
-0.42,0.55,0.77
-0.41,0.53,0.78
-0.37,0.53,0.77
-0.34,0.54,0.76
-0.33,0.54,0.78
-0.32,0.54,0.81
-0.34,0.52,0.82
-0.32,0.53,0.82
-0.28,0.56,0.8
-0.29,0.56,0.78
-0.29,0.56,0.76
-0.3,0.56,0.74
-0.31,0.57,0.74
-0.3,0.57,0.73
-0.25,0.59,0.73
-0.21,0.59,0.75
-0.17,0.58,0.75
-0.17,0.59,0.79
-0.19,0.59,0.83
-0.2,0.6,0.83
-0.22,0.6,0.82
-0.25,0.59,0.81
-0.3,0.59,0.81
-0.32,0.6,0.78
-0.32,0.59,0.76
-0.31,0.58,0.74
-0.22,0.59,0.71
-0.24,0.61,0.71
-0.2,0.61,0.69
-0.19,0.63,0.7
-0.17,0.65,0.7
-0.16,0.65,0.69
-0.18,0.65,0.69
-0.2,0.65,0.69
-0.21,0.66,0.7
-0.18,0.66,0.66
-0.16,0.65,0.66
-0.16,0.66,0.68
-0.12,0.66,0.67
-0.09,0.66,0.69
-0.07,0.66,0.71
-0.05,0.67,0.74
-0.03,0.66,0.76
0.03,0.64,0.78
0.09,0.62,0.76
0.13,0.61,0.75
0.17,0.61,0.77
0.19,0.61,0.77
0.23,0.62,0.75
0.26,0.61,0.73
0.24,0.62,0.74
0.25,0.64,0.75
0.26,0.65,0.71
0.24,0.66,0.71
0.24,0.67,0.71
0.23,0.68,0.69
0.25,0.68,0.67
0.26,0.68,0.67
0.26,0.68,0.68
0.26,0.69,0.68
0.25,0.68,0.67
0.26,0.68,0.68
0.28,0.69,0.67
0.26,0.69,0.65
0.25,0.7,0.64
0.23,0.7,0.64
0.16,0.7,0.64
0.17,0.7,0.64
0.18,0.72,0.63
0.17,0.73,0.63
0.16,0.72,0.64
0.19,0.72,0.63
0.19,0.72,0.63
0.18,0.73,0.65
0.23,0.71,0.65
0.27,0.72,0.64
0.21,0.73,0.63
0.2,0.71,0.61
0.25,0.72,0.59
0.24,0.72,0.59
0.21,0.73,0.6
0.26,0.74,0.61
0.26,0.72,0.59
0.19,0.72,0.57
0.23,0.72,0.59
0.25,0.71,0.56
0.23,0.73,0.55
0.15,0.75,0.59
0.18,0.75,0.59
0.4,0.74,0.57
0.36,0.74,0.59
0.24,0.73,0.6
0.29,0.72,0.57
0.29,0.73,0.55
0.34,0.73,0.51
0.27,0.72,0.5
0.2,0.72,0.54
0.21,0.69,0.53
0.21,0.68,0.52
0.3,0.68,0.5
0.27,0.7,0.47
0.35,0.74,0.53
0.36,0.73,0.55
0.24,0.67,0.53
0.24,0.68,0.51
0.29,0.69,0.49
0.23,0.66,0.49
0.21,0.64,0.49
0.26,0.63,0.48
0.28,0.63,0.49
0.26,0.6,0.49
0.31,0.56,0.52
0.42,0.53,0.53
0.46,0.53,0.52
0.46,0.58,0.55
0.47,0.58,0.54
0.47,0.57,0.53
0.45,0.56,0.52
0.44,0.54,0.52
0.45,0.5,0.49
0.45,0.5,0.44
0.41,0.48,0.44
0.46,0.41,0.48
0.57,0.32,0.62
0.61,0.3,0.69
0.6,0.31,0.64
0.69,0.32,0.72
0.96,0.36,0.74
1.26,0.43,0.69
1.51,0.43,0.66
1.6,0.41,0.44
1.54,0.44,0.34
1.6,0.49,0.32
1.49,0.51,0.34
1.34,0.54,0.39
1.2,0.53,0.43
0.99,0.46,0.4
0.89,0.41,0.35
0.9,0.4,0.33
0.97,0.4,0.32
1.03,0.41,0.33
0.9,0.43,0.39
0.74,0.44,0.46
0.68,0.45,0.51
0.65,0.45,0.54
0.63,0.44,0.58
0.63,0.44,0.62
0.63,0.43,0.64
0.63,0.42,0.61
0.65,0.41,0.57
0.69,0.41,0.54
0.73,0.42,0.52
0.76,0.42,0.51
0.79,0.43,0.49
0.8,0.43,0.48
0.81,0.43,0.48
0.82,0.43,0.49
0.8,0.42,0.5
0.8,0.42,0.52
0.81,0.41,0.53
0.83,0.42,0.52
0.83,0.42,0.52
0.82,0.42,0.52
0.83,0.43,0.52
0.83,0.43,0.54
0.84,0.43,0.55
0.86,0.43,0.55
0.92,0.43,0.54
1,0.44,0.52
1.05,0.44,0.51
1.04,0.48,0.47
1.04,0.53,0.44
1.04,0.54,0.44
1.03,0.54,0.44
1.03,0.54,0.46
1.02,0.52,0.47
1.01,0.52,0.48
0.99,0.54,0.49
1.01,0.56,0.47
1.03,0.56,0.45
0.96,0.57,0.52
1.05,0.63,0.48
1.23,0.68,0.43
0.88,0.68,0.53
0.81,0.66,0.56
0.96,0.62,0.51
1.08,0.63,0.45
0.99,0.62,0.46
0.94,0.63,0.49
0.89,0.66,0.5
0.83,0.65,0.51
0.77,0.65,0.5
0.73,0.65,0.49
0.68,0.63,0.5
0.68,0.63,0.49
0.69,0.64,0.47
0.66,0.64,0.44
0.62,0.64,0.46
0.58,0.67,0.47
0.5,0.65,0.5
0.42,0.56,0.52
0.42,0.55,0.53
0.39,0.59,0.53
0.35,0.56,0.51
0.34,0.53,0.5
0.34,0.49,0.51
0.32,0.44,0.54
0.29,0.39,0.55
0.26,0.32,0.57
0.2,0.18,0.56
0.16,0.14,0.55
0.1,0.1,0.57
0.03,0.08,0.59
-0.03,0.06,0.6
-0.07,0.03,0.61
-0.11,-0.03,0.61
-0.14,-0.09,0.61
-0.16,-0.17,0.6
-0.21,-0.23,0.62
-0.25,-0.25,0.63
-0.29,-0.27,0.63
-0.34,-0.3,0.61
-0.38,-0.35,0.61
-0.39,-0.39,0.6
-0.39,-0.38,0.59
-0.37,-0.4,0.59
-0.35,-0.44,0.6
-0.33,-0.46,0.61
-0.31,-0.48,0.62
-0.32,-0.52,0.64
-0.34,-0.53,0.66
-0.35,-0.55,0.68
-0.36,-0.59,0.71
-0.39,-0.6,0.72
-0.41,-0.6,0.73
-0.37,-0.63,0.74
-0.33,-0.65,0.76
-0.34,-0.67,0.78
-0.34,-0.69,0.8
-0.34,-0.7,0.82
-0.34,-0.71,0.84
-0.34,-0.71,0.85
-0.34,-0.71,0.85
-0.34,-0.71,0.83
-0.33,-0.72,0.83
-0.31,-0.71,0.84
-0.29,-0.71,0.87
-0.28,-0.71,0.87
-0.29,-0.71,0.87
-0.29,-0.71,0.86
-0.28,-0.71,0.85
-0.26,-0.71,0.85
-0.24,-0.69,0.85
-0.23,-0.69,0.85
-0.23,-0.69,0.86
-0.24,-0.68,0.85
-0.24,-0.66,0.85
-0.25,-0.65,0.83
-0.23,-0.64,0.8
-0.23,-0.64,0.79
-0.21,-0.64,0.78
-0.2,-0.64,0.75
-0.2,-0.65,0.74
-0.19,-0.65,0.72
-0.17,-0.64,0.71
-0.13,-0.64,0.73
-0.12,-0.64,0.74
-0.1,-0.65,0.74
-0.08,-0.66,0.74
-0.05,-0.67,0.74
-0.03,-0.68,0.75
-0.02,-0.67,0.75
-0.02,-0.67,0.76
-0.03,-0.66,0.76
-0.06,-0.65,0.74
-0.06,-0.63,0.71
-0.04,-0.61,0.7
0,-0.6,0.71
0.05,-0.59,0.72
0.06,-0.57,0.73
0.03,-0.54,0.69
-0.02,-0.54,0.62
-0.03,-0.55,0.58
0,-0.54,0.6
0.03,-0.53,0.65
0.03,-0.51,0.71
0.01,-0.47,0.73
-0.03,-0.42,0.66
-0.07,-0.41,0.61
-0.09,-0.39,0.58
-0.15,-0.37,0.53
-0.2,-0.36,0.49
-0.19,-0.34,0.47
-0.11,-0.33,0.46
-0.03,-0.31,0.44
-0.01,-0.31,0.43
0,-0.33,0.42
0.03,-0.35,0.41
-0.01,-0.32,0.38
-0.11,-0.33,0.36
-0.18,-0.37,0.32
-0.18,-0.34,0.23
-0.09,-0.31,0.15
-0.01,-0.38,0.15
-0.02,-0.44,0.19
-0.05,-0.48,0.17
0.01,-0.59,0.14
0.06,-0.71,0.16
0.03,-0.83,0.15
0.03,-0.96,0.1
-0.19,-1.26,-0.21
-0.08,-1.27,-0.78
0.47,-1.08,-0.76
0.23,-1.98,-1
0.26,-2.72,1.46
2.99,-3.58,3.98
1.09,-4,1.3
-2.85,-0.21,-1.19
-1.59,1.34,-0.37
2.1,-0.46,0.83
2.14,-0.34,1.09
0.69,-0.95,0.47
0.42,-1.19,0.27
0.33,-0.96,0.28
0.42,-0.75,0.3
0.49,-0.79,0.46
0.5,-0.84,0.59
0.41,-0.85,0.58
0.24,-0.88,0.4
0.16,-0.96,0.36
0.31,-0.94,0.48
0.47,-0.78,0.37
0.61,-0.66,0.28
0.63,-0.7,0.39
0.53,-0.8,0.47
0.51,-0.84,0.48
0.46,-0.86,0.52
0.33,-0.88,0.44
0.41,-0.82,0.37
0.62,-0.69,0.47
0.54,-0.75,0.45
0.44,-0.79,0.38
0.41,-0.82,0.4
0.5,-0.78,0.5
0.62,-0.7,0.5
0.79,-0.66,0.41
0.87,-0.73,0.07
0.54,-0.79,0.19
0.41,-0.74,0.46
0.65,-0.72,0.39
0.64,-0.72,0.44
0.54,-0.75,0.42
0.52,-0.76,0.44
0.53,-0.75,0.46
0.54,-0.75,0.43
0.56,-0.74,0.4
0.63,-0.71,0.41
0.63,-0.69,0.44
0.6,-0.71,0.47
0.59,-0.71,0.46
0.57,-0.72,0.45
0.55,-0.74,0.45
0.57,-0.73,0.44
0.61,-0.7,0.43
0.62,-0.7,0.44
0.59,-0.72,0.43
0.6,-0.72,0.43
0.6,-0.71,0.44
0.61,-0.71,0.42
0.61,-0.71,0.42
0.58,-0.71,0.45
0.56,-0.72,0.47
0.58,-0.73,0.47
0.59,-0.73,0.44
0.59,-0.73,0.4
0.6,-0.72,0.38
0.6,-0.72,0.39
0.59,-0.72,0.43
0.59,-0.72,0.44
0.59,-0.72,0.44
0.58,-0.73,0.43
0.58,-0.73,0.42
0.58,-0.72,0.4
0.58,-0.72,0.39
0.59,-0.72,0.43
0.57,-0.72,0.44
0.57,-0.73,0.44
0.58,-0.74,0.45
0.58,-0.73,0.44
0.58,-0.73,0.4
0.58,-0.73,0.37
0.59,-0.73,0.43
0.58,-0.72,0.45
0.57,-0.73,0.44
0.56,-0.73,0.43
0.56,-0.74,0.43
0.58,-0.73,0.42
0.59,-0.73,0.41
0.57,-0.74,0.39
0.57,-0.75,0.39
0.58,-0.74,0.41
0.59,-0.73,0.41
0.6,-0.72,0.41
0.59,-0.72,0.43
0.58,-0.73,0.42
0.59,-0.73,0.41
0.6,-0.72,0.42
0.59,-0.72,0.39
0.57,-0.73,0.37
0.57,-0.74,0.42
0.58,-0.73,0.44
0.6,-0.72,0.43
0.61,-0.72,0.42
0.59,-0.72,0.43
0.58,-0.73,0.42
0.58,-0.73,0.41
0.58,-0.73,0.42
0.58,-0.73,0.41
0.59,-0.73,0.41
0.59,-0.73,0.42
0.58,-0.73,0.42
0.57,-0.74,0.42
0.58,-0.74,0.42
0.59,-0.74,0.41
0.58,-0.74,0.4
0.58,-0.74,0.39
0.58,-0.74,0.4
0.58,-0.74,0.4
0.58,-0.74,0.4
0.58,-0.73,0.41
0.58,-0.74,0.42
0.58,-0.74,0.42
0.58,-0.73,0.4
0.58,-0.74,0.4
0.59,-0.74,0.41
0.59,-0.73,0.4
0.58,-0.74,0.4
0.58,-0.73,0.41
0.58,-0.73,0.41
0.58,-0.73,0.41
0.58,-0.74,0.41
0.58,-0.73,0.41
0.58,-0.73,0.4
0.58,-0.74,0.41
0.58,-0.73,0.41
0.58,-0.73,0.41
0.59,-0.73,0.42
0.59,-0.73,0.42
0.59,-0.73,0.41
0.59,-0.73,0.4
0.59,-0.73,0.41
0.6,-0.73,0.4
0.59,-0.73,0.4
0.59,-0.74,0.4
0.59,-0.74,0.39
0.59,-0.74,0.39
0.59,-0.73,0.39
0.59,-0.74,0.4
0.59,-0.74,0.4
0.59,-0.73,0.4
0.59,-0.74,0.39
0.58,-0.74,0.4
0.59,-0.74,0.39
0.59,-0.74,0.39
0.6,-0.73,0.39
0.6,-0.73,0.39
0.59,-0.74,0.39
0.59,-0.74,0.4
0.59,-0.73,0.4
0.59,-0.73,0.39
0.58,-0.74,0.4
0.59,-0.73,0.4
0.6,-0.73,0.4
0.61,-0.73,0.4
0.61,-0.73,0.41
0.59,-0.72,0.4
0.6,-0.73,0.4
0.6,-0.72,0.39
0.6,-0.73,0.39
0.6,-0.73,0.41
0.59,-0.73,0.42
0.59,-0.73,0.41
0.61,-0.73,0.41
0.61,-0.72,0.41
0.61,-0.72,0.4
0.61,-0.73,0.4
0.6,-0.73,0.39
0.59,-0.74,0.38
0.59,-0.74,0.39
0.6,-0.73,0.42
0.6,-0.72,0.41
0.6,-0.72,0.39
0.6,-0.73,0.41
0.61,-0.72,0.4
0.6,-0.73,0.39
0.59,-0.73,0.4
0.59,-0.73,0.39
0.58,-0.74,0.38
0.59,-0.74,0.39
0.6,-0.73,0.4
0.6,-0.72,0.39
0.6,-0.73,0.4
0.59,-0.73,0.4
0.59,-0.73,0.4
0.6,-0.73,0.4
0.6,-0.73,0.4
0.6,-0.73,0.4
0.59,-0.73,0.4
0.59,-0.73,0.4
0.6,-0.72,0.41
0.6,-0.72,0.41
0.6,-0.73,0.4
0.6,-0.73,0.41
0.6,-0.72,0.41
0.6,-0.72,0.4
0.59,-0.72,0.41
0.6,-0.72,0.42
0.6,-0.72,0.41
0.6,-0.72,0.4
0.6,-0.73,0.41
0.6,-0.73,0.41
0.6,-0.72,0.41
0.61,-0.72,0.41
0.6,-0.72,0.41
0.6,-0.72,0.41
0.6,-0.72,0.41
0.6,-0.72,0.41
0.6,-0.72,0.41
0.6,-0.72,0.41
0.59,-0.72,0.4
0.59,-0.72,0.41
0.6,-0.72,0.43
0.6,-0.72,0.42
0.6,-0.72,0.41
0.6,-0.72,0.4
0.6,-0.72,0.39
0.6,-0.72,0.4
0.61,-0.73,0.41
0.6,-0.73,0.39
0.59,-0.73,0.4
0.6,-0.73,0.41
0.6,-0.72,0.4
0.59,-0.73,0.39
0.59,-0.73,0.39
0.6,-0.72,0.4
0.6,-0.72,0.4
0.6,-0.73,0.4
0.6,-0.73,0.41
0.59,-0.73,0.39
0.59,-0.73,0.4
0.6,-0.72,0.41
0.61,-0.72,0.4
0.61,-0.72,0.4
0.6,-0.73,0.39
0.59,-0.74,0.39
0.6,-0.73,0.4
0.59,-0.73,0.4
0.59,-0.73,0.39
0.59,-0.73,0.39
0.59,-0.73,0.39
0.6,-0.73,0.41
0.6,-0.73,0.41
0.6,-0.73,0.39
0.6,-0.73,0.38
0.6,-0.74,0.39
0.6,-0.73,0.39
0.6,-0.73,0.38
0.59,-0.73,0.38
0.59,-0.74,0.39
0.6,-0.73,0.4
0.6,-0.73,0.4
0.6,-0.73,0.4
0.59,-0.73,0.4
0.59,-0.73,0.39
0.59,-0.73,0.39
0.6,-0.73,0.4
0.6,-0.72,0.4
0.59,-0.73,0.39
0.59,-0.73,0.4
0.6,-0.73,0.4
0.6,-0.72,0.41
0.6,-0.72,0.4
0.6,-0.73,0.4
0.6,-0.73,0.39
0.6,-0.73,0.39
0.6,-0.73,0.4
0.61,-0.72,0.4
0.6,-0.73,0.4
0.6,-0.73,0.39
0.6,-0.73,0.4
0.6,-0.73,0.4
0.6,-0.73,0.39
0.6,-0.73,0.4
0.61,-0.73,0.4
0.6,-0.73,0.4
0.6,-0.74,0.39
0.6,-0.73,0.38
0.6,-0.73,0.38
0.61,-0.73,0.4
0.61,-0.72,0.4
0.6,-0.73,0.39
0.61,-0.73,0.4
0.6,-0.73,0.39
0.6,-0.73,0.39
0.61,-0.73,0.4
0.6,-0.73,0.39
0.6,-0.73,0.38
0.6,-0.73,0.39
0.6,-0.73,0.4
0.6,-0.73,0.39
0.6,-0.73,0.4
0.6,-0.73,0.4
0.6,-0.73,0.38
0.6,-0.74,0.38
0.6,-0.73,0.38
0.61,-0.73,0.38
0.62,-0.73,0.37
0.61,-0.73,0.38
0.6,-0.74,0.38
0.59,-0.74,0.38
0.58,-0.74,0.38
0.6,-0.74,0.38
0.61,-0.73,0.4
0.62,-0.72,0.4
0.61,-0.72,0.4
0.6,-0.72,0.4
0.6,-0.73,0.4
0.61,-0.73,0.4
0.61,-0.73,0.39
0.61,-0.73,0.38
0.61,-0.73,0.38
0.61,-0.73,0.38
0.61,-0.73,0.37
0.6,-0.74,0.35
0.61,-0.74,0.37
0.61,-0.73,0.39
0.62,-0.73,0.38
0.61,-0.73,0.37
0.61,-0.74,0.37
0.6,-0.74,0.36
0.61,-0.74,0.35
0.61,-0.75,0.35
0.6,-0.75,0.33
0.59,-0.76,0.33
0.6,-0.75,0.35
0.61,-0.74,0.36
0.6,-0.74,0.35
0.6,-0.75,0.34
0.59,-0.76,0.33
0.59,-0.76,0.33
0.6,-0.75,0.35
0.61,-0.74,0.37
0.62,-0.73,0.36
0.6,-0.74,0.36
0.6,-0.74,0.36
0.6,-0.74,0.36
0.61,-0.74,0.35
0.61,-0.74,0.36
0.61,-0.74,0.36
0.61,-0.74,0.37
0.6,-0.74,0.35
0.59,-0.74,0.34
0.6,-0.74,0.36
0.61,-0.73,0.38
0.61,-0.73,0.38
0.61,-0.74,0.37
0.6,-0.74,0.35
0.6,-0.75,0.35
0.61,-0.74,0.36
0.61,-0.74,0.35
0.61,-0.74,0.35
0.61,-0.74,0.36
0.61,-0.73,0.36
0.6,-0.74,0.36
0.6,-0.74,0.37
0.6,-0.74,0.35
0.6,-0.74,0.34
0.6,-0.74,0.35
0.61,-0.74,0.37
0.62,-0.73,0.38
0.61,-0.73,0.38
0.6,-0.74,0.36
0.61,-0.74,0.38
0.62,-0.73,0.39
0.62,-0.72,0.38
0.61,-0.73,0.36
0.61,-0.74,0.36
0.61,-0.73,0.39
0.61,-0.72,0.39
0.62,-0.73,0.38
0.62,-0.74,0.38
0.6,-0.74,0.35
0.61,-0.74,0.34
0.61,-0.75,0.35
0.61,-0.74,0.36
0.62,-0.74,0.37
0.61,-0.73,0.37
0.6,-0.74,0.36
0.59,-0.75,0.35
0.6,-0.75,0.35
0.61,-0.74,0.36
0.62,-0.74,0.37
0.62,-0.73,0.36
0.61,-0.74,0.36
0.61,-0.74,0.37
0.61,-0.74,0.37
0.61,-0.74,0.37
0.6,-0.74,0.35
0.6,-0.75,0.35
0.61,-0.75,0.35
0.61,-0.74,0.35
0.61,-0.74,0.36
0.62,-0.74,0.37
0.61,-0.74,0.36
0.61,-0.74,0.35
0.6,-0.75,0.36
0.6,-0.74,0.37
0.61,-0.74,0.36
0.62,-0.74,0.37
0.61,-0.74,0.38
0.61,-0.74,0.37
0.62,-0.74,0.36
0.61,-0.74,0.36
0.6,-0.74,0.35
0.61,-0.74,0.35
0.62,-0.74,0.36
0.6,-0.74,0.34
0.6,-0.73,0.34
0.62,-0.74,0.37
0.61,-0.74,0.38
0.61,-0.74,0.38
0.62,-0.74,0.38
0.6,-0.74,0.36
0.6,-0.75,0.35
0.59,-0.75,0.33
0.58,-0.74,0.32
0.62,-0.74,0.34
0.63,-0.75,0.36
0.6,-0.75,0.36
0.61,-0.75,0.36
0.61,-0.75,0.36
0.6,-0.74,0.36
0.58,-0.74,0.37
0.57,-0.75,0.37
0.56,-0.75,0.36
0.57,-0.76,0.35
0.58,-0.76,0.33
0.59,-0.75,0.3
0.62,-0.76,0.31
0.62,-0.76,0.32
0.6,-0.76,0.34
0.6,-0.76,0.35
0.6,-0.75,0.35
0.6,-0.75,0.34
0.6,-0.75,0.33
0.6,-0.75,0.32
0.6,-0.76,0.33
0.59,-0.75,0.37
0.61,-0.75,0.37
0.61,-0.74,0.37
0.61,-0.74,0.36
0.6,-0.75,0.36
0.58,-0.76,0.36
0.58,-0.76,0.34
0.6,-0.75,0.34
0.61,-0.75,0.35
0.62,-0.74,0.36
0.62,-0.74,0.36
0.62,-0.74,0.37
0.61,-0.74,0.39
0.6,-0.74,0.39
0.6,-0.74,0.39
0.6,-0.74,0.38
0.59,-0.74,0.37
0.58,-0.74,0.36
0.59,-0.75,0.38
0.61,-0.75,0.37
0.6,-0.74,0.36
0.6,-0.74,0.36
0.61,-0.74,0.37
0.6,-0.74,0.37
0.6,-0.75,0.36
0.59,-0.75,0.36
0.6,-0.74,0.36
0.6,-0.74,0.36
0.6,-0.74,0.36
0.61,-0.74,0.37
0.61,-0.73,0.38
0.61,-0.74,0.38
0.61,-0.74,0.37
0.6,-0.75,0.37
0.61,-0.75,0.36
0.61,-0.74,0.37
0.61,-0.74,0.37
0.6,-0.74,0.37
0.61,-0.74,0.38
0.61,-0.74,0.39
0.59,-0.74,0.38
0.58,-0.74,0.38
0.59,-0.74,0.39
0.6,-0.75,0.38
0.59,-0.75,0.37
0.59,-0.75,0.37
0.58,-0.75,0.37
0.58,-0.76,0.37
0.57,-0.76,0.35
0.56,-0.75,0.36
0.58,-0.75,0.39
0.58,-0.76,0.39
0.58,-0.76,0.38
0.58,-0.76,0.38
0.58,-0.76,0.37
0.57,-0.76,0.38
0.56,-0.76,0.37
0.55,-0.76,0.38
0.57,-0.77,0.39
0.57,-0.77,0.38
0.56,-0.76,0.37
0.57,-0.77,0.38
0.57,-0.77,0.38
0.56,-0.77,0.38
0.54,-0.77,0.38
0.53,-0.77,0.39
0.53,-0.77,0.39
0.53,-0.77,0.39
0.53,-0.77,0.39
0.53,-0.78,0.39
0.52,-0.78,0.39
0.52,-0.79,0.39
0.51,-0.78,0.38
0.52,-0.78,0.38
0.54,-0.78,0.38
0.54,-0.77,0.39
0.54,-0.76,0.39
0.55,-0.76,0.4
0.53,-0.76,0.4
0.55,-0.76,0.42
0.55,-0.76,0.42
0.55,-0.76,0.42
0.57,-0.75,0.43
0.57,-0.75,0.43
0.56,-0.75,0.43
0.55,-0.75,0.45
0.55,-0.75,0.45
0.55,-0.75,0.44
0.55,-0.74,0.44
0.55,-0.74,0.44
0.54,-0.74,0.44
0.54,-0.74,0.45
0.55,-0.74,0.45
0.55,-0.74,0.44
0.55,-0.74,0.44
0.54,-0.74,0.44
0.54,-0.75,0.43
0.54,-0.74,0.43
0.55,-0.73,0.43
0.56,-0.73,0.43
0.56,-0.73,0.42
0.56,-0.74,0.42
0.56,-0.74,0.43
0.56,-0.74,0.44
0.57,-0.74,0.45
0.56,-0.72,0.45
0.57,-0.72,0.45
0.56,-0.72,0.45
0.56,-0.72,0.46
0.56,-0.72,0.46
0.56,-0.72,0.46
0.57,-0.72,0.46
0.57,-0.72,0.46
0.57,-0.71,0.45
0.58,-0.71,0.46
0.57,-0.71,0.46
0.57,-0.71,0.47
0.57,-0.72,0.46
0.56,-0.71,0.46
0.56,-0.71,0.46
0.58,-0.71,0.47
0.58,-0.72,0.46
0.57,-0.71,0.46
0.58,-0.71,0.46
0.57,-0.71,0.46
0.56,-0.71,0.46
0.56,-0.71,0.46
0.57,-0.71,0.47
0.57,-0.71,0.47
0.58,-0.71,0.47
0.58,-0.7,0.47
0.58,-0.7,0.48
0.58,-0.7,0.48
0.57,-0.7,0.47
0.57,-0.7,0.48
0.58,-0.7,0.48
0.58,-0.7,0.48
0.58,-0.7,0.48
0.58,-0.7,0.48
0.58,-0.69,0.48
0.58,-0.69,0.49
0.58,-0.69,0.49
0.57,-0.69,0.48
0.57,-0.69,0.48
0.58,-0.69,0.49
0.58,-0.69,0.49
0.58,-0.68,0.48
0.59,-0.68,0.49
0.58,-0.68,0.49
0.57,-0.68,0.5
0.58,-0.68,0.49
0.58,-0.68,0.49
0.58,-0.68,0.5
0.59,-0.68,0.5
0.59,-0.67,0.5
0.59,-0.67,0.5
0.6,-0.66,0.5
0.59,-0.67,0.5
0.59,-0.66,0.51
0.6,-0.66,0.51
0.6,-0.66,0.51
0.6,-0.65,0.51
0.6,-0.65,0.51
0.6,-0.65,0.51
0.6,-0.65,0.51
0.6,-0.65,0.51
0.6,-0.65,0.52
0.61,-0.66,0.5
0.6,-0.65,0.5
0.61,-0.64,0.51
0.61,-0.64,0.52
0.6,-0.65,0.52
0.59,-0.65,0.52
0.6,-0.65,0.52
0.6,-0.65,0.51
0.59,-0.65,0.51
0.6,-0.64,0.51
0.6,-0.65,0.51
0.6,-0.64,0.52
0.6,-0.64,0.52
0.61,-0.63,0.52
0.61,-0.62,0.53
0.61,-0.62,0.54
0.6,-0.63,0.54
0.6,-0.62,0.54
0.6,-0.62,0.54
0.61,-0.61,0.54
0.62,-0.6,0.55
0.63,-0.59,0.55
0.63,-0.59,0.54
0.64,-0.6,0.55
0.63,-0.6,0.56
0.61,-0.6,0.57
0.61,-0.6,0.56
0.61,-0.6,0.56
0.61,-0.59,0.56
0.62,-0.59,0.56
0.62,-0.6,0.56
0.62,-0.6,0.56
0.61,-0.6,0.56
0.61,-0.59,0.57
0.62,-0.6,0.57
0.61,-0.6,0.57
0.61,-0.6,0.57
0.61,-0.6,0.57
0.61,-0.6,0.57
0.61,-0.59,0.57
0.6,-0.59,0.57
0.59,-0.59,0.57
0.6,-0.59,0.57
0.61,-0.59,0.58
0.61,-0.58,0.58
0.61,-0.58,0.58
0.61,-0.58,0.59
0.6,-0.58,0.59
0.59,-0.57,0.59
0.61,-0.57,0.6
0.63,-0.57,0.61
0.62,-0.56,0.59
0.61,-0.56,0.6
0.6,-0.56,0.6
0.6,-0.56,0.6
0.6,-0.57,0.61
0.59,-0.57,0.62
0.6,-0.57,0.6
0.6,-0.57,0.6
0.6,-0.57,0.61
0.61,-0.56,0.61
0.61,-0.56,0.6
0.62,-0.55,0.6
0.61,-0.55,0.61
0.6,-0.56,0.62
0.6,-0.55,0.61
0.6,-0.54,0.62
0.6,-0.54,0.61
0.6,-0.54,0.6
0.61,-0.55,0.6
0.61,-0.55,0.61
0.61,-0.54,0.61
0.61,-0.54,0.61
0.6,-0.54,0.61
0.6,-0.54,0.62
0.61,-0.54,0.62
0.61,-0.54,0.61
0.61,-0.53,0.62
0.62,-0.54,0.61
0.61,-0.53,0.61
0.61,-0.53,0.62
0.61,-0.52,0.62
0.62,-0.53,0.62
0.61,-0.53,0.62
0.62,-0.52,0.63
0.63,-0.52,0.62
0.62,-0.51,0.62
0.62,-0.5,0.63
0.63,-0.5,0.63
0.63,-0.5,0.63
0.62,-0.5,0.64
0.63,-0.5,0.64
0.63,-0.51,0.63
0.62,-0.5,0.63
0.63,-0.48,0.64
0.65,-0.48,0.63
0.65,-0.49,0.63
0.64,-0.49,0.63
0.63,-0.5,0.63
0.64,-0.5,0.63
0.63,-0.5,0.63
0.63,-0.5,0.63
0.63,-0.49,0.63
0.63,-0.48,0.64
0.65,-0.48,0.64
0.65,-0.48,0.63
0.64,-0.5,0.63
0.63,-0.5,0.63
0.62,-0.51,0.62
0.62,-0.5,0.62
0.64,-0.49,0.62
0.64,-0.49,0.62
0.65,-0.47,0.63
0.66,-0.47,0.63
0.64,-0.48,0.64
0.64,-0.49,0.64
0.63,-0.5,0.64
0.63,-0.5,0.64
0.63,-0.5,0.64
0.64,-0.49,0.64
0.64,-0.49,0.63
0.65,-0.48,0.63
0.64,-0.48,0.63
0.63,-0.49,0.63
0.63,-0.49,0.63
0.64,-0.48,0.63
0.64,-0.47,0.62
0.63,-0.46,0.62
0.64,-0.45,0.64
0.65,-0.46,0.65
0.64,-0.47,0.65
0.63,-0.48,0.66
0.63,-0.48,0.66
0.63,-0.48,0.66
0.64,-0.48,0.65
0.64,-0.48,0.65
0.65,-0.47,0.65
0.65,-0.47,0.65
0.66,-0.47,0.65
0.66,-0.46,0.65
0.67,-0.47,0.65
0.66,-0.48,0.65
0.65,-0.47,0.64
0.65,-0.47,0.64
0.64,-0.47,0.64
0.64,-0.47,0.65
0.63,-0.47,0.65
0.62,-0.49,0.66
0.61,-0.5,0.67
0.62,-0.51,0.67
0.62,-0.5,0.66
0.63,-0.5,0.66
0.64,-0.49,0.69
0.63,-0.49,0.68
0.62,-0.5,0.66
0.62,-0.51,0.63
0.62,-0.52,0.63
0.63,-0.54,0.66
0.63,-0.53,0.66
0.64,-0.56,0.66
0.64,-0.58,0.65
0.6,-0.55,0.71
0.58,-0.53,0.79
0.62,-0.51,0.75
0.66,-0.52,0.7
0.71,-0.54,0.71
0.75,-0.6,0.73
0.71,-0.7,0.73
0.58,-0.71,0.74
0.56,-0.71,0.68
0.67,-0.99,0.62
0.73,-0.97,0.33
0.66,-0.77,0.43
0.59,-0.85,0.46
0.57,-0.83,0.51
0.59,-0.81,0.54
0.62,-0.81,0.55
0.65,-0.81,0.56
0.69,-0.8,0.56
0.7,-0.8,0.56
0.7,-0.8,0.55
0.7,-0.78,0.55
0.7,-0.75,0.56
0.71,-0.73,0.57
0.71,-0.71,0.58
0.71,-0.7,0.59
0.72,-0.69,0.59
0.72,-0.69,0.59
0.74,-0.69,0.58
0.76,-0.7,0.55
0.78,-0.7,0.52
0.8,-0.7,0.5
0.81,-0.69,0.5
0.81,-0.69,0.51
0.78,-0.7,0.52
0.75,-0.69,0.53
0.75,-0.67,0.53
0.74,-0.67,0.52
0.74,-0.69,0.47
0.74,-0.69,0.44
0.75,-0.68,0.41
0.75,-0.67,0.4
0.75,-0.67,0.41
0.74,-0.67,0.42
0.73,-0.67,0.43
0.73,-0.67,0.44
0.72,-0.66,0.46
0.7,-0.65,0.44
0.68,-0.63,0.42
0.68,-0.61,0.4
0.68,-0.6,0.39
0.67,-0.58,0.37
0.68,-0.57,0.36
0.7,-0.55,0.35
0.71,-0.54,0.36
0.74,-0.53,0.37
0.75,-0.52,0.39
0.75,-0.51,0.41
0.74,-0.49,0.43
0.73,-0.47,0.43
0.75,-0.45,0.43
0.78,-0.44,0.43
0.81,-0.42,0.43
0.83,-0.4,0.44
0.84,-0.39,0.44
0.9,-0.37,0.44
0.9,-0.35,0.43
0.93,-0.31,0.43
0.96,-0.28,0.44
0.97,-0.29,0.47
0.99,-0.31,0.51
1,-0.31,0.53
0.99,-0.28,0.52
0.96,-0.24,0.5
0.94,-0.21,0.47
0.94,-0.18,0.46
0.95,-0.16,0.45
0.97,-0.16,0.45
0.96,-0.16,0.45
0.93,-0.14,0.45
0.91,-0.12,0.44
0.89,-0.11,0.42
0.87,-0.09,0.4
0.86,-0.08,0.39
0.86,-0.06,0.39
0.87,-0.05,0.39
0.88,-0.06,0.4
0.88,-0.06,0.41
0.88,-0.07,0.42
0.9,-0.07,0.41
0.91,-0.06,0.39
0.9,-0.06,0.36
0.91,-0.07,0.39
0.84,-0.14,0.41
0.87,-0.14,0.38
0.93,-0.11,0.35
0.93,-0.09,0.34
0.91,-0.1,0.36
0.91,-0.11,0.36
0.91,-0.11,0.37
0.93,-0.1,0.38
0.95,-0.09,0.38
0.96,-0.1,0.39
0.96,-0.11,0.4
0.93,-0.11,0.4
0.91,-0.1,0.41
0.94,-0.09,0.43
1.02,-0.07,0.44
1.09,-0.04,0.43
1.16,-0.03,0.43
1.1,-0.05,0.45
0.99,-0.06,0.46
1.03,-0.02,0.42
1.06,0.01,0.35
0.97,0.02,0.32
0.92,0.03,0.34
0.93,0.03,0.35
0.96,0.09,0.32
0.95,0.12,0.31
0.89,0.12,0.3
0.83,0.13,0.3
0.83,0.15,0.3
0.85,0.16,0.3
0.83,0.17,0.3
0.79,0.19,0.29
0.73,0.2,0.27
0.62,0.23,0.26
0.53,0.26,0.26
0.54,0.28,0.25
0.59,0.29,0.26
0.63,0.31,0.28
0.68,0.32,0.27
0.72,0.32,0.25
0.74,0.32,0.23
0.74,0.33,0.21
0.71,0.34,0.21
0.65,0.36,0.21
0.56,0.37,0.22
0.5,0.38,0.25
0.46,0.38,0.28
0.48,0.39,0.32
0.56,0.39,0.37
0.53,0.39,0.38
0.55,0.46,0.47
0.48,0.44,0.51
0.44,0.42,0.57
0.36,0.44,0.64
0.45,0.41,0.72
0.6,0.45,0.83
0.59,0.47,0.92
0.58,0.41,1.05
0.6,0.39,1.17
0.64,0.42,1.25
0.74,0.22,1.23
0.73,0.05,1.16
0.42,0.08,1.03
0.19,0.2,0.83
0.19,0.36,0.67
0.18,0.37,0.6
0.21,0.46,0.62
0.28,0.51,0.7
0.32,0.49,0.78
0.33,0.5,0.87
0.36,0.44,0.94
0.38,0.39,0.94
0.36,0.37,0.92
0.31,0.36,0.89
0.28,0.36,0.86
0.29,0.36,0.85
0.31,0.36,0.89
0.28,0.37,0.92
0.29,0.39,0.96
0.3,0.4,0.99
0.28,0.39,1
0.26,0.37,1
0.28,0.36,0.99
0.29,0.35,0.99
0.27,0.35,0.98
0.22,0.36,0.94
0.19,0.35,0.91
0.21,0.34,0.9
0.23,0.34,0.91
0.26,0.33,0.94
0.31,0.32,0.95
0.36,0.31,0.93
0.38,0.31,0.89
0.39,0.3,0.85
0.39,0.29,0.86
0.4,0.27,0.89
0.4,0.25,0.92
0.39,0.24,0.95
0.4,0.24,0.95
0.39,0.25,0.94
0.35,0.27,0.91
0.31,0.27,0.87
0.3,0.27,0.88
0.37,0.28,0.9
0.38,0.27,0.91
0.37,0.26,0.92
0.37,0.25,0.91
0.37,0.24,0.9
0.35,0.24,0.88
0.36,0.23,0.88
0.37,0.23,0.89
0.39,0.24,0.9
0.39,0.24,0.93
0.39,0.24,0.95
0.38,0.23,0.96
0.36,0.22,0.96
0.36,0.21,0.95
0.35,0.21,0.93
0.36,0.21,0.92
0.38,0.22,0.9
0.4,0.22,0.89
0.4,0.23,0.89
0.38,0.24,0.88
0.37,0.24,0.88
0.35,0.24,0.87
0.34,0.24,0.89
0.35,0.23,0.91
0.35,0.21,0.92
0.36,0.21,0.93
0.37,0.21,0.92
0.36,0.21,0.9
0.32,0.22,0.88
0.32,0.24,0.88
0.35,0.23,0.88
0.39,0.22,0.88
0.44,0.22,0.89
0.48,0.21,0.9
0.5,0.21,0.92
0.5,0.21,0.92
0.47,0.21,0.92
0.42,0.21,0.91
0.4,0.21,0.91
0.38,0.21,0.91
0.37,0.22,0.9
0.38,0.22,0.9
0.38,0.22,0.9
0.38,0.22,0.89
0.37,0.22,0.89
0.37,0.23,0.89
