Acc_x,Acc_y,Acc_z
0.03,-0.94,-0.14
0.04,-0.93,-0.12
0.05,-0.93,-0.09
0.06,-0.94,-0.07
0.06,-0.94,-0.06
0.07,-0.95,-0.05
0.07,-0.98,-0.05
0.08,-1,-0.05
0.06,-1.03,-0.05
0.05,-1.06,-0.04
0.06,-1.09,-0.03
0.06,-1.14,-0.04
0.08,-1.19,-0.04
0.08,-1.24,-0.06
0.08,-1.28,-0.06
0.1,-1.28,-0.05
0.11,-1.22,-0.02
0.12,-1.12,0.02
0.13,-1.05,0.04
0.15,-0.98,0.06
0.16,-0.91,0.08
0.17,-0.83,0.11
0.16,-0.79,0.11
0.15,-0.8,0.11
0.15,-0.86,0.09
0.15,-0.95,0.07
0.16,-1.04,0.06
0.16,-1.13,0.05
0.16,-1.23,0.05
0.17,-1.29,0.06
0.19,-1.34,0.06
0.19,-1.28,0.07
0.22,-1.19,0.08
0.25,-1.12,0.09
0.28,-1.05,0.1
0.3,-0.99,0.11
0.34,-0.95,0.1
0.37,-0.9,0.09
0.35,-0.85,0.1
0.32,-0.81,0.11
0.29,-0.79,0.11
0.28,-0.78,0.11
0.27,-0.77,0.12
0.28,-0.77,0.12
0.3,-0.77,0.12
0.31,-0.78,0.11
0.32,-0.79,0.1
0.32,-0.8,0.1
0.33,-0.83,0.09
0.34,-0.85,0.09
0.34,-0.88,0.09
0.35,-0.9,0.12
0.37,-0.91,0.15
0.41,-0.93,0.16
0.45,-0.94,0.16
0.48,-0.94,0.17
0.5,-0.95,0.21
0.55,-0.96,0.23
0.54,-0.96,0.17
0.53,-1,0.05
0.5,-1.06,-0.02
0.49,-1.13,-0.06
0.52,-1.18,-0.08
0.55,-1.22,-0.1
0.61,-1.3,-0.15
0.64,-1.36,-0.21
0.6,-1.34,-0.2
0.52,-1.22,-0.15
0.42,-1.07,-0.11
0.31,-0.98,-0.07
0.24,-0.94,-0.03
0.2,-0.93,0
0.16,-0.94,0
0.1,-0.97,-0.02
0.09,-1.02,-0.04
0.11,-1.1,-0.07
0.1,-1.19,-0.12
0.07,-1.24,-0.18
0.05,-1.24,-0.22
0.03,-1.2,-0.24
0.02,-1.13,-0.24
0.01,-1.04,-0.22
0,-0.93,-0.11
0.03,-0.75,-0.06
0.05,-0.75,-0.03
0.07,-0.79,-0.01
0.11,-0.85,-0.01
0.14,-0.91,-0.04
0.17,-0.97,-0.06
0.18,-1.01,-0.07
0.18,-1.02,-0.08
0.18,-1.02,-0.08
0.18,-0.99,-0.06
0.18,-0.97,-0.05
0.19,-0.96,-0.03
0.21,-0.95,-0.03
0.22,-0.93,-0.01
0.22,-0.9,0.04
0.24,-0.88,0.08
0.26,-0.87,0.09
0.29,-0.88,0.08
0.33,-0.9,0.07
0.37,-0.91,0.06
0.42,-0.91,0.09
0.5,-0.91,0.17
0.61,-0.91,0.28
0.73,-0.91,0.34
0.76,-0.94,0.36
0.82,-0.95,0.3
1.16,-0.85,0.42
1.27,-0.98,0.52
1.48,-1.05,0.46
1.68,-0.98,0.43
1.8,-1.01,0.44
1.96,-1.09,0.45
2.15,-1.19,0.5
2.25,-1.29,0.55
2.26,-1.32,0.53
2.24,-1.33,0.45
2.26,-1.35,0.37
2.31,-1.37,0.3
2.36,-1.42,0.25
2.37,-1.5,0.2
2.35,-1.62,0.16
2.37,-1.71,0.12
2.39,-1.7,0.06
2.36,-1.59,0.06
2.29,-1.43,0.14
2.2,-1.31,0.2
2.1,-1.23,0.18
1.99,-1.18,0.1
1.91,-1.14,-0.01
1.83,-1.09,-0.1
1.75,-1.01,-0.13
1.69,-0.93,-0.19
1.59,-0.85,-0.2
1.52,-0.82,-0.18
1.46,-0.77,-0.12
1.39,-0.68,-0.09
1.34,-0.59,-0.14
1.26,-0.59,-0.25
1.16,-0.58,-0.31
1.09,-0.62,-0.33
1.04,-0.72,-0.38
0.97,-0.65,-0.36
0.9,-0.57,-0.38
0.87,-0.54,-0.44
0.88,-0.15,-0.38
0.76,-0.37,-0.37
0.81,-0.55,-0.5
0.98,-0.17,-0.55
0.72,-0.59,-0.37
0.44,-1.01,-0.37
0.43,-0.73,-0.39
0.4,-0.44,-0.26
0.37,-0.53,-0.3
0.27,-0.56,-0.21
0.16,-0.49,-0.09
0.15,-0.38,-0.06
0.01,-0.35,-0.03
-0.11,-0.35,0.05
-0.26,-0.27,0.19
-0.33,-0.19,0.33
-0.42,-0.11,0.25
-0.53,-0.04,0.27
-0.61,0.12,0.34
-0.63,0.25,0.34
-0.7,0.29,0.33
-0.76,0.27,0.43
-0.8,0.26,0.45
-0.85,0.31,0.42
-0.86,0.39,0.48
-0.91,0.45,0.46
-0.94,0.52,0.46
-0.96,0.61,0.48
-0.97,0.64,0.47
-0.96,0.66,0.42
-0.94,0.69,0.39
-0.91,0.69,0.37
-0.87,0.68,0.37
-0.85,0.67,0.38
-0.82,0.67,0.38
-0.78,0.66,0.38
-0.73,0.64,0.36
-0.66,0.63,0.33
-0.62,0.63,0.31
-0.59,0.63,0.3
-0.48,0.69,0.27
-0.43,0.76,0.25
-0.37,0.83,0.23
-0.3,0.91,0.23
-0.23,0.96,0.23
-0.18,0.98,0.23
-0.13,0.99,0.23
-0.08,0.99,0.22
-0.03,0.98,0.21
0.01,0.97,0.19
0.06,0.95,0.18
0.09,0.93,0.17
0.11,0.9,0.15
0.14,0.87,0.12
0.17,0.85,0.08
0.2,0.84,0.04
0.2,0.83,0.01
0.21,0.83,-0.03
0.19,0.9,-0.02
0.18,0.99,0.01
0.2,1.05,0.01
0.19,1.12,0.02
0.18,1.17,0.03
0.14,1.19,0.05
0.08,1.19,0.07
0.03,1.17,0.08
-0.04,1.09,0.04
-0.11,1.06,0.04
-0.18,1.07,0.05
-0.25,1.15,0.06
-0.3,1.21,0.09
-0.32,1.23,0.11
-0.29,1.24,0.13
-0.26,1.22,0.14
-0.24,1.18,0.14
-0.21,1.13,0.12
-0.18,1.07,0.12
-0.16,1,0.11
-0.15,0.94,0.12
-0.11,0.89,0.13
-0.05,0.85,0.15
-0.01,0.8,0.17
0.04,0.76,0.18
0.07,0.74,0.18
0.08,0.73,0.18
0.08,0.74,0.19
0.08,0.77,0.19
0.07,0.81,0.2
0.06,0.85,0.21
0.03,0.91,0.22
-0.02,0.96,0.25
-0.09,0.98,0.27
-0.09,1.05,0.25
-0.1,1.06,0.25
-0.11,1.07,0.25
-0.12,1.06,0.26
-0.13,1.05,0.26
-0.14,1.04,0.26
-0.14,1.02,0.26
-0.14,1,0.26
-0.14,0.99,0.25
-0.13,0.99,0.26
-0.12,0.98,0.26
-0.13,0.98,0.27
-0.13,1,0.28
-0.13,1,0.28
-0.13,0.99,0.27
-0.12,0.97,0.26
-0.1,0.92,0.25
-0.1,0.86,0.22
-0.11,0.8,0.19
-0.12,0.76,0.16
-0.13,0.73,0.17
-0.16,0.72,0.19
-0.18,0.75,0.22
-0.18,0.82,0.26
-0.19,0.89,0.28
-0.21,0.97,0.29
-0.21,1.16,0.26
-0.21,1.2,0.24
-0.18,1.24,0.22
-0.13,1.23,0.21
-0.07,1.2,0.21
0,1.14,0.21
0.06,1.06,0.2
0.13,0.98,0.18
0.18,0.9,0.17
0.21,0.83,0.16
0.23,0.77,0.13
0.24,0.73,0.1
0.25,0.71,0.09
0.25,0.72,0.1
0.24,0.73,0.12
0.22,0.75,0.15
0.19,0.78,0.18
0.17,0.83,0.21
0.16,0.89,0.23
0.14,0.95,0.24
0.12,1,0.24
0.11,1.05,0.25
0.11,1.09,0.26
0.13,1.12,0.28
0.15,1.15,0.3
0.17,1.15,0.3
0.2,1.11,0.29
0.26,1.07,0.28
0.27,1.03,0.26
0.28,0.98,0.24
0.28,0.94,0.2
0.3,0.92,0.16
0.3,0.91,0.14
0.28,0.91,0.12
0.26,0.94,0.1
0.25,1,0.1
0.24,1.04,0.09
0.2,1.07,0.09
0.14,1.09,0.09
0.11,1.12,0.09
0.07,1.12,0.07
0.01,1.07,0.06
-0.04,1.01,0.03
-0.07,0.94,0
-0.11,0.87,-0.01
-0.16,0.84,-0.01
-0.21,0.86,0.01
-0.24,0.91,0.04
-0.26,0.97,0.08
-0.29,1.03,0.14
-0.3,1.07,0.18
-0.3,1.09,0.19
-0.3,1.1,0.18
-0.26,1.08,0.18
-0.24,1.07,0.19
-0.21,1.05,0.2
-0.18,1.02,0.2
-0.13,0.97,0.2
-0.08,0.92,0.19
-0.04,0.87,0.18
0.01,0.83,0.16
0.04,0.8,0.16
0.05,0.77,0.15
0.06,0.76,0.14
0.09,0.76,0.13
0.09,0.78,0.12
0.08,0.8,0.12
0.05,0.83,0.12
0.02,0.87,0.13
-0.01,0.91,0.14
-0.04,0.95,0.15
-0.06,0.98,0.16
-0.09,1.01,0.18
-0.12,1.02,0.21
-0.15,1.03,0.24
-0.18,1.03,0.26
-0.19,1.03,0.27
-0.19,1.02,0.27
-0.19,1.01,0.26
-0.17,1,0.26
-0.16,0.97,0.26
-0.14,0.94,0.26
-0.11,0.91,0.25
-0.1,0.89,0.24
-0.09,0.86,0.23
-0.09,0.84,0.22
-0.09,0.82,0.21
-0.12,0.81,0.2
-0.16,0.82,0.21
-0.19,0.86,0.23
-0.19,0.92,0.26
-0.18,0.96,0.27
-0.17,0.96,0.26
-0.19,0.96,0.23
-0.19,0.98,0.2
-0.18,1.01,0.19
-0.16,1.04,0.2
-0.12,1.09,0.21
-0.06,1.15,0.22
0.01,1.19,0.23
0.06,1.2,0.24
0.12,1.21,0.24
0.18,1.18,0.24
0.23,1.13,0.24
0.28,1.06,0.22
0.37,0.87,0.22
0.4,0.79,0.22
0.41,0.72,0.21
0.42,0.67,0.21
0.42,0.64,0.19
0.4,0.64,0.18
0.39,0.65,0.17
0.35,0.68,0.17
0.3,0.73,0.19
0.25,0.78,0.2
0.21,0.83,0.21
0.17,0.89,0.22
0.14,0.95,0.23
0.12,0.99,0.24
0.08,1.02,0.25
0.06,1.05,0.26
0.06,1.07,0.26
0.07,1.07,0.25
0.06,1.04,0.24
0.08,1.01,0.23
0.11,0.98,0.22
0.14,0.95,0.23
0.16,0.91,0.24
0.17,0.89,0.23
0.17,0.87,0.22
0.16,0.87,0.22
0.12,0.94,0.23
0.09,1,0.23
0.06,1.06,0.22
0.02,1.11,0.22
-0.01,1.14,0.22
-0.02,1.15,0.22
-0.07,1.11,0.22
-0.15,1.05,0.21
-0.19,1.02,0.18
-0.21,1,0.16
-0.22,0.99,0.15
-0.22,1.01,0.15
-0.2,1.04,0.17
-0.19,1.07,0.2
-0.18,1.08,0.23
-0.16,1.08,0.24
-0.13,1.07,0.24
-0.08,1.05,0.24
-0.03,1.02,0.24
0,0.98,0.26
0.04,0.93,0.29
0.09,0.88,0.3
0.12,0.84,0.31
0.15,0.81,0.31
0.16,0.8,0.31
0.17,0.81,0.3
0.17,0.84,0.3
0.15,0.86,0.29
0.12,0.88,0.28
0.08,0.9,0.28
0.05,0.93,0.27
0.01,0.96,0.25
-0.02,0.98,0.24
-0.05,0.99,0.23
-0.08,1,0.22
-0.1,1,0.22
-0.11,1,0.22
-0.12,1,0.24
-0.13,1.01,0.24
-0.13,1.01,0.24
-0.12,1.02,0.25
-0.11,1.01,0.26
-0.09,1,0.26
-0.07,0.98,0.27
-0.04,0.96,0.28
-0.02,0.93,0.29
-0.01,0.9,0.3
0.01,0.87,0.3
0.01,0.86,0.3
0.01,0.86,0.31
0,0.86,0.31
-0.01,0.87,0.29
-0.03,0.84,0.28
-0.09,0.81,0.28
-0.15,0.82,0.28
-0.16,0.86,0.29
-0.14,0.9,0.28
-0.12,0.92,0.26
-0.13,0.92,0.24
-0.15,0.91,0.23
-0.14,0.91,0.23
-0.11,0.93,0.25
-0.08,0.96,0.27
-0.06,1,0.28
-0.01,1.05,0.29
0.05,1.09,0.31
0.09,1.12,0.32
0.13,1.11,0.34
0.15,1.08,0.35
0.17,1.02,0.35
0.19,0.96,0.35
0.22,0.91,0.34
0.24,0.85,0.34
0.26,0.81,0.34
0.27,0.78,0.34
0.28,0.76,0.34
0.29,0.75,0.35
0.29,0.75,0.36
0.27,0.79,0.37
0.26,0.81,0.38
0.26,0.84,0.38
0.25,0.87,0.39
0.25,0.9,0.39
0.25,0.92,0.4
0.25,0.94,0.4
0.25,0.95,0.4
0.25,0.96,0.4
0.25,0.96,0.4
0.24,0.96,0.4
0.24,0.96,0.39
0.24,0.96,0.38
0.24,0.95,0.37
0.24,0.94,0.35
0.24,0.93,0.33
0.23,0.91,0.31
0.23,0.89,0.29
0.23,0.88,0.27
0.22,0.86,0.26
0.21,0.86,0.24
0.19,0.87,0.23
0.16,0.89,0.22
0.13,0.94,0.23
0.1,0.99,0.23
0.09,1.03,0.23
0.07,1.06,0.23
-0.02,1.07,0.23
-0.06,1.08,0.23
-0.1,1.08,0.23
-0.12,1.07,0.22
-0.13,1.05,0.2
-0.13,1.02,0.2
-0.14,1,0.21
-0.14,0.99,0.23
-0.13,0.98,0.25
-0.12,0.96,0.27
-0.1,0.95,0.29
-0.07,0.94,0.3
-0.04,0.92,0.31
-0.01,0.9,0.32
0.02,0.88,0.33
0.04,0.87,0.34
0.06,0.87,0.35
0.07,0.86,0.36
0.07,0.86,0.35
0.06,0.86,0.34
0.06,0.86,0.33
0.06,0.86,0.32
0.05,0.87,0.3
0.04,0.88,0.29
0.03,0.89,0.28
0.01,0.92,0.25
-0.03,0.93,0.24
-0.04,0.94,0.22
-0.06,0.94,0.21
-0.08,0.95,0.2
-0.1,0.95,0.2
-0.1,0.95,0.19
-0.11,0.95,0.18
-0.12,0.96,0.18
-0.11,0.97,0.18
-0.11,0.98,0.19
-0.11,1,0.19
-0.1,1.01,0.2
-0.09,1.01,0.2
-0.08,1.01,0.21
-0.07,1,0.21
-0.05,0.99,0.21
-0.04,0.97,0.22
-0.01,0.96,0.23
0.01,0.94,0.24
0.02,0.92,0.24
0.03,0.9,0.24
0.04,0.89,0.24
0.05,0.87,0.23
0.04,0.85,0.23
0.03,0.85,0.24
0.02,0.9,0.27
0.01,0.93,0.28
0,0.96,0.29
0,0.96,0.3
0,0.93,0.29
-0.02,0.88,0.28
-0.05,0.83,0.28
-0.07,0.8,0.27
-0.07,0.84,0.28
-0.06,0.91,0.29
-0.05,0.99,0.31
-0.05,1.07,0.33
-0.04,1.15,0.36
-0.02,1.21,0.37
0,1.24,0.37
0.03,1.23,0.38
0.05,1.21,0.4
0.08,1.18,0.42
0.13,1.13,0.43
0.18,1.09,0.44
0.21,1.04,0.44
0.23,0.99,0.43
0.25,0.95,0.42
0.27,0.91,0.41
0.3,0.88,0.42
0.31,0.86,0.42
0.31,0.84,0.42
0.29,0.81,0.4
0.28,0.79,0.39
0.27,0.78,0.38
0.25,0.77,0.38
0.23,0.77,0.37
0.21,0.78,0.35
0.19,0.8,0.33
0.18,0.81,0.31
0.17,0.82,0.31
0.16,0.82,0.31
0.14,0.82,0.32
0.13,0.83,0.31
0.12,0.83,0.3
0.11,0.83,0.28
0.1,0.83,0.28
0.09,0.82,0.28
0.07,0.81,0.26
0.06,0.81,0.25
0.04,0.81,0.25
0.02,0.81,0.25
0.01,0.81,0.24
-0.01,0.8,0.23
-0.03,0.78,0.22
-0.04,0.75,0.2
-0.06,0.71,0.18
-0.07,0.67,0.15
-0.14,0.56,0.12
-0.16,0.51,0.11
-0.17,0.47,0.11
-0.2,0.42,0.1
-0.24,0.39,0.11
-0.28,0.38,0.11
-0.33,0.36,0.1
-0.36,0.34,0.07
-0.4,0.32,0.04
-0.42,0.29,0
-0.42,0.26,-0.02
-0.42,0.27,0.02
-0.4,0.29,0.06
-0.36,0.3,0.07
-0.31,0.29,0.05
-0.29,0.27,0.06
-0.27,0.2,0
-0.26,0.13,0
-0.28,0.11,0.03
-0.19,0.04,-0.09
-0.13,-0.14,-0.17
-0.09,-0.22,-0.18
-0.04,-0.28,-0.22
0.04,-0.34,-0.2
0.18,-0.47,-0.18
0.27,-0.66,-0.2
0.49,-0.78,-0.2
0.56,-0.86,-0.24
0.61,-0.97,-0.29
0.63,-1.1,-0.33
0.68,-1.23,-0.33
0.8,-1.38,-0.36
0.96,-1.57,-0.38
1.2,-1.75,-0.32
1.57,-1.84,-0.17
1.7,-1.84,-0.06
1.89,-1.83,0.07
2.16,-1.88,0.14
2.01,-1.96,0.04
1.8,-2.02,0.05
1.76,-2.03,0.22
1.85,-2.2,0.45
1.94,-2.44,0.66
1.99,-2.54,0.52
2.18,-2.35,0.46
2.02,-2.02,0.6
1.76,-1.73,0.56
2,-1.98,0.49
2.08,-2.11,0.56
1.91,-1.66,0.73
1.84,-1.49,0.81
1.74,-1.4,0.78
1.4,-1.23,0.77
1.34,-1.22,0.69
1.34,-1.12,0.62
1.32,-1.09,0.58
1.32,-1.12,0.58
1.31,-1.1,0.55
1.27,-1.12,0.39
1.19,-1.16,0.29
1.1,-1.15,0.27
1.02,-1.11,0.23
0.94,-1.03,0.2
0.85,-0.96,0.19
0.77,-0.87,0.2
0.7,-0.8,0.16
0.63,-0.77,0.14
0.56,-0.79,0.16
0.54,-0.89,0.15
0.51,-1.02,0.12
0.45,-1.13,0.1
0.4,-1.2,0.06
0.34,-1.25,0.03
0.28,-1.29,-0.02
0.21,-1.3,-0.06
0.15,-1.24,-0.1
0.12,-1.13,-0.13
0.09,-1.01,-0.1
0.1,-0.85,-0.07
0.11,-0.84,-0.07
0.11,-0.85,-0.09
0.13,-0.85,-0.1
0.11,-0.88,-0.11
0.07,-0.92,-0.12
0.03,-0.93,-0.13
0.01,-0.92,-0.14
0,-0.92,-0.13
-0.02,-0.92,-0.12
-0.03,-0.93,-0.11
-0.04,-0.93,-0.1
-0.03,-0.94,-0.1
-0.03,-0.96,-0.11
-0.03,-0.98,-0.12
-0.02,-0.99,-0.13
-0.01,-1,-0.13
0.01,-1.01,-0.14
0.02,-1.02,-0.14
0.02,-1.03,-0.13
0.02,-1.02,-0.12
0.04,-1.02,-0.1
0.05,-1.02,-0.09
0.06,-1.02,-0.06
0.08,-1.01,-0.03
0.1,-0.99,0.01
0.1,-0.95,0.02
0.09,-0.93,0.03
0.09,-0.93,0.06
0.08,-0.96,0.07
0.05,-1,0.08
0.03,-1.07,0.07
0.03,-1.15,0.06
0.03,-1.22,0.04
0.02,-1.29,0.03
0.03,-1.31,0.01
0.06,-1.28,0.01
0.09,-1.18,0.04
0.12,-1.03,0.08
0.17,-0.91,0.12
0.21,-0.84,0.13
0.23,-0.84,0.14
0.23,-0.89,0.13
0.24,-0.98,0.11
0.24,-1.1,0.12
0.25,-1.2,0.13
0.23,-1.26,0.15
0.19,-1.25,0.16
0.17,-1.19,0.18
0.17,-1.1,0.19
0.18,-1.02,0.2
0.21,-0.94,0.21
0.28,-0.82,0.22
0.29,-0.78,0.22
0.3,-0.76,0.2
0.32,-0.76,0.18
0.33,-0.77,0.17
0.33,-0.76,0.16
0.35,-0.76,0.17
0.39,-0.73,0.18
0.46,-0.71,0.19
0.52,-0.73,0.19
0.57,-0.77,0.18
0.64,-0.82,0.17
0.69,-0.88,0.17
0.73,-0.92,0.2
0.78,-0.95,0.23
0.82,-0.98,0.22
0.86,-1,0.2
0.88,-1.03,0.22
0.91,-1.06,0.23
0.93,-1.11,0.22
1,-1.15,0.21
1.02,-1.19,0.21
1.02,-1.2,0.23
1.11,-1.22,0.23
1.11,-1.26,0.24
1.12,-1.27,0.26
1.22,-1.38,0.28
1.27,-1.48,0.32
1.29,-1.6,0.29
1.32,-1.69,0.27
1.37,-1.74,0.25
1.41,-1.77,0.25
1.47,-1.77,0.27
1.56,-1.76,0.27
1.67,-1.8,0.28
1.81,-1.85,0.34
1.9,-1.94,0.36
1.95,-2.07,0.28
1.97,-2.15,0.2
1.9,-2.23,0.13
1.9,-2.32,0.07
1.96,-2.41,0.04
1.98,-2.44,0.01
1.94,-2.37,0.02
1.86,-2.25,0.04
1.8,-2.09,0.07
1.76,-1.93,0.06
1.72,-1.77,0.03
1.7,-1.62,0.05
1.65,-1.5,0.06
1.52,-1.44,0
1.37,-1.46,-0.05
1.25,-1.38,-0.15
0.97,-1.35,-0.18
0.86,-1.29,-0.17
0.78,-1.23,-0.15
0.74,-1.18,-0.09
0.76,-1.2,-0.06
0.57,-1.32,0.05
0.53,-1.02,0.15
0.79,-0.51,0.19
0.63,-0.98,0
0.43,-1.32,-0.22
0.52,-0.86,-0.13
0.43,-0.74,-0.1
0.34,-0.76,-0.19
0.28,-0.64,-0.13
0.11,-0.53,-0.17
0,-0.45,-0.19
-0.07,-0.35,-0.09
-0.11,-0.27,-0.1
-0.12,-0.15,-0.08
-0.15,-0.03,-0.07
-0.16,0.06,-0.01
-0.19,0.07,0.06
-0.23,0.08,0.05
-0.27,0.19,0.04
-0.29,0.21,0.04
-0.31,0.25,0.13
-0.38,0.3,0.12
-0.4,0.42,0.2
-0.46,0.48,0.22
-0.55,0.54,0.17
-0.62,0.67,0.15
-0.63,0.8,0.19
-0.62,0.9,0.2
-0.64,0.9,0.17
-0.68,0.87,0.15
-0.68,0.8,0.12
-0.7,0.7,0.1
-0.72,0.63,0.05
-0.75,0.61,0.01
-0.77,0.64,0.01
-0.78,0.73,-0.01
-0.78,0.79,0
-0.76,0.85,0.02
-0.74,0.92,0.05
-0.71,0.95,0.06
-0.69,0.95,0.04
-0.69,0.97,0.04
-0.68,0.98,0.04
-0.65,0.98,0.04
-0.6,0.98,0.05
-0.54,0.97,0.06
-0.48,0.93,0.08
-0.34,0.93,0.08
-0.26,0.95,0.06
-0.22,0.94,0.06
-0.17,0.92,0.04
-0.13,0.9,0.04
-0.1,0.86,0.04
-0.07,0.83,0.05
-0.05,0.81,0.06
-0.02,0.82,0.08
0.01,0.85,0.11
0.02,0.87,0.12
0,0.9,0.14
0,0.93,0.13
-0.01,0.94,0.13
-0.03,0.95,0.12
-0.04,0.97,0.14
-0.05,0.98,0.17
-0.07,1,0.17
-0.07,1.02,0.17
-0.08,1.05,0.18
-0.07,1.05,0.17
-0.07,1.04,0.16
-0.06,1.03,0.16
-0.05,1.01,0.14
-0.03,1,0.12
-0.02,0.98,0.13
-0.02,0.94,0.15
-0.04,0.92,0.16
-0.06,0.92,0.17
-0.08,0.94,0.19
-0.08,0.96,0.2
-0.07,0.98,0.2
-0.08,0.98,0.2
-0.09,0.95,0.2
-0.08,0.89,0.18
-0.08,0.8,0.14
-0.07,0.73,0.09
-0.08,0.65,0.06
-0.1,0.6,0.06
-0.12,0.61,0.07
-0.14,0.7,0.1
-0.13,0.85,0.16
-0.09,1.01,0.22
-0.06,1.14,0.28
-0.06,1.25,0.27
-0.02,1.34,0.25
0.04,1.4,0.26
0.05,1.39,0.27
0.05,1.34,0.27
0.09,1.26,0.26
0.16,1.18,0.26
0.24,1.09,0.26
0.39,0.92,0.26
0.45,0.85,0.26
0.49,0.81,0.24
0.5,0.78,0.21
0.47,0.74,0.17
0.46,0.73,0.15
0.44,0.74,0.13
0.4,0.76,0.12
0.36,0.78,0.11
0.33,0.8,0.09
0.29,0.83,0.07
0.25,0.87,0.06
0.21,0.91,0.05
0.18,0.95,0.04
0.14,0.99,0.04
0.11,1.01,0.04
0.09,1.03,0.05
0.07,1.04,0.05
0.05,1.03,0.03
0.05,1.01,0.03
0.07,0.99,0.02
0.09,0.96,0.03
0.1,0.93,0.02
0.11,0.92,0.02
0.12,0.92,0.01
0.12,0.96,0.04
0.09,1.11,0.07
0.08,1.18,0.09
0.06,1.22,0.1
0.04,1.23,0.1
0.02,1.19,0.1
-0.01,1.12,0.08
-0.03,1.02,0.06
-0.05,0.92,0.03
-0.08,0.83,0.01
-0.1,0.78,-0.01
-0.13,0.76,-0.01
-0.15,0.78,0
-0.16,0.82,0.01
-0.16,0.84,0.02
-0.17,0.86,0.05
-0.18,0.85,0.07
-0.19,0.84,0.08
-0.21,0.81,0.08
-0.24,0.76,0.08
-0.25,0.72,0.08
-0.25,0.69,0.09
-0.25,0.66,0.1
-0.24,0.64,0.11
-0.21,0.62,0.12
-0.19,0.59,0.13
-0.18,0.56,0.14
-0.18,0.48,0.13
-0.2,0.43,0.12
-0.21,0.42,0.1
-0.2,0.42,0.09
-0.2,0.42,0.08
-0.17,0.41,0.08
-0.13,0.39,0.07
-0.11,0.36,0.04
-0.1,0.32,0.03
-0.06,0.29,0.03
0,0.27,-0.04
0.05,0.28,-0.08
0.08,0.31,-0.01
0.09,0.32,0.02
0.09,0.29,-0.01
0.09,0.24,-0.02
0.1,0.18,-0.03
0.15,0.08,-0.06
0.22,0.05,-0.05
0.3,0.06,-0.03
0.41,0.01,-0.02
0.47,0,0.04
0.5,-0.09,0
0.46,-0.18,-0.11
0.46,-0.25,-0.17
0.51,-0.39,-0.28
0.67,-0.47,-0.29
0.8,-0.57,-0.28
0.99,-0.61,-0.3
1.18,-0.59,-0.37
1.27,-0.7,-0.32
1.4,-0.81,-0.22
1.48,-0.91,-0.22
1.54,-1.03,-0.22
1.57,-1.11,-0.17
1.54,-1.28,-0.22
1.56,-1.48,-0.25
1.62,-1.56,-0.12
1.69,-1.52,0.09
1.75,-1.48,0.24
1.7,-1.51,0.31
1.66,-1.56,0.31
1.57,-1.54,0.29
1.57,-1.68,0.22
1.64,-1.62,0.22
1.5,-1.37,0.33
1.41,-1.52,0.36
1.43,-1.37,0.48
1.44,-1.31,0.45
1.43,-1.93,0.23
1.24,-1.98,0.28
1.05,-1.54,0.33
1.03,-1.58,0.28
1.02,-1.59,0.26
1.01,-1.51,0.26
1.02,-1.44,0.22
1.04,-1.44,0.2
1,-1.4,0.22
0.94,-1.33,0.28
0.9,-1.25,0.31
0.84,-1.21,0.24
0.76,-1.19,0.17
0.73,-1.17,0.11
0.78,-1.14,0.11
0.84,-1.12,0.18
0.92,-1.08,0.27
0.98,-0.97,0.32
1.01,-0.9,0.31
1.01,-0.91,0.28
1.02,-0.96,0.25
1.07,-1,0.25
1.14,-1.01,0.25
1.19,-0.99,0.27
1.22,-0.96,0.31
1.24,-0.98,0.35
1.38,-1.02,0.39
1.49,-1.05,0.48
1.61,-1.13,0.55
1.62,-1.19,0.58
1.5,-1.21,0.54
1.5,-1.13,0.55
1.5,-1.03,0.57
1.52,-1.03,0.61
1.56,-1.13,0.63
1.6,-1.3,0.6
1.63,-1.52,0.57
1.66,-1.76,0.53
1.65,-1.97,0.51
1.6,-2.13,0.49
1.55,-2.2,0.47
1.55,-2.18,0.49
1.59,-2.16,0.52
1.64,-2.16,0.56
1.72,-2.14,0.61
1.78,-2.14,0.64
1.77,-2.14,0.65
1.75,-2.12,0.67
1.71,-2.12,0.68
1.64,-2.14,0.66
1.6,-2.19,0.62
1.58,-2.18,0.61
1.53,-2.13,0.61
1.47,-2.1,0.58
1.49,-2.05,0.58
1.49,-1.92,0.51
1.32,-1.84,0.44
1.2,-1.77,0.41
1.07,-1.72,0.35
0.93,-1.66,0.27
0.82,-1.6,0.22
0.75,-1.51,0.21
0.71,-1.31,0.22
0.71,-1.22,0.21
0.7,-1.13,0.19
0.66,-0.93,0.17
0.53,-1.14,0.04
0.72,-0.21,0.1
0.73,0.03,0.18
0.22,-1.38,0.01
0.28,-1.38,-0.03
0.41,-0.87,0.24
0.39,-0.86,0.29
0.34,-0.83,0.07
0.18,-0.64,0.11
0.14,-0.48,0.12
-0.05,-0.45,-0.03
-0.17,-0.38,-0.18
-0.17,-0.23,-0.11
-0.21,-0.2,0.09
-0.29,-0.22,0.14
-0.42,-0.05,0.13
-0.65,0.06,0.03
-0.65,0.28,0.02
-0.63,0.37,0.01
-0.59,0.42,0.03
-0.58,0.49,0.1
-0.6,0.53,0.14
-0.66,0.55,0.15
-0.71,0.54,0.07
-0.73,0.55,0
-0.75,0.54,-0.04
-0.77,0.52,-0.06
-0.77,0.53,-0.07
-0.76,0.55,-0.06
-0.75,0.55,-0.06
-0.74,0.55,-0.05
-0.74,0.55,-0.03
-0.74,0.56,-0.03
-0.74,0.57,-0.03
-0.74,0.59,-0.03
-0.72,0.64,-0.02
-0.69,0.69,0.01
-0.66,0.74,0.04
-0.64,0.78,0.07
-0.59,0.82,0.08
-0.54,0.86,0.08
-0.43,0.9,0.09
-0.36,0.92,0.09
-0.28,0.93,0.09
-0.22,0.94,0.09
-0.18,0.93,0.08
-0.14,0.91,0.07
-0.1,0.89,0.06
-0.05,0.89,0.06
-0.01,0.9,0.06
0.03,0.92,0.06
0.07,0.94,0.07
0.09,0.96,0.06
0.08,0.99,0.05
0.07,1.06,0.05
0.06,1.16,0.04
0.07,1.25,0.03
0.09,1.3,0.02
0.1,1.33,0.03
0.12,1.32,0.04
0.13,1.27,0.03
0.11,1.17,0
0.07,1.05,-0.06
0.03,0.94,-0.12
-0.02,0.89,-0.17
-0.06,0.9,-0.19
-0.1,0.97,-0.21
-0.11,1.07,-0.18
-0.08,1.18,-0.16
-0.07,1.18,-0.15
-0.06,1.16,-0.13
-0.05,1.12,-0.11
-0.02,1.09,-0.09
0.02,1.06,-0.08
0.06,1.02,-0.06
0.08,0.98,-0.03
0.11,0.94,0
0.14,0.89,0.03
0.16,0.85,0.07
0.17,0.81,0.09
0.18,0.79,0.1
0.18,0.79,0.11
0.18,0.81,0.11
0.18,0.83,0.1
0.18,0.86,0.1
0.16,0.88,0.1
0.14,0.91,0.11
0.12,0.93,0.11
0.09,0.96,0.1
0.06,0.97,0.1
0.02,0.98,0.1
-0.01,0.99,0.1
-0.01,1,0.11
-0.03,0.99,0.13
-0.07,0.96,0.13
-0.1,0.94,0.13
-0.11,0.93,0.14
-0.11,0.92,0.15
-0.1,0.91,0.14
-0.11,0.92,0.14
-0.11,0.93,0.14
-0.08,0.94,0.14
-0.08,0.95,0.14
-0.09,0.96,0.13
-0.11,0.97,0.13
-0.11,0.97,0.12
-0.13,0.94,0.1
-0.17,0.91,0.07
-0.22,0.92,0.03
-0.26,0.97,0.02
-0.26,1.03,0.03
-0.22,1.07,0.03
-0.19,1.11,0.04
-0.16,1.15,0.06
-0.11,1.2,0.07
-0.08,1.24,0.07
-0.06,1.25,0.05
-0.02,1.24,0.02
0.02,1.2,0
0.07,1.14,0.02
0.23,1.01,0.04
0.3,0.92,0.04
0.35,0.84,0.02
0.39,0.77,0
0.4,0.72,-0.01
0.39,0.68,-0.01
0.37,0.66,-0.01
0.34,0.67,0
0.32,0.7,0.01
0.3,0.74,0.02
0.26,0.77,0.03
0.22,0.82,0.05
0.17,0.89,0.08
0.13,0.96,0.1
0.11,1.03,0.11
0.08,1.1,0.11
0.06,1.15,0.12
0.04,1.17,0.14
0.04,1.17,0.16
0.06,1.13,0.16
0.09,1.07,0.16
0.12,1.01,0.17
0.14,0.95,0.16
0.16,0.9,0.16
0.19,0.88,0.17
0.21,0.87,0.18
0.25,0.85,0.18
0.25,0.85,0.18
0.23,0.87,0.17
0.2,0.91,0.16
0.16,0.97,0.15
0.14,1.06,0.14
0.13,1.14,0.13
0.12,1.19,0.12
0.1,1.18,0.1
0.07,1.12,0.07
0.03,1.03,0.03
-0.03,0.96,-0.03
-0.11,0.94,-0.08
-0.2,0.97,-0.12
-0.25,1.05,-0.14
-0.24,1.14,-0.14
-0.19,1.2,-0.12
-0.13,1.22,-0.1
-0.09,1.21,-0.08
-0.06,1.19,-0.08
-0.05,1.13,-0.1
-0.04,1.08,-0.12
-0.03,1.02,-0.11
0,0.96,-0.09
0.03,0.9,-0.06
0.07,0.85,-0.02
0.13,0.78,0
0.15,0.77,0.03
0.16,0.78,0.04
0.16,0.8,0.05
0.17,0.82,0.06
0.17,0.85,0.09
0.16,0.87,0.1
0.14,0.9,0.11
0.13,0.93,0.11
0.11,0.95,0.11
0.08,0.97,0.11
0.06,0.98,0.1
0.05,0.98,0.09
0.04,0.98,0.11
0.05,0.99,0.12
0.05,0.98,0.13
0.04,0.96,0.15
0.02,0.93,0.17
0.02,0.91,0.18
0.01,0.89,0.2
0.02,0.9,0.21
0.04,0.92,0.23
0.05,0.94,0.24
0.04,0.98,0.26
0.05,1.05,0.3
0.08,1.11,0.32
0.1,1.12,0.31
0.09,1.07,0.29
0.1,0.98,0.27
0.1,0.87,0.22
0.06,0.78,0.18
-0.03,0.77,0.13
-0.09,0.86,0.11
-0.07,1.01,0.12
-0.02,1.14,0.13
0.02,1.2,0.15
0.04,1.23,0.17
0.07,1.26,0.17
0.1,1.25,0.15
0.12,1.21,0.14
0.14,1.14,0.14
0.17,1.05,0.15
0.21,0.97,0.16
0.23,0.89,0.18
0.23,0.82,0.19
0.23,0.76,0.21
0.24,0.72,0.22
0.23,0.69,0.22
0.21,0.67,0.2
0.17,0.66,0.17
0.11,0.66,0.12
0.06,0.66,0.06
-0.01,0.65,-0.03
-0.07,0.64,-0.06
-0.12,0.65,-0.08
-0.15,0.65,-0.1
-0.18,0.64,-0.11
-0.21,0.63,-0.13
-0.24,0.6,-0.13
-0.26,0.57,-0.14
-0.27,0.55,-0.14
-0.27,0.5,-0.12
-0.27,0.44,-0.11
-0.27,0.39,-0.09
-0.27,0.34,-0.07
-0.25,0.3,-0.06
-0.23,0.26,-0.06
-0.21,0.21,-0.06
-0.18,0.16,-0.07
-0.13,0.09,-0.05
-0.09,0.07,-0.02
-0.05,0.02,0.01
-0.01,-0.05,0.01
0.01,-0.04,0.01
0.01,-0.02,-0.03
0.02,-0.02,-0.07
0.06,-0.05,-0.09
0.1,-0.09,-0.08
0.16,-0.23,0.1
0.25,-0.3,0.07
0.26,-0.39,-0.09
0.28,-0.49,-0.1
0.31,-0.62,-0.12
0.36,-0.89,-0.19
0.52,-0.94,-0.1
0.74,-0.89,0.06
0.97,-1.06,0.14
1.17,-1.24,0.16
1.22,-1.34,0.1
1.16,-1.37,0
1.14,-1.45,-0.08
1.21,-1.55,-0.02
1.36,-1.61,0.23
1.58,-1.61,0.45
1.69,-1.59,0.5
1.66,-1.58,0.51
1.6,-1.64,0.46
1.54,-1.76,0.37
1.48,-1.93,0.39
1.5,-2.06,0.6
1.59,-2.04,0.79
1.69,-1.88,0.81
1.69,-1.76,0.76
1.54,-1.78,0.71
1.45,-2.14,0.44
1.47,-2.47,0.22
1.63,-2.11,0.39
1.63,-1.73,0.55
1.79,-1.53,0.57
1.82,-1.53,0.53
1.73,-1.56,0.51
1.59,-1.53,0.49
1.49,-1.5,0.45
1.44,-1.49,0.42
1.38,-1.45,0.44
1.36,-1.32,0.49
1.33,-1.26,0.49
1.3,-1.22,0.49
1.28,-1.17,0.47
1.26,-1.2,0.44
1.21,-1.15,0.42
1.16,-1.08,0.39
1.12,-1.01,0.34
1.06,-0.92,0.34
1.02,-0.86,0.33
0.99,-0.85,0.29
0.94,-0.88,0.28
0.89,-0.95,0.27
0.86,-1.09,0.24
0.83,-1.24,0.23
0.77,-1.41,0.19
0.62,-1.41,0.15
0.54,-1.39,0.1
0.46,-1.28,0.07
0.42,-1.17,0.03
0.38,-1.11,0
0.34,-1.04,-0.03
0.32,-0.97,-0.06
0.32,-0.91,-0.08
0.3,-0.88,-0.08
0.29,-0.85,-0.07
0.27,-0.82,-0.05
0.19,-0.82,-0.04
0.11,-0.82,-0.05
0.03,-0.82,-0.07
-0.04,-0.81,-0.07
-0.08,-0.81,-0.07
-0.1,-0.82,-0.07
-0.12,-0.85,-0.07
-0.14,-0.9,-0.07
-0.18,-0.98,-0.08
-0.24,-1.07,-0.11
-0.28,-1.15,-0.13
-0.3,-1.16,-0.14
-0.29,-1.14,-0.16
-0.32,-1.15,-0.16
-0.35,-1.17,-0.15
-0.29,-1.12,-0.14
-0.26,-1.08,-0.12
-0.24,-1.04,-0.1
-0.22,-1.01,-0.07
-0.21,-0.97,-0.06
-0.21,-0.94,-0.05
-0.2,-0.91,-0.04
-0.18,-0.9,-0.02
-0.16,-0.9,-0.01
-0.14,-0.91,0.01
-0.13,-0.95,0.02
-0.11,-0.99,0.04
-0.08,-1.04,0.06
-0.05,-1.11,0.06
-0.03,-1.17,0.05
-0.02,-1.25,0.03
-0.01,-1.35,0.01
0.02,-1.42,0.01
0.04,-1.44,0.02
0.07,-1.4,0.04
0.1,-1.28,0.07
0.12,-1.11,0.12
0.14,-0.94,0.15
0.17,-0.82,0.17
0.19,-0.77,0.17
0.21,-0.79,0.16
0.21,-0.95,0.16
0.19,-1.06,0.18
0.18,-1.17,0.21
0.17,-1.25,0.23
0.16,-1.28,0.23
0.15,-1.26,0.22
0.15,-1.19,0.22
0.17,-1.09,0.22
0.19,-1.01,0.21
0.23,-0.94,0.21
0.27,-0.89,0.2
0.29,-0.87,0.18
0.3,-0.86,0.16
0.31,-0.87,0.16
0.31,-0.88,0.16
0.31,-0.89,0.16
0.32,-0.9,0.15
0.34,-0.9,0.14
0.36,-0.89,0.13
0.38,-0.88,0.11
0.41,-0.88,0.11
0.44,-0.87,0.1
0.47,-0.86,0.1
0.49,-0.86,0.09
0.51,-0.85,0.08
0.53,-0.83,0.09
0.57,-0.83,0.1
0.6,-0.81,0.13
0.65,-0.79,0.15
0.71,-0.82,0.16
0.75,-0.87,0.17
0.77,-0.91,0.2
0.8,-0.97,0.21
0.83,-1.05,0.18
0.84,-1.15,0.16
0.87,-1.25,0.19
0.9,-1.34,0.28
0.97,-1.38,0.43
1.08,-1.43,0.5
1.2,-1.48,0.42
1.34,-1.47,0.33
1.42,-1.4,0.36
1.5,-1.36,0.39
1.69,-1.44,0.37
1.86,-1.63,0.34
1.93,-1.91,0.28
1.92,-2.17,0.22
1.86,-2.36,0.16
1.86,-2.5,0.1
1.92,-2.57,0.02
1.95,-2.46,-0.03
2.02,-2.27,0.02
2.18,-2.22,-0.01
2.17,-2.3,-0.06
2.11,-2.32,-0.11
1.99,-2.3,-0.16
1.83,-2.29,-0.2
1.69,-2.29,-0.23
1.58,-2.29,-0.24
1.48,-2.26,-0.22
1.4,-2.2,-0.23
1.32,-2.12,-0.25
1.21,-2.02,-0.27
1.13,-1.9,-0.26
1.09,-1.81,-0.26
1.06,-1.72,-0.25
1.03,-1.63,-0.21
0.96,-1.54,-0.2
0.86,-1.46,-0.22
0.77,-1.38,-0.25
0.71,-1.26,-0.25
0.66,-1.09,-0.21
0.62,-0.95,-0.2
0.58,-0.88,-0.21
0.55,-0.77,-0.19
0.56,-0.72,-0.19
0.42,-0.92,-0.25
0.33,-0.87,-0.09
0.24,-0.5,-0.05
0.25,-0.19,0
0.21,-0.19,-0.05
0.18,-0.44,-0.27
0.08,-0.36,-0.36
-0.04,-0.4,-0.18
-0.08,-0.33,-0.13
-0.18,-0.19,-0.15
-0.23,-0.04,-0.08
-0.26,0.14,-0.06
-0.32,0.24,-0.12
-0.36,0.33,-0.07
-0.44,0.38,0.03
-0.48,0.42,0.01
-0.5,0.38,-0.03
-0.53,0.33,-0.08
-0.55,0.35,-0.12
-0.63,0.35,-0.16
-0.7,0.41,-0.16
-0.72,0.61,-0.14
-0.72,0.72,-0.09
-0.72,0.8,0.01
-0.66,0.88,0.06
-0.68,0.86,0.05
-0.73,0.81,-0.02
-0.72,0.77,-0.01
-0.64,0.75,0.02
-0.56,0.77,0.05
-0.51,0.8,0.08
-0.48,0.81,0.08
-0.43,0.82,0.08
-0.41,0.82,0.07
-0.4,0.82,0.06
-0.38,0.82,0.07
-0.32,0.84,0.08
-0.25,0.87,0.09
-0.22,0.87,0.12
-0.22,0.87,0.14
-0.23,0.9,0.15
-0.23,0.93,0.15
-0.22,0.97,0.14
-0.22,0.99,0.13
-0.21,1,0.13
-0.19,1.01,0.15
-0.18,1.01,0.16
-0.17,0.99,0.17
-0.17,0.97,0.18
-0.17,0.95,0.18
-0.17,0.93,0.18
-0.16,0.9,0.18
-0.14,0.89,0.2
-0.13,0.88,0.21
-0.09,0.85,0.19
-0.07,0.85,0.17
-0.08,0.83,0.15
-0.08,0.81,0.13
-0.08,0.81,0.12
-0.09,0.83,0.13
-0.12,0.88,0.14
-0.15,0.92,0.16
-0.16,0.97,0.16
-0.17,1.01,0.15
-0.19,1.04,0.13
-0.2,1.02,0.09
-0.21,0.97,0.04
-0.24,0.92,-0.01
-0.28,0.91,-0.05
-0.34,0.96,-0.06
-0.37,1.07,-0.04
-0.36,1.21,0
-0.33,1.33,0.06
-0.25,1.4,0.1
-0.14,1.45,0.13
-0.07,1.44,0.12
-0.03,1.36,0.09
0.03,1.29,0.08
0.12,1.22,0.06
0.18,1.13,0.03
0.2,0.91,0.1
0.28,0.83,0.1
0.32,0.76,0.11
0.36,0.7,0.11
0.4,0.67,0.1
0.41,0.66,0.09
0.4,0.65,0.06
0.37,0.65,0.03
0.33,0.66,0.02
0.3,0.69,0.01
0.28,0.74,0.01
0.25,0.78,0.01
0.22,0.83,-0.01
0.19,0.88,-0.04
0.15,0.92,-0.06
0.11,0.97,-0.06
0.1,1.04,-0.06
0.09,1.08,-0.05
0.07,1.1,-0.04
0.06,1.1,-0.02
0.03,1.07,-0.02
0.02,1.04,-0.02
0.02,1.02,-0.01
0.02,0.99,0.01
0.02,0.96,0
0.04,0.96,-0.01
0.07,0.93,-0.02
0.11,0.91,-0.01
0.13,0.87,-0.01
0.15,0.85,-0.01
0.17,0.84,-0.01
0.17,0.86,0
0.16,0.9,0.01
0.13,0.96,0.02
0.13,1.03,0.03
0.13,1.08,0.05
0.12,1.12,0.06
0.09,1.13,0.08
0.08,1.1,0.09
0.06,1.06,0.08
0.02,1.04,0.06
-0.03,1.05,0.03
-0.09,1.1,0.01
-0.14,1.16,0
-0.17,1.22,0
-0.16,1.26,-0.01
-0.13,1.28,-0.02
-0.09,1.26,-0.03
-0.05,1.22,-0.03
-0.02,1.17,-0.02
0,1.12,-0.01
0.04,1.07,0.01
0.11,0.95,0.08
0.19,0.9,0.12
0.24,0.86,0.14
0.26,0.84,0.16
0.27,0.82,0.17
0.29,0.82,0.17
0.3,0.83,0.18
0.29,0.85,0.19
0.28,0.87,0.19
0.27,0.89,0.19
0.25,0.91,0.18
0.23,0.92,0.17
0.21,0.92,0.16
0.18,0.93,0.15
0.16,0.93,0.15
0.15,0.94,0.13
0.13,0.95,0.13
0.1,0.95,0.13
0.07,0.94,0.13
0.05,0.94,0.14
0.03,0.93,0.14
0.01,0.93,0.15
0.01,0.93,0.16
0,0.93,0.15
-0.01,0.92,0.14
-0.03,0.91,0.13
-0.02,0.9,0.1
-0.05,0.9,0.1
-0.06,0.93,0.12
-0.06,0.95,0.13
-0.08,0.96,0.13
-0.12,0.97,0.12
-0.15,0.97,0.11
-0.16,0.96,0.1
-0.17,0.92,0.1
-0.18,0.88,0.08
-0.2,0.85,0.04
-0.24,0.87,0.01
-0.25,0.95,0.02
-0.23,1.05,0.04
-0.2,1.15,0.07
-0.14,1.22,0.09
-0.04,1.29,0.12
0.03,1.31,0.15
0.05,1.29,0.16
0.09,1.25,0.16
0.11,1.18,0.15
0.1,1.08,0.14
0.12,1.01,0.16
0.18,0.96,0.19
0.23,0.91,0.2
0.29,0.87,0.2
0.34,0.83,0.21
0.35,0.77,0.19
0.34,0.74,0.17
0.33,0.74,0.15
0.29,0.75,0.12
0.26,0.77,0.11
0.25,0.81,0.1
0.23,0.84,0.1
0.21,0.87,0.1
0.17,0.89,0.11
0.13,0.92,0.14
0.09,0.94,0.15
0.05,0.96,0.16
0.02,0.98,0.16
-0.01,0.97,0.15
-0.04,0.95,0.13
-0.07,0.91,0.11
-0.1,0.87,0.07
-0.11,0.81,0.04
-0.12,0.75,0
-0.12,0.69,-0.04
-0.13,0.63,-0.07
-0.15,0.58,-0.08
-0.19,0.57,-0.1
-0.23,0.59,-0.13
-0.23,0.61,-0.16
-0.25,0.64,-0.21
-0.35,0.7,-0.21
-0.4,0.73,-0.2
-0.41,0.76,-0.18
-0.39,0.78,-0.16
-0.37,0.78,-0.14
-0.35,0.75,-0.11
-0.34,0.69,-0.1
-0.31,0.63,-0.09
-0.3,0.54,-0.07
-0.31,0.46,-0.06
-0.3,0.39,-0.04
-0.28,0.31,0
-0.24,0.21,0.02
-0.18,0.12,0.02
-0.15,0.02,0.02
-0.12,-0.07,0.02
-0.07,-0.15,0.01
0.01,-0.22,0.02
0.12,-0.27,0.04
0.27,-0.3,0.09
0.32,-0.39,0.17
0.3,-0.48,0.08
0.32,-0.53,-0.09
0.35,-0.66,-0.08
0.44,-0.86,-0.1
0.48,-0.79,0.21
0.63,-0.67,0.13
0.77,-0.71,0.09
0.83,-0.75,0.07
0.83,-0.81,0.03
0.82,-0.88,-0.03
0.82,-1.01,0
0.9,-1.13,0.18
1.01,-1.17,0.31
1.07,-1.2,0.34
1.09,-1.23,0.32
1.15,-1.3,0.27
1.24,-1.44,0.2
1.31,-1.63,0.25
1.38,-1.8,0.4
1.49,-1.91,0.5
1.61,-1.92,0.48
1.6,-1.92,0.39
1.57,-1.88,0.33
1.52,-1.95,0.33
1.44,-2.11,0.33
1.4,-2.27,0.34
1.37,-2.46,0.31
1.43,-2.19,0.3
1.48,-2.24,0.25
1.39,-2.43,0.27
1.28,-2.15,0.46
1.23,-2.13,0.46
1.17,-2.18,0.46
1.15,-2.14,0.45
1.12,-2.07,0.44
1.12,-2.04,0.45
1.15,-1.99,0.47
1.14,-2.03,0.48
1.09,-2.08,0.51
1.05,-2.09,0.46
1.03,-2.02,0.42
1.02,-1.88,0.41
1.02,-1.75,0.37
0.99,-1.54,0.35
0.94,-1.33,0.33
0.87,-1.12,0.34
0.8,-0.92,0.35
0.8,-0.78,0.34
0.85,-0.71,0.3
0.81,-0.68,0.28
0.73,-0.67,0.25
0.72,-0.66,0.22
0.69,-0.63,0.2
0.64,-0.62,0.18
0.6,-0.61,0.17
0.55,-0.62,0.15
0.5,-0.64,0.1
0.42,-0.68,0.07
0.39,-0.72,0.05
0.37,-0.77,0.02
0.34,-0.85,-0.02
0.3,-0.92,-0.07
0.26,-0.98,-0.12
0.2,-1.03,-0.14
0.15,-1.08,-0.17
0.11,-1.13,-0.19
0.07,-1.16,-0.19
0.04,-1.16,-0.2
0.02,-1.15,-0.19
0.01,-1.16,-0.19
0,-1.13,-0.18
-0.01,-1.1,-0.17
-0.05,-1.07,-0.16
-0.08,-1.04,-0.15
-0.09,-1.01,-0.14
-0.13,-1,-0.13
-0.17,-1.01,-0.12
-0.21,-1.01,-0.1
-0.23,-1.02,-0.09
-0.24,-1.04,-0.08
-0.24,-1.07,-0.07
-0.25,-1.11,-0.06
-0.25,-1.16,-0.05
-0.23,-1.2,-0.04
-0.21,-1.18,-0.02
-0.18,-1.16,0
-0.15,-1.14,0.01
-0.12,-1.11,0.01
-0.1,-1.1,0.02
-0.09,-1.12,0.04
-0.07,-1.13,0.07
-0.05,-1.14,0.09
-0.04,-1.14,0.11
-0.03,-1.11,0.13
-0.03,-1.05,0.14
-0.02,-0.98,0.15
-0.01,-0.92,0.15
0.02,-0.87,0.16
0.06,-0.84,0.15
0.11,-0.82,0.14
0.15,-0.82,0.13
0.18,-0.84,0.11
0.2,-0.87,0.09
0.2,-0.89,0.08
0.2,-0.91,0.07
0.21,-0.92,0.07
0.24,-0.93,0.08
0.26,-0.93,0.07
0.3,-0.94,0.07
0.37,-0.94,0.12
0.4,-0.95,0.16
0.43,-0.95,0.2
0.46,-0.96,0.18
0.47,-0.96,0.13
0.46,-0.95,0.1
0.45,-0.94,0.1
0.47,-0.94,0.12
0.49,-0.94,0.14
0.51,-0.93,0.18
0.54,-0.92,0.2
0.55,-0.92,0.21
0.54,-0.91,0.19
0.53,-0.92,0.15
0.5,-0.98,0.12
0.47,-1.05,0.07
0.45,-1.1,0.03
0.43,-1.12,0.01
0.39,-1.14,0.01
0.34,-1.18,0
0.32,-1.22,-0.02
0.28,-1.24,-0.03
0.21,-1.24,-0.04
0.14,-1.21,-0.05
0.11,-1.17,-0.06
0.06,-1.15,-0.08
0.08,-1.14,-0.08
0.05,-1.19,-0.09
0.02,-1.22,-0.1
0.02,-1.23,-0.11
-0.01,-1.23,-0.12
-0.04,-1.2,-0.11
-0.06,-1.13,-0.11
-0.06,-1.04,-0.1
-0.06,-0.94,-0.09
-0.06,-0.85,-0.08
-0.04,-0.78,-0.08
0,-0.73,-0.08
0.02,-0.7,-0.08
0.05,-0.68,-0.07
0.09,-0.69,-0.08
0.12,-0.71,-0.09
0.16,-0.74,-0.1
0.2,-0.79,-0.11
0.25,-0.85,-0.13
0.31,-0.91,-0.13
0.39,-0.97,-0.12
0.45,-1.03,-0.12
0.5,-1.08,-0.13
0.54,-1.09,-0.14
0.56,-1.08,-0.14
0.59,-1.04,-0.13
0.65,-0.94,0.04
0.9,-0.92,0.2
1.01,-0.91,0.33
1.04,-0.92,0.35
1.02,-0.92,0.29
1.05,-0.91,0.25
1.2,-0.95,0.31
1.42,-0.99,0.45
1.57,-1.02,0.6
1.7,-1.01,0.72
1.79,-1.05,0.74
1.79,-1.16,0.7
1.76,-1.33,0.63
1.78,-1.55,0.54
1.78,-1.7,0.52
1.75,-1.78,0.51
1.74,-1.8,0.47
1.72,-1.8,0.4
1.7,-1.74,0.37
1.67,-1.64,0.36
1.65,-1.53,0.35
1.64,-1.49,0.32
1.66,-1.57,0.28
1.63,-1.68,0.23
1.57,-1.77,0.15
1.5,-1.8,0.06
1.43,-1.64,-0.01
1.39,-1.45,0.08
1.43,-1.25,0.21
1.5,-1.15,0.26
1.54,-1.11,0.27
1.55,-1.07,0.28
1.52,-1.04,0.21
1.51,-1,0.12
1.47,-0.96,0.05
1.4,-0.92,0.02
1.32,-0.89,0.02
1.23,-0.87,0.01
1.14,-0.85,-0.02
1.07,-0.81,-0.04
0.98,-0.79,-0.07
0.9,-0.78,-0.1
0.86,-0.65,-0.15
0.83,-0.49,-0.18
0.72,-0.56,-0.18
0.61,-0.96,-0.26
0.6,-0.96,-0.23
0.54,-0.32,-0.09
0.4,-0.02,-0.12
0.49,0.03,-0.14
0.47,0.04,-0.17
0.33,-0.25,-0.23
0.27,-0.11,-0.16
0.18,0.09,-0.02
0.15,-0.03,-0.05
0.07,-0.16,-0.15
0.02,-0.05,-0.17
0,0.03,-0.17
-0.09,0.05,-0.17
-0.18,0.13,-0.11
-0.21,0.2,-0.06
-0.22,0.33,-0.02
-0.25,0.42,-0.02
-0.25,0.46,0
-0.25,0.45,0.09
-0.28,0.49,0.23
-0.33,0.47,0.21
-0.4,0.43,0.2
-0.49,0.43,0.2
-0.56,0.45,0.13
-0.58,0.57,0.1
-0.58,0.75,0.14
-0.57,0.93,0.32
-0.55,1.01,0.38
-0.51,1.04,0.31
-0.54,1.02,0.24
-0.6,0.99,0.18
-0.61,0.95,0.16
-0.57,0.89,0.15
-0.46,0.79,0.16
-0.38,0.75,0.17
-0.32,0.72,0.17
-0.28,0.67,0.16
-0.28,0.61,0.13
-0.27,0.56,0.12
-0.26,0.53,0.11
-0.27,0.55,0.12
-0.27,0.57,0.11
-0.24,0.59,0.09
-0.24,0.67,0.1
-0.27,0.71,0.1
-0.31,0.74,0.11
-0.33,0.8,0.12
-0.34,0.85,0.12
-0.36,0.89,0.13
-0.36,0.92,0.14
-0.37,0.95,0.14
-0.38,0.96,0.13
-0.39,0.96,0.11
-0.36,0.97,0.1
-0.33,0.98,0.09
-0.29,0.98,0.1
-0.24,0.98,0.1
-0.18,0.97,0.11
-0.13,0.96,0.09
-0.07,0.92,0.07
-0.04,0.92,0.05
-0.01,0.93,0.05
0,0.96,0.05
0,1,0.06
-0.02,1.06,0.08
-0.03,1.11,0.09
-0.02,1.15,0.09
-0.04,1.16,0.08
-0.07,1.14,0.06
-0.11,1.11,0.03
-0.16,1.08,0.02
-0.21,1.04,0.01
-0.26,1.03,0
-0.3,1.03,-0.04
-0.31,1.06,-0.06
-0.31,1.1,-0.06
-0.29,1.15,-0.06
-0.25,1.16,-0.06
-0.22,1.14,-0.05
-0.19,1.09,-0.04
-0.17,1.04,-0.04
-0.15,0.97,-0.02
-0.11,0.9,-0.01
-0.06,0.86,0
-0.01,0.83,0.04
0.03,0.84,0.07
0.04,0.86,0.09
0.05,0.88,0.11
0.05,0.9,0.12
0.04,0.92,0.12
0.04,0.94,0.12
0.04,0.96,0.12
0.03,0.97,0.12
0.04,0.97,0.12
0.04,0.97,0.11
0.04,0.96,0.1
0.03,0.96,0.09
0.03,0.95,0.08
0.02,0.94,0.09
0.01,0.94,0.1
0.01,0.94,0.11
0.01,0.93,0.11
0,0.91,0.1
0,0.88,0.1
0.01,0.85,0.09
0,0.83,0.08
-0.01,0.81,0.09
-0.01,0.83,0.09
-0.03,0.87,0.1
-0.06,0.93,0.12
-0.08,1,0.17
-0.09,1.05,0.18
-0.11,1.02,0.18
-0.12,0.96,0.16
-0.14,0.88,0.12
-0.17,0.83,0.1
-0.21,0.86,0.13
-0.22,0.96,0.17
-0.2,1.09,0.19
-0.18,1.2,0.21
-0.14,1.28,0.23
-0.09,1.34,0.27
-0.02,1.36,0.3
0.06,1.34,0.3
0.1,1.28,0.3
0.14,1.19,0.29
0.2,1.1,0.27
0.27,1.01,0.26
0.32,0.93,0.27
0.38,0.85,0.27
0.42,0.78,0.27
0.45,0.72,0.28
0.46,0.69,0.27
0.45,0.67,0.27
0.43,0.66,0.24
0.4,0.67,0.22
0.32,0.69,0.18
0.27,0.72,0.16
0.22,0.76,0.15
0.18,0.79,0.15
0.14,0.83,0.14
0.11,0.88,0.13
0.07,0.92,0.13
0.02,0.97,0.12
-0.01,1,0.12
-0.03,1.01,0.11
-0.05,1.01,0.1
-0.08,0.99,0.08
-0.1,0.95,0.06
-0.12,0.91,0.05
-0.14,0.85,0.05
-0.14,0.8,0.02
-0.14,0.74,-0.02
-0.14,0.69,-0.03
-0.15,0.66,-0.03
-0.15,0.68,-0.04
-0.17,0.73,-0.05
-0.2,0.78,-0.06
-0.25,0.83,-0.05
-0.3,0.88,-0.03
-0.33,0.88,-0.02
-0.35,0.87,-0.03
-0.36,0.86,-0.03
-0.39,0.82,-0.06
-0.41,0.79,-0.07
-0.43,0.75,-0.07
-0.43,0.69,-0.09
-0.42,0.6,-0.08
-0.4,0.52,-0.08
-0.36,0.44,-0.07
-0.31,0.36,-0.06
-0.24,0.31,-0.06
-0.18,0.28,-0.05
-0.12,0.25,-0.06
-0.08,0.22,-0.09
-0.05,0.17,-0.13
-0.05,0.1,-0.12
-0.05,0.04,-0.13
-0.02,-0.03,-0.12
0.06,-0.09,-0.08
0.13,-0.13,-0.08
0.17,-0.19,-0.06
0.22,-0.26,-0.07
0.26,-0.33,-0.08
0.27,-0.4,-0.11
0.33,-0.48,-0.17
0.43,-0.58,-0.08
0.54,-0.64,0.09
0.63,-0.68,0.08
0.7,-0.86,0.03
0.87,-0.99,-0.01
0.9,-1.1,-0.04
0.93,-1.18,-0.03
1,-1.23,-0.05
1.09,-1.28,-0.01
1.16,-1.32,0.2
1.26,-1.31,0.33
1.34,-1.36,0.34
1.3,-1.88,0.05
1.37,-1.94,0.23
1.4,-1.53,0.8
1.36,-1.58,0.87
1.35,-1.65,0.77
1.26,-1.6,0.68
1.2,-1.77,0.65
1.22,-2.12,0.62
1.28,-2.22,0.63
1.41,-2.1,0.64
1.43,-2.06,0.74
1.29,-2.17,0.81
1.32,-2.2,0.69
1.26,-2.22,0.4
1.22,-2.31,0.14
1.31,-2.7,0.1
1.43,-2.7,0.16
1.42,-2.08,0.2
1.14,-1.98,0.22
1.14,-1.83,0.28
1.14,-1.65,0.36
1.09,-1.53,0.39
1.04,-1.45,0.4
0.99,-1.37,0.41
0.91,-1.29,0.41
0.86,-1.21,0.39
0.83,-1.13,0.37
0.82,-1.02,0.36
0.81,-0.91,0.37
0.78,-0.84,0.38
0.75,-0.78,0.39
0.73,-0.75,0.38
0.71,-0.73,0.35
0.69,-0.71,0.33
0.68,-0.71,0.3
0.65,-0.73,0.28
0.63,-0.75,0.27
0.62,-0.77,0.26
0.63,-0.79,0.25
0.63,-0.84,0.23
0.63,-0.91,0.2
0.62,-0.99,0.14
0.61,-1.08,0.09
0.59,-1.18,0.01
0.54,-1.17,-0.01
0.52,-1.12,-0.01
0.51,-1.07,-0.01
0.49,-1.01,-0.01
0.45,-0.96,-0.02
0.42,-0.93,-0.03
0.38,-0.93,-0.04
0.34,-0.94,-0.05
0.3,-0.96,-0.07
0.25,-0.97,-0.08
0.21,-0.98,-0.07
0.18,-0.99,-0.07
0.12,-1.02,-0.09
0.06,-1.06,-0.12
0.03,-1.13,-0.14
0.02,-1.22,-0.15
0,-1.33,-0.16
-0.01,-1.39,-0.16
0,-1.39,-0.15
0.02,-1.32,-0.13
0.04,-1.24,-0.09
0.04,-1.2,-0.09
0.04,-1.2,-0.08
0.04,-1.22,-0.08
0.03,-1.22,-0.08
0.02,-1.15,-0.05
0,-1.1,-0.04
-0.02,-1.04,-0.05
-0.02,-0.99,-0.06
0,-0.95,-0.06
0.01,-0.9,-0.05
0.03,-0.87,-0.04
0.06,-0.85,-0.04
0.08,-0.83,-0.06
0.1,-0.81,-0.05
0.13,-0.79,-0.05
0.14,-0.78,-0.05
0.15,-0.77,-0.05
0.15,-0.77,-0.06
0.16,-0.77,-0.06
0.16,-0.77,-0.07
0.16,-0.79,-0.07
0.16,-0.8,-0.06
0.16,-0.82,-0.07
0.15,-0.83,-0.06
0.16,-0.85,-0.06
0.17,-0.87,-0.06
0.19,-0.9,-0.07
0.19,-0.95,-0.08
0.2,-1.01,-0.1
0.21,-1.07,-0.11
0.21,-1.12,-0.11
0.19,-1.16,-0.11
0.18,-1.17,-0.12
0.16,-1.17,-0.12
0.16,-1.15,-0.11
0.15,-1.11,-0.11
0.13,-1.07,-0.12
0.11,-1.05,-0.14
0.09,-1.04,-0.16
0.07,-1.06,-0.17
0.07,-1.08,-0.19
0.07,-1.09,-0.2
0.06,-1.11,-0.22
0.04,-1.14,-0.24
0.01,-1.16,-0.26
0,-1.17,-0.27
-0.01,-1.15,-0.28
-0.02,-1.12,-0.28
-0.02,-1.08,-0.27
0,-1.03,-0.25
0.01,-0.99,-0.23
0.03,-0.94,-0.21
0.04,-0.91,-0.19
0.04,-0.89,-0.17
0.05,-0.88,-0.14
0.07,-0.87,-0.12
0.09,-0.88,-0.08
0.09,-0.9,-0.06
0.09,-0.92,-0.05
0.1,-0.96,-0.05
0.12,-1,-0.05
0.15,-1.05,-0.06
0.17,-1.1,-0.05
0.18,-1.13,-0.04
0.19,-1.16,-0.03
0.2,-1.17,-0.03
0.2,-1.16,-0.03
0.19,-1.13,-0.03
0.2,-1.09,-0.02
0.21,-1.05,0
0.23,-0.99,0.01
0.24,-0.94,0.02
0.23,-0.89,0.03
0.23,-0.85,0.03
0.22,-0.81,0.03
0.22,-0.8,0.03
0.23,-0.81,0.03
0.22,-0.86,0.03
0.23,-0.94,0.02
0.23,-1.02,0.02
0.23,-1.08,0.02
0.22,-1.11,0.01
0.21,-1.11,0.02
0.23,-1.03,0.02
0.24,-1.02,0.02
0.25,-1.03,0.01
0.26,-1.05,0
0.27,-1.07,0.01
0.27,-1.11,0.02
0.26,-1.14,0.01
0.24,-1.16,0.01
0.22,-1.17,0
0.2,-1.16,-0.02
0.19,-1.12,-0.01
0.18,-1.07,-0.01
0.18,-1.03,-0.01
0.2,-0.99,-0.01
0.21,-0.96,-0.02
0.22,-0.93,-0.02
0.23,-0.91,-0.02
0.24,-0.89,-0.01
0.25,-0.87,-0.01
0.25,-0.85,-0.01
0.25,-0.84,-0.01
0.25,-0.83,-0.01
0.25,-0.82,-0.02
0.25,-0.82,-0.02
0.25,-0.83,-0.03
0.26,-0.85,-0.04
0.28,-0.89,-0.06
0.28,-0.92,-0.07
0.28,-0.94,-0.08
0.3,-0.99,-0.09
0.3,-1.05,-0.1
0.3,-1.12,-0.13
0.28,-1.18,-0.16
0.26,-1.21,-0.18
0.23,-1.22,-0.19
0.22,-1.19,-0.2
0.21,-1.16,-0.19
0.19,-1.13,-0.18
0.17,-1.1,-0.18
0.15,-1.06,-0.17
0.14,-1.04,-0.18
0.13,-1.04,-0.19
0.12,-1.06,-0.21
0.11,-1.09,-0.24
0.1,-1.12,-0.26
0.07,-1.16,-0.28
0.04,-1.18,-0.3
0.02,-1.17,-0.32
0.01,-1.12,-0.31
0.01,-1.07,-0.3
0,-1.03,-0.28
0.01,-0.99,-0.24
0.06,-0.92,-0.21
0.07,-0.9,-0.19
0.08,-0.89,-0.19
0.08,-0.88,-0.18
0.07,-0.88,-0.17
0.08,-0.87,-0.15
0.09,-0.87,-0.14
0.09,-0.88,-0.13
0.1,-0.9,-0.12
0.11,-0.92,-0.12
0.12,-0.94,-0.11
0.14,-0.96,-0.11
0.18,-0.98,-0.1
0.21,-0.99,-0.09
0.24,-0.99,-0.09
0.26,-0.98,-0.09
0.29,-0.96,-0.09
0.34,-0.95,-0.07
0.42,-0.92,-0.03
0.52,-0.91,0.02
0.61,-0.91,0.07
0.71,-0.93,0.14
0.78,-0.96,0.21
0.83,-0.99,0.29
0.87,-1,0.35
0.9,-1.03,0.35
0.96,-1.08,0.42
1.03,-1.09,0.5
1.07,-1.1,0.57
1.16,-1.07,0.66
1.24,-1.11,0.68
1.27,-1.18,0.7
1.33,-1.22,0.75
1.4,-1.3,0.75
1.42,-1.37,0.75
1.45,-1.42,0.76
1.48,-1.47,0.76
1.51,-1.54,0.71
1.56,-1.58,0.63
1.63,-1.6,0.6
1.7,-1.63,0.61
1.73,-1.61,0.64
1.73,-1.57,0.67
1.73,-1.56,0.67
1.73,-1.62,0.64
1.75,-1.69,0.66
1.78,-1.73,0.71
1.78,-1.77,0.71
1.73,-1.84,0.68
1.65,-1.89,0.65
1.55,-1.86,0.6
1.48,-1.8,0.57
1.47,-1.64,0.56
1.47,-1.58,0.54
1.44,-1.55,0.48
1.37,-1.49,0.4
1.29,-1.41,0.31
1.19,-1.35,0.24
1.11,-1.25,0.21
1.07,-1.14,0.19
1.02,-1.1,0.15
0.94,-1.07,0.1
0.89,-1.06,0.07
0.85,-1.01,0.04
0.75,-0.93,0.05
0.74,-0.71,0.05
0.82,-0.65,0.02
0.6,-0.65,0.09
0.49,-0.89,0.01
0.55,-0.95,-0.12
0.42,-0.23,-0.14
0.32,-0.35,-0.35
0.2,-0.52,-0.3
0.07,-0.45,-0.1
0.11,-0.56,0.09
0.12,-0.42,0.11
0.08,-0.4,-0.07
0.09,-0.32,-0.09
0.03,-0.18,-0.12
-0.17,-0.15,-0.18
-0.23,-0.1,-0.09
-0.32,0,-0.01
-0.39,0.11,-0.01
-0.47,0.1,-0.01
-0.48,0.15,0.04
-0.48,0.25,0
-0.51,0.26,-0.05
-0.54,0.31,0.02
-0.58,0.39,0.04
-0.66,0.37,0
-0.74,0.42,0.06
-0.8,0.51,0.09
-0.83,0.63,0.04
-0.83,0.76,0.08
-0.81,0.79,0.1
-0.76,0.83,0.1
-0.73,0.88,0.13
-0.7,0.91,0.13
-0.64,0.93,0.14
-0.58,0.92,0.16
-0.55,0.88,0.16
-0.52,0.84,0.13
-0.49,0.81,0.13
-0.43,0.79,0.13
-0.38,0.81,0.11
-0.3,0.81,0.09
-0.27,0.8,0.08
-0.24,0.79,0.06
-0.21,0.79,0.06
-0.2,0.79,0.07
-0.19,0.8,0.08
-0.17,0.83,0.08
-0.13,0.88,0.1
-0.08,0.92,0.12
-0.04,0.97,0.14
0.01,1.01,0.17
0.06,1.03,0.21
0.09,1.04,0.24
0.12,1.03,0.25
0.13,1.01,0.24
0.13,1,0.22
0.14,1.01,0.21
0.18,1.02,0.21
0.19,1.02,0.19
0.18,1,0.16
0.18,0.98,0.13
0.17,0.96,0.1
0.15,0.94,0.07
0.13,0.94,0.03
0.12,0.96,0
0.12,0.99,-0.02
0.09,1,-0.03
0.07,1,-0.04
0.05,1,-0.04
0.03,1,-0.05
0,1,-0.07
-0.03,1,-0.09
-0.07,1,-0.1
-0.1,1.02,-0.09
-0.13,1.04,-0.09
-0.14,1.06,-0.07
-0.15,1.07,-0.07
-0.16,1.05,-0.07
-0.15,1.01,-0.09
-0.16,0.94,-0.12
-0.21,0.92,-0.15
-0.27,0.96,-0.14
-0.31,1.03,-0.13
-0.3,1.1,-0.12
-0.27,1.16,-0.1
-0.25,1.19,-0.07
-0.21,1.18,-0.03
-0.17,1.17,0.02
-0.14,1.15,0.06
-0.09,1.12,0.11
-0.04,1.06,0.15
-0.01,0.94,0.21
0.09,0.88,0.25
0.13,0.83,0.3
0.15,0.79,0.35
0.17,0.78,0.39
0.19,0.8,0.41
0.2,0.82,0.42
0.19,0.84,0.42
0.17,0.87,0.41
0.15,0.89,0.39
0.12,0.91,0.36
0.08,0.92,0.32
0.04,0.95,0.29
0.01,0.97,0.26
-0.01,0.98,0.22
-0.05,0.98,0.19
-0.07,0.98,0.15
-0.09,0.98,0.13
-0.1,0.97,0.11
-0.12,0.96,0.1
-0.12,0.95,0.08
-0.12,0.94,0.08
-0.12,0.95,0.1
-0.13,0.95,0.1
-0.14,0.95,0.11
-0.14,0.96,0.12
-0.14,0.98,0.17
-0.11,0.98,0.18
-0.12,0.94,0.18
-0.14,0.9,0.18
-0.17,0.87,0.18
-0.21,0.86,0.17
-0.25,0.87,0.16
-0.29,0.89,0.15
-0.32,0.91,0.16
-0.37,0.95,0.18
-0.38,0.99,0.19
-0.36,1.03,0.2
-0.35,1.07,0.2
-0.33,1.11,0.2
-0.3,1.15,0.21
-0.26,1.16,0.23
-0.21,1.15,0.24
-0.15,1.11,0.25
-0.07,1.06,0.25
0,0.99,0.26
0.06,0.93,0.27
0.1,0.87,0.28
0.14,0.83,0.29
0.17,0.78,0.29
0.18,0.73,0.28
0.17,0.7,0.27
0.16,0.7,0.29
0.15,0.74,0.29
0.13,0.76,0.29
0.1,0.79,0.29
0.07,0.83,0.29
0.05,0.86,0.29
0.01,0.89,0.29
-0.02,0.94,0.3
-0.03,0.98,0.3
-0.04,1.02,0.31
-0.05,1.04,0.32
-0.05,1.06,0.31
-0.05,1.05,0.29
-0.02,1.02,0.28
0.02,0.98,0.27
0.07,0.94,0.25
0.12,0.9,0.23
0.15,0.86,0.22
0.16,0.83,0.21
0.17,0.81,0.19
0.18,0.82,0.18
0.16,0.86,0.16
0.13,0.95,0.16
0.11,1.06,0.17
0.08,1.15,0.17
0.06,1.2,0.17
0.02,1.21,0.15
-0.05,1.09,0.13
-0.09,1,0.1
-0.15,0.94,0.06
-0.22,0.94,0.02
-0.28,1.02,0
-0.3,1.13,0.01
-0.29,1.22,0.01
-0.27,1.26,0
-0.24,1.25,0.01
-0.2,1.2,0.01
-0.17,1.12,0.01
-0.16,1.04,0.01
-0.13,0.95,0.02
-0.09,0.87,0.04
-0.04,0.8,0.07
0.01,0.74,0.1
0.05,0.71,0.12
0.07,0.69,0.15
0.08,0.68,0.16
0.07,0.68,0.16
0.03,0.7,0.15
0,0.74,0.13
-0.03,0.8,0.12
-0.04,0.86,0.13
-0.07,0.9,0.12
-0.11,0.93,0.11
-0.17,0.95,0.09
-0.2,0.95,0.07
-0.23,0.93,0.05
-0.24,0.92,0.05
-0.23,0.91,0.07
-0.21,0.87,0.07
-0.21,0.82,0.08
-0.2,0.77,0.09
-0.18,0.71,0.09
-0.18,0.65,0.09
-0.18,0.61,0.1
-0.16,0.58,0.12
-0.15,0.58,0.13
-0.15,0.57,0.15
-0.17,0.57,0.16
-0.19,0.56,0.18
-0.21,0.55,0.19
-0.23,0.52,0.18
-0.24,0.48,0.17
-0.24,0.45,0.16
-0.22,0.41,0.14
-0.2,0.39,0.13
-0.18,0.35,0.11
-0.15,0.3,0.1
-0.1,0.25,0.1
-0.07,0.19,0.11
0,0.02,0.09
0.01,-0.06,0.08
0.04,-0.11,0.06
0.12,-0.11,0.04
0.2,-0.09,0.03
0.29,-0.08,0.03
0.35,-0.1,0.04
0.42,-0.16,0.05
0.52,-0.25,0.04
0.62,-0.34,0.05
0.63,-0.44,0.04
0.64,-0.52,-0.01
0.7,-0.53,-0.03
0.75,-0.56,-0.02
0.84,-0.59,-0.01
0.91,-0.63,0
0.97,-0.7,0.07
1,-0.75,0.14
1.02,-0.84,0.12
1.02,-0.91,0.1
1.04,-0.94,0.04
1.09,-1.01,-0.06
1.14,-1.15,-0.12
1.23,-1.33,-0.2
1.31,-1.44,-0.17
1.52,-1.47,0.04
1.74,-0.99,0.31
1.69,-1.39,0.3
1.76,-1.55,0.25
1.75,-1.58,0.32
1.8,-1.73,0.2
1.91,-1.6,0.33
1.89,-1.66,0.45
1.92,-1.62,0.44
2.01,-1.62,0.46
1.92,-1.6,0.59
1.68,-1.65,0.62
1.55,-1.6,0.48
1.63,-1.11,0.34
1.5,-1.23,0.15
1.15,-1.93,0.13
1.17,-2.4,0.23
1.24,-2.23,0.3
1.22,-1.96,0.38
1.23,-1.79,0.45
1.18,-1.66,0.47
1.15,-1.7,0.46
1.14,-1.56,0.53
1.08,-1.43,0.56
1.05,-1.42,0.52
1.05,-1.31,0.52
1.01,-1.24,0.52
0.96,-1.16,0.46
0.82,-1.11,0.45
0.79,-1.07,0.44
0.73,-0.98,0.42
0.69,-0.91,0.4
0.7,-0.9,0.4
0.68,-0.86,0.38
0.67,-0.82,0.34
0.67,-0.79,0.3
0.66,-0.76,0.26
0.64,-0.74,0.24
0.64,-0.72,0.22
0.64,-0.7,0.2
0.63,-0.69,0.19
0.63,-0.7,0.18
0.62,-0.73,0.17
0.61,-0.76,0.16
0.59,-0.8,0.16
0.58,-0.84,0.16
0.58,-0.89,0.14
0.57,-0.92,0.13
0.55,-0.96,0.12
0.53,-1,0.11
0.52,-1.04,0.1
0.51,-1.08,0.09
0.49,-1.11,0.07
0.46,-1.14,0.06
0.42,-1.15,0.06
0.41,-1.16,0.05
0.39,-1.19,0.05
0.37,-1.23,0.04
0.36,-1.27,0.03
0.34,-1.26,0.02
0.3,-1.18,0.01
0.25,-1.05,0.01
0.2,-0.9,0.01
0.17,-0.78,0.03
0.16,-0.71,0.04
0.16,-0.71,0.03
0.16,-0.77,0.02
0.15,-0.85,0.01
0.12,-1,0
0.11,-1.11,-0.04
0.12,-1.15,-0.08
0.07,-1.23,-0.1
0.03,-1.33,-0.13
0.01,-1.39,-0.16
-0.03,-1.4,-0.19
-0.08,-1.44,-0.22
-0.08,-1.36,-0.21
-0.02,-1.22,-0.17
-0.03,-1.21,-0.17
-0.05,-1.09,-0.12
0.04,-1,-0.09
0.07,-0.93,-0.06
0.09,-0.88,-0.03
0.11,-0.85,-0.02
0.12,-0.82,-0.01
0.09,-0.81,-0.02
0.05,-0.81,-0.03
0.02,-0.8,-0.04
0.02,-0.82,-0.04
0.01,-0.86,-0.03
0,-0.87,-0.02
0.01,-0.88,0.01
0.02,-0.9,0.01
0.04,-0.94,0
0.05,-0.99,-0.01
0.07,-1.04,-0.03
0.08,-1.07,-0.04
0.09,-1.12,-0.06
0.12,-1.19,-0.09
0.15,-1.24,-0.12
0.18,-1.25,-0.13
0.22,-1.22,-0.12
0.25,-1.15,-0.08
0.27,-1.08,-0.04
0.31,-1.03,-0.01
0.35,-1.03,0.01
0.38,-1.07,0.01
0.37,-1.12,0.01
0.36,-1.15,0
0.37,-1.17,-0.01
0.39,-1.18,0
0.39,-1.17,0.01
0.38,-1.15,0.02
0.38,-1.1,0.04
0.38,-1.04,0.05
0.38,-1,0.07
0.37,-0.97,0.09
0.38,-0.92,0.1
0.38,-0.9,0.1
0.4,-0.88,0.11
0.41,-0.86,0.12
0.42,-0.84,0.13
0.43,-0.84,0.13
0.44,-0.84,0.13
0.45,-0.83,0.14
0.45,-0.83,0.16
0.47,-0.83,0.18
0.47,-0.83,0.19
0.47,-0.83,0.2
0.47,-0.83,0.21
0.48,-0.84,0.23
0.49,-0.86,0.27
0.49,-0.89,0.28
0.48,-0.9,0.3
0.47,-0.9,0.31
0.44,-0.89,0.32
0.43,-0.87,0.33
0.42,-0.86,0.33
0.41,-0.85,0.34
0.4,-0.86,0.36
0.39,-0.87,0.36
0.39,-0.9,0.36
0.38,-0.92,0.36
0.38,-0.95,0.35
0.37,-0.97,0.34
0.37,-0.98,0.33
0.37,-0.98,0.33
0.36,-0.96,0.33
0.36,-0.93,0.33
0.38,-0.91,0.33
0.4,-0.9,0.33
0.39,-0.89,0.34
0.4,-0.87,0.34
0.4,-0.87,0.32
0.39,-0.89,0.3
0.39,-0.92,0.28
0.39,-0.94,0.26
0.4,-0.94,0.25
0.38,-0.95,0.24
0.37,-0.97,0.23
0.36,-0.98,0.21
0.37,-1,0.17
0.38,-1,0.11
0.36,-1.02,0.09
0.34,-1.05,0.09
0.34,-1.08,0.07
0.32,-1.11,0.08
0.31,-1.16,0.06
0.26,-1.18,0.01
0.22,-1.14,-0.01
0.22,-1.13,-0.07
0.21,-1.09,-0.14
0.19,-1.01,-0.18
0.16,-0.93,-0.2
0.15,-0.91,-0.23
0.13,-0.91,-0.27
0.1,-0.91,-0.31
0.08,-0.88,-0.32
0.06,-0.84,-0.31
0.08,-0.84,-0.29
0.12,-0.89,-0.27
0.16,-0.97,-0.29
0.17,-1.02,-0.31
0.15,-1.05,-0.28
0.2,-1.08,-0.33
0.25,-1.08,-0.37
0.26,-1.04,-0.36
0.24,-0.99,-0.3
0.21,-0.96,-0.24
0.21,-0.95,-0.19
0.23,-0.96,-0.13
0.25,-0.98,-0.07
0.27,-1.01,-0.02
0.29,-1.03,-0.02
0.29,-1.02,-0.04
0.28,-0.97,-0.05
0.28,-0.93,-0.04
0.27,-0.91,-0.03
0.27,-0.89,-0.02
0.27,-0.89,0
0.26,-0.89,0.04
0.25,-0.89,0.06
0.24,-0.88,0.09
0.23,-0.87,0.1
0.23,-0.86,0.1
0.24,-0.85,0.09
0.24,-0.84,0.11
0.25,-0.84,0.13
0.27,-0.85,0.14
0.3,-0.85,0.15
0.29,-0.86,0.17
0.29,-0.86,0.18
0.3,-0.86,0.18
0.3,-0.86,0.19
0.32,-0.86,0.2
0.36,-0.86,0.22
0.39,-0.86,0.24
0.42,-0.87,0.26
0.45,-0.88,0.28
0.46,-0.86,0.28
0.45,-0.84,0.28
0.45,-0.83,0.28
0.47,-0.82,0.3
0.51,-0.81,0.33
0.56,-0.81,0.36
0.59,-0.81,0.39
0.59,-0.82,0.42
0.6,-0.83,0.45
0.62,-0.86,0.45
0.64,-0.89,0.43
0.66,-0.89,0.43
0.67,-0.9,0.45
0.69,-0.92,0.47
0.73,-0.94,0.48
0.74,-0.96,0.5
0.76,-0.96,0.51
0.82,-0.97,0.54
0.85,-0.97,0.56
0.87,-0.99,0.58
0.89,-1.01,0.61
0.89,-1.02,0.65
0.89,-1.03,0.68
0.88,-1.01,0.7
0.87,-0.97,0.67
0.86,-0.92,0.64
0.86,-0.86,0.62
0.83,-0.78,0.62
0.79,-0.72,0.61
0.77,-0.65,0.6
0.74,-0.6,0.59
0.7,-0.57,0.57
0.66,-0.53,0.56
0.62,-0.49,0.55
0.57,-0.46,0.55
0.58,-0.44,0.55
0.56,-0.45,0.55
0.47,-0.45,0.58
0.43,-0.42,0.64
0.4,-0.44,0.73
0.31,-0.49,0.85
0.27,-0.48,0.99
0.29,-0.47,1.1
0.38,-0.43,1.06
0.35,-0.37,0.97
0.33,-0.33,0.88
0.3,-0.28,0.79
0.28,-0.23,0.69
0.29,-0.19,0.62
0.27,-0.19,0.55
0.23,-0.19,0.5
0.23,-0.18,0.47
0.22,-0.19,0.46
0.21,-0.2,0.46
0.22,-0.21,0.46
0.2,-0.22,0.48
0.18,-0.23,0.51
0.17,-0.24,0.54
0.23,-0.27,0.57
0.42,-0.32,0.66
0.71,-0.49,0.99
0.87,-0.76,1.41
0.73,-0.9,1.63
0.64,-0.92,1.67
0.73,-0.84,1.43
0.73,-0.73,1.1
0.57,-0.62,0.89
0.39,-0.5,0.74
0.31,-0.44,0.62
0.34,-0.45,0.37
0.38,-0.47,0.31
0.41,-0.5,0.34
0.44,-0.54,0.41
0.48,-0.59,0.5
0.53,-0.63,0.6
0.6,-0.66,0.67
0.66,-0.71,0.74
0.68,-0.73,0.81
0.67,-0.71,0.85
0.64,-0.68,0.87
0.57,-0.66,0.85
0.49,-0.64,0.77
0.45,-0.6,0.69
0.44,-0.57,0.62
0.43,-0.57,0.57
0.43,-0.58,0.54
0.45,-0.58,0.54
0.48,-0.58,0.56
0.5,-0.6,0.57
0.52,-0.62,0.6
0.56,-0.63,0.64
0.59,-0.61,0.67
0.58,-0.61,0.71
0.57,-0.59,0.74
0.56,-0.56,0.74
0.55,-0.51,0.72
0.53,-0.49,0.71
0.53,-0.47,0.7
0.54,-0.46,0.69
0.55,-0.44,0.68
0.56,-0.44,0.68
0.58,-0.45,0.68
0.59,-0.45,0.68
0.6,-0.46,0.69
0.61,-0.47,0.69
0.61,-0.48,0.7
0.6,-0.49,0.7
0.59,-0.5,0.7
0.57,-0.51,0.7
0.56,-0.52,0.7
0.55,-0.53,0.69
0.54,-0.54,0.69
0.54,-0.54,0.68
0.54,-0.55,0.67
0.54,-0.55,0.67
0.54,-0.55,0.66
0.54,-0.55,0.67
0.54,-0.54,0.68
0.54,-0.54,0.68
0.54,-0.54,0.69
0.55,-0.53,0.68
0.55,-0.53,0.68
0.55,-0.52,0.68
0.55,-0.52,0.67
0.55,-0.52,0.67
0.55,-0.52,0.67
0.55,-0.53,0.67
0.55,-0.53,0.67
0.55,-0.53,0.68
0.55,-0.53,0.68
0.55,-0.53,0.68
0.55,-0.53,0.68
0.55,-0.52,0.67
0.55,-0.52,0.67
0.55,-0.52,0.68
0.56,-0.52,0.67
0.56,-0.52,0.67
0.56,-0.52,0.67
0.56,-0.52,0.67
0.57,-0.51,0.67
0.57,-0.51,0.67
0.57,-0.51,0.67
