Acc_x,Acc_y,Acc_z
0.06,0.16,0.5
0.08,0.15,0.43
0.1,0.14,0.35
0.12,0.11,0.27
0.14,0.08,0.2
0.15,0.04,0.15
0.17,0,0.11
0.17,-0.06,0.09
0.16,-0.1,0.1
0.17,-0.11,0.1
0.19,-0.15,0.13
0.2,-0.26,0.15
0.2,-0.27,0.16
0.18,-0.29,0.18
0.19,-0.36,0.19
0.21,-0.44,0.22
0.21,-0.51,0.27
0.19,-0.56,0.31
0.15,-0.61,0.33
0.15,-0.67,0.34
0.17,-0.72,0.37
0.19,-0.74,0.43
0.19,-0.95,0.42
0.22,-1.07,0.46
0.25,-1.02,0.62
0.23,-0.99,0.71
0.28,-1.04,0.7
0.27,-1.15,0.71
0.25,-1.15,0.79
0.28,-1.13,0.82
0.29,-1.14,0.81
0.29,-1.16,0.79
0.31,-1.22,0.79
0.34,-1.26,0.84
0.38,-1.25,0.89
0.39,-1.21,0.91
0.39,-1.2,0.94
0.41,-1.34,0.94
0.42,-1.41,0.9
0.39,-1.46,0.86
0.36,-1.48,0.8
0.35,-1.49,0.79
0.35,-1.48,0.8
0.38,-1.44,0.83
0.42,-1.42,0.87
0.45,-1.42,0.91
0.44,-1.4,0.91
0.43,-1.36,0.88
0.41,-1.33,0.85
0.38,-1.3,0.82
0.36,-1.26,0.79
0.34,-1.23,0.77
0.33,-1.2,0.75
0.31,-1.16,0.72
0.3,-1.12,0.69
0.31,-1.1,0.66
0.3,-1.09,0.64
0.32,-1.13,0.61
0.36,-1.19,0.6
0.39,-1.17,0.6
0.38,-1.13,0.56
0.39,-1.1,0.53
0.4,-1.05,0.49
0.41,-1.03,0.39
0.48,-1.03,0.35
0.43,-1.02,0.37
0.43,-1.05,0.37
0.44,-1.08,0.34
0.46,-1.05,0.35
0.44,-1.01,0.43
0.35,-1.03,0.47
0.31,-1.02,0.47
0.3,-0.97,0.45
0.2,-0.9,0.38
0.11,-0.9,0.31
0.09,-0.96,0.26
0.13,-0.98,0.23
0.18,-0.96,0.22
0.27,-0.95,0.2
0.34,-0.96,0.18
0.35,-0.97,0.16
0.35,-0.96,0.14
0.37,-0.94,0.11
0.38,-0.94,0.09
0.37,-0.95,0.09
0.34,-0.96,0.12
0.33,-0.97,0.15
0.33,-0.97,0.18
0.33,-0.98,0.22
0.32,-1.03,0.34
0.29,-1.06,0.43
0.28,-1.08,0.5
0.24,-1.09,0.56
0.2,-1.13,0.63
0.19,-1.16,0.69
0.16,-1.2,0.76
0.13,-1.25,0.85
0.09,-1.29,0.93
0.05,-1.3,1.02
0.05,-1.32,1.11
0.02,-1.38,1.17
-0.02,-1.4,1.22
-0.02,-1.41,1.25
-0.01,-1.44,1.25
0.03,-1.48,1.26
0.12,-1.54,1.3
0.19,-1.61,1.33
0.2,-1.66,1.32
0.2,-1.69,1.28
0.23,-1.72,1.24
0.27,-1.76,1.23
0.29,-1.83,1.23
0.29,-1.88,1.21
0.31,-1.91,1.19
0.32,-1.89,1.15
0.33,-1.82,0.98
0.4,-1.7,0.92
0.44,-1.72,0.85
0.48,-1.71,0.77
0.53,-1.66,0.72
0.56,-1.6,0.65
0.55,-1.55,0.58
0.48,-1.47,0.52
0.38,-1.38,0.5
0.36,-1.3,0.42
0.4,-1.24,0.36
0.4,-1.16,0.31
0.39,-1.04,0.25
0.47,-0.94,0.21
0.55,-0.83,0.14
0.56,-0.7,0.09
0.5,-0.57,0.09
0.4,-0.49,0.12
0.3,-0.41,0.13
0.23,-0.32,0.12
0.17,-0.25,0.07
0.15,-0.19,0.03
0.16,-0.13,-0.01
0.16,-0.09,-0.03
0.13,-0.06,-0.01
0.1,0,0.02
0.07,0.08,0.05
0.02,0.18,0.08
0.03,0.17,0.09
0.04,0.16,0.11
0.02,0.15,0.13
-0.03,0.17,0.16
-0.07,0.19,0.21
-0.08,0.18,0.3
-0.07,0.19,0.4
-0.08,0.2,0.49
-0.09,0.19,0.55
-0.13,0.17,0.62
-0.17,0.17,0.68
-0.21,0.17,0.74
-0.25,0.17,0.79
-0.26,0.17,0.83
-0.24,0.18,0.88
-0.22,0.16,0.92
-0.22,0.12,0.96
-0.22,0.12,0.99
-0.23,0.13,1
-0.24,0.15,0.99
-0.26,0.16,1.02
-0.26,0.18,1.05
-0.24,0.19,1.06
-0.22,0.17,1.05
-0.23,0.15,1
-0.23,0.16,0.98
-0.23,0.17,0.98
-0.21,0.16,1.01
-0.19,0.16,1.05
-0.16,0.17,1.06
-0.16,0.17,1.04
-0.16,0.16,1.02
-0.15,0.16,1.01
-0.15,0.17,1
-0.15,0.17,0.99
-0.14,0.16,1.01
-0.12,0.15,1.02
-0.13,0.15,1.02
-0.14,0.16,1.02
-0.14,0.16,1
-0.13,0.17,0.99
-0.11,0.18,0.99
-0.1,0.17,0.99
-0.11,0.17,0.99
-0.12,0.16,0.98
-0.15,0.16,0.97
-0.16,0.17,0.95
-0.15,0.16,0.95
-0.14,0.15,0.95
-0.14,0.16,0.96
-0.14,0.17,0.95
-0.14,0.18,0.92
-0.14,0.18,0.89
-0.13,0.18,0.86
-0.11,0.18,0.83
-0.09,0.18,0.8
-0.08,0.18,0.76
-0.06,0.18,0.71
-0.03,0.18,0.66
0,0.19,0.6
0.03,0.19,0.53
0.05,0.18,0.45
0.07,0.17,0.38
0.09,0.15,0.32
0.1,0.12,0.27
0.12,0.1,0.22
0.13,0.08,0.15
0.14,0.03,0.11
0.16,-0.02,0.07
0.17,-0.07,0.06
0.2,-0.11,0.05
0.23,-0.14,0.05
0.25,-0.17,0.06
0.27,-0.23,0.06
0.26,-0.29,0.05
0.24,-0.35,0.03
0.2,-0.46,0.04
0.24,-0.62,0.09
0.29,-0.68,0.14
0.32,-0.73,0.19
0.36,-0.74,0.23
0.37,-0.8,0.25
0.34,-0.85,0.32
0.41,-1,0.37
0.53,-1.23,0.43
0.49,-1.24,0.64
0.47,-1.2,0.75
0.47,-1.23,0.7
0.48,-1.28,0.7
0.47,-1.37,0.72
0.47,-1.48,0.78
0.48,-1.58,0.88
0.46,-1.66,0.97
0.53,-1.71,1.08
0.55,-1.64,1.13
0.55,-1.58,1.12
0.55,-1.58,1.15
0.56,-1.6,1.22
0.59,-1.56,1.29
0.62,-1.48,1.32
0.61,-1.4,1.3
0.59,-1.36,1.27
0.56,-1.34,1.27
0.53,-1.29,1.28
0.5,-1.26,1.29
0.5,-1.24,1.29
0.48,-1.24,1.26
0.48,-1.27,1.21
0.49,-1.25,1.15
0.48,-1.2,1.07
0.47,-1.15,1
0.45,-1.11,0.9
0.42,-1.06,0.81
0.4,-1.02,0.73
0.43,-1,0.68
0.43,-0.99,0.64
0.45,-1.01,0.59
0.54,-1,0.56
0.56,-0.97,0.56
0.55,-0.98,0.53
0.52,-0.97,0.5
0.5,-0.92,0.6
0.51,-0.85,0.64
0.58,-0.83,0.66
0.64,-0.92,0.72
0.56,-1.01,0.72
0.5,-0.98,0.65
0.43,-0.92,0.47
0.31,-0.92,0.32
0.3,-0.95,0.26
0.27,-0.99,0.28
0.26,-0.99,0.31
0.31,-0.95,0.29
0.4,-0.91,0.23
0.44,-0.91,0.15
0.43,-0.92,0.09
0.41,-0.92,0.06
0.41,-0.9,0.03
0.42,-0.88,0.02
0.43,-0.87,0.02
0.43,-0.86,0.02
0.43,-0.86,0.03
0.44,-0.86,0.03
0.45,-0.86,0.03
0.45,-0.86,0.03
0.45,-0.87,0.03
0.45,-0.89,0.03
0.44,-0.91,0.04
0.44,-0.92,0.05
0.43,-0.93,0.06
0.42,-0.94,0.09
0.42,-0.96,0.13
0.4,-0.98,0.17
0.39,-0.99,0.23
0.39,-1.01,0.3
0.36,-1.03,0.43
0.29,-1.03,0.53
0.29,-1.05,0.6
0.35,-1.05,0.64
0.34,-1.06,0.74
0.3,-1.07,0.84
0.28,-1.06,0.9
0.3,-1.07,1
0.34,-1.11,1.12
0.34,-1.15,1.2
0.31,-1.17,1.22
0.26,-1.21,1.24
0.23,-1.25,1.32
0.24,-1.3,1.4
0.25,-1.36,1.45
0.25,-1.44,1.51
0.23,-1.49,1.5
0.19,-1.53,1.44
0.16,-1.56,1.39
0.16,-1.59,1.39
0.18,-1.64,1.4
0.18,-1.69,1.38
0.18,-1.76,1.36
0.18,-1.79,1.33
0.12,-1.8,1.25
0.15,-1.8,1.14
0.22,-1.77,1.05
0.28,-1.73,0.99
0.32,-1.7,0.88
0.37,-1.67,0.77
0.42,-1.62,0.67
0.43,-1.56,0.63
0.42,-1.49,0.6
0.42,-1.4,0.55
0.4,-1.3,0.49
0.38,-1.22,0.43
0.37,-1.14,0.37
0.35,-1.08,0.3
0.34,-1,0.26
0.36,-0.87,0.2
0.41,-0.73,0.17
0.44,-0.65,0.2
0.38,-0.57,0.26
0.35,-0.43,0.24
0.34,-0.29,0.16
0.31,-0.26,0.09
0.28,-0.27,0.03
0.23,-0.19,0.03
0.22,-0.18,0.01
0.22,-0.14,-0.01
0.2,-0.06,0
0.18,0.05,0.03
0.19,0.16,0.07
0.16,0.12,0.06
0.14,0.11,0.06
0.12,0.16,0.1
0.1,0.22,0.14
0.11,0.2,0.19
0.1,0.21,0.27
0.08,0.22,0.36
0.08,0.22,0.44
0.06,0.22,0.52
0.03,0.23,0.58
0,0.22,0.64
-0.02,0.2,0.7
-0.04,0.18,0.75
-0.04,0.17,0.81
-0.05,0.17,0.85
-0.07,0.18,0.87
-0.08,0.18,0.9
-0.09,0.17,0.95
-0.09,0.16,1.02
-0.08,0.16,1.07
-0.06,0.18,1.08
-0.04,0.19,1.07
-0.06,0.18,1.04
-0.08,0.17,1.03
-0.08,0.17,1.03
-0.06,0.16,1.04
-0.04,0.17,1.04
-0.02,0.18,1.04
0,0.18,1.03
0,0.18,1
0.02,0.18,0.94
0.03,0.18,0.89
0.05,0.17,0.86
0.06,0.17,0.83
0.07,0.17,0.79
0.07,0.16,0.75
0.09,0.16,0.7
0.1,0.16,0.64
0.11,0.15,0.59
0.1,0.13,0.53
0.1,0.12,0.48
0.1,0.11,0.43
0.09,0.11,0.38
0.09,0.1,0.32
0.09,0.1,0.26
0.09,0.08,0.22
0.11,0.04,0.22
0.15,-0.05,0.27
0.19,-0.12,0.32
0.23,-0.15,0.3
0.25,-0.17,0.29
0.27,-0.18,0.23
0.26,-0.23,0.22
0.22,-0.34,0.26
0.22,-0.42,0.33
0.25,-0.45,0.38
0.24,-0.52,0.38
0.22,-0.57,0.37
0.19,-0.53,0.36
0.18,-0.56,0.34
0.19,-0.65,0.38
0.19,-0.7,0.48
0.25,-0.76,0.55
0.37,-0.87,0.58
0.41,-0.94,0.62
0.43,-1.01,0.67
0.46,-1.02,0.68
0.43,-1.03,0.65
0.36,-1.03,0.66
0.37,-1.05,0.72
0.43,-1.11,0.82
0.51,-1.18,0.87
0.57,-1.26,0.89
0.58,-1.3,0.87
0.55,-1.29,0.82
0.51,-1.26,0.76
0.48,-1.27,0.78
0.52,-1.3,0.91
0.64,-1.21,1.05
0.7,-1.19,1.06
0.7,-1.21,1.01
0.66,-1.27,0.93
0.58,-1.36,0.85
0.53,-1.46,0.9
0.53,-1.49,1.01
0.53,-1.47,1.07
0.49,-1.42,1.09
0.43,-1.35,1.08
0.4,-1.27,1.02
0.38,-1.21,0.95
0.37,-1.16,0.88
0.38,-1.15,0.85
0.44,-1.16,0.84
0.49,-1.16,0.82
0.5,-1.17,0.79
0.5,-1.19,0.76
0.49,-1.17,0.74
0.48,-1.13,0.71
0.45,-1.09,0.65
0.39,-1.05,0.61
0.34,-1.02,0.58
0.33,-0.99,0.54
0.34,-0.97,0.52
0.35,-0.96,0.49
0.36,-0.93,0.43
0.4,-0.9,0.42
0.44,-0.87,0.41
0.46,-0.86,0.38
0.45,-0.87,0.36
0.41,-0.86,0.33
0.43,-0.87,0.31
0.47,-0.88,0.3
0.46,-0.87,0.28
0.44,-0.88,0.28
0.44,-0.89,0.28
0.42,-0.91,0.28
0.4,-0.92,0.27
0.41,-0.92,0.25
0.43,-0.91,0.23
0.43,-0.91,0.21
0.43,-0.92,0.2
0.43,-0.92,0.19
0.42,-0.92,0.18
0.41,-0.92,0.18
0.42,-0.92,0.17
0.41,-0.94,0.17
0.41,-0.94,0.19
0.4,-0.94,0.2
0.39,-0.94,0.2
0.38,-0.96,0.21
0.38,-1.01,0.27
0.37,-1.03,0.33
0.36,-1.06,0.39
0.37,-1.08,0.46
0.36,-1.11,0.55
0.32,-1.13,0.64
0.32,-1.12,0.71
0.31,-1.12,0.79
0.28,-1.12,0.86
0.31,-1.15,0.92
0.34,-1.18,1.01
0.32,-1.15,1.14
0.33,-1.14,1.23
0.34,-1.18,1.3
0.3,-1.21,1.35
0.28,-1.27,1.36
0.25,-1.35,1.34
0.18,-1.43,1.32
0.12,-1.51,1.32
0.13,-1.57,1.31
0.17,-1.63,1.31
0.21,-1.69,1.29
0.21,-1.71,1.24
0.22,-1.71,1.17
0.25,-1.73,1.11
0.29,-1.78,1.08
0.33,-1.83,1.06
0.42,-1.83,1.02
0.43,-1.79,0.95
0.4,-1.72,0.87
0.39,-1.62,0.8
0.4,-1.56,0.76
0.38,-1.51,0.72
0.39,-1.45,0.65
0.4,-1.38,0.57
0.4,-1.32,0.49
0.4,-1.27,0.44
0.38,-1.21,0.44
0.37,-1.16,0.44
0.38,-1.07,0.4
0.4,-0.97,0.34
0.43,-0.88,0.29
0.44,-0.77,0.25
0.45,-0.64,0.21
0.47,-0.53,0.19
0.44,-0.42,0.18
0.4,-0.36,0.15
0.36,-0.3,0.12
0.33,-0.21,0.11
0.3,-0.17,0.1
0.27,-0.15,0.06
0.28,-0.12,0.02
0.33,-0.01,-0.03
0.29,0.04,-0.03
0.23,0.11,0
0.18,0.09,0.02
0.15,0.11,0.02
0.14,0.13,0.01
0.16,0.11,0.05
0.17,0.14,0.09
0.15,0.19,0.18
0.12,0.23,0.31
0.1,0.24,0.42
0.08,0.22,0.5
0.04,0.19,0.57
0.01,0.17,0.61
-0.02,0.17,0.66
-0.05,0.17,0.73
-0.07,0.17,0.81
-0.08,0.17,0.87
-0.08,0.17,0.92
-0.08,0.19,0.95
-0.07,0.22,0.97
-0.06,0.22,0.99
-0.07,0.21,1.01
-0.09,0.21,1.03
-0.1,0.22,1.01
-0.09,0.21,0.99
-0.07,0.2,0.96
-0.02,0.22,0.93
0.01,0.21,0.89
0.03,0.2,0.85
0.05,0.19,0.82
0.07,0.2,0.77
0.08,0.2,0.73
0.09,0.22,0.71
0.11,0.23,0.67
0.13,0.22,0.62
0.13,0.2,0.56
0.13,0.18,0.49
0.14,0.15,0.42
0.15,0.12,0.35
0.17,0.08,0.29
0.19,0.04,0.24
0.19,0.01,0.21
0.19,-0.02,0.19
0.19,-0.04,0.17
0.21,-0.05,0.17
0.22,-0.08,0.19
0.24,-0.13,0.22
0.28,-0.2,0.23
0.29,-0.28,0.2
0.27,-0.34,0.17
0.26,-0.39,0.13
0.22,-0.49,0.24
0.24,-0.54,0.38
0.36,-0.54,0.48
0.44,-0.65,0.54
0.44,-0.78,0.57
0.42,-0.85,0.57
0.25,-0.81,0.68
0.21,-0.82,0.62
0.34,-0.93,0.52
0.36,-0.95,0.62
0.41,-0.97,0.69
0.49,-1.1,0.75
0.54,-1.22,0.79
0.55,-1.26,0.79
0.54,-1.28,0.79
0.52,-1.3,0.82
0.52,-1.31,0.87
0.55,-1.28,0.91
0.6,-1.26,0.92
0.65,-1.31,0.94
0.67,-1.38,0.94
0.68,-1.44,0.94
0.67,-1.48,0.95
0.63,-1.5,0.96
0.59,-1.52,1.03
0.58,-1.5,1.1
0.58,-1.44,1.1
0.58,-1.34,1.04
0.59,-1.34,1
0.58,-1.37,0.99
0.57,-1.4,1.01
0.55,-1.4,1.04
0.53,-1.38,1.04
0.5,-1.34,1.01
0.48,-1.3,0.97
0.47,-1.28,0.94
0.45,-1.24,0.9
0.43,-1.2,0.87
0.41,-1.14,0.8
0.43,-1.11,0.73
0.44,-1.08,0.66
0.4,-1.04,0.63
0.37,-1,0.63
0.38,-0.99,0.62
0.44,-0.99,0.61
0.48,-0.97,0.61
0.45,-0.99,0.63
0.46,-1.03,0.63
0.46,-1.03,0.61
0.28,-1.01,0.6
0.14,-0.98,0.54
0.11,-0.94,0.46
0.12,-0.91,0.37
0.13,-0.9,0.34
0.13,-0.91,0.33
0.18,-0.91,0.3
0.26,-0.89,0.27
0.28,-0.88,0.22
0.3,-0.87,0.17
0.35,-0.85,0.12
0.38,-0.85,0.09
0.37,-0.84,0.1
0.33,-0.84,0.12
0.32,-0.85,0.12
0.32,-0.88,0.13
0.3,-0.93,0.15
0.26,-0.99,0.19
0.23,-1.04,0.25
0.23,-1.04,0.32
0.26,-1.05,0.38
0.26,-1.11,0.44
0.23,-1.18,0.53
0.21,-1.22,0.63
0.19,-1.26,0.66
0.15,-1.27,0.64
0.1,-1.26,0.64
0.07,-1.24,0.65
0.07,-1.25,0.71
0.09,-1.26,0.83
0.11,-1.39,1.1
0.16,-1.44,1.15
0.12,-1.48,1.15
0.05,-1.5,1.1
-0.01,-1.52,1.04
-0.06,-1.55,1.03
-0.04,-1.63,1.09
0.01,-1.71,1.17
0.04,-1.77,1.23
0.06,-1.81,1.25
0.08,-1.82,1.24
0.11,-1.82,1.2
0.11,-1.8,1.16
0.11,-1.77,1.13
0.12,-1.75,1.11
0.16,-1.73,1.09
0.25,-1.72,1.04
0.35,-1.74,1
0.42,-1.75,0.94
0.46,-1.72,0.86
0.49,-1.68,0.77
0.49,-1.64,0.67
0.47,-1.55,0.57
0.44,-1.44,0.53
0.44,-1.35,0.51
0.49,-1.29,0.38
0.53,-1.26,0.3
0.54,-1.21,0.22
0.54,-1.09,0.13
0.56,-0.89,0.06
0.57,-0.69,0.09
0.57,-0.57,0.14
0.5,-0.52,0.14
0.42,-0.46,0.1
0.36,-0.38,0.07
0.28,-0.32,0.05
0.26,-0.28,0.03
0.24,-0.23,0.02
0.24,-0.18,0.03
0.22,-0.16,0.05
0.2,-0.13,0.09
0.21,-0.03,0.14
0.18,0.01,0.17
0.13,0.02,0.19
0.1,0.04,0.19
0.11,0.04,0.21
0.11,0.08,0.26
0.11,0.14,0.33
0.1,0.17,0.42
0.08,0.18,0.52
0.05,0.18,0.58
0.03,0.17,0.6
0.01,0.17,0.66
-0.04,0.18,0.69
-0.07,0.18,0.72
-0.1,0.19,0.75
-0.11,0.21,0.77
-0.08,0.22,0.8
-0.03,0.22,0.84
0,0.19,0.87
0.01,0.16,0.89
0,0.16,0.9
-0.03,0.2,0.9
-0.03,0.24,0.89
0,0.25,0.86
0.01,0.24,0.84
0.01,0.21,0.82
0.01,0.19,0.81
0.02,0.19,0.81
0.01,0.21,0.8
0,0.22,0.78
0.01,0.23,0.75
0.03,0.23,0.72
0.05,0.23,0.67
0.05,0.22,0.62
0.06,0.2,0.6
0.08,0.18,0.58
0.11,0.17,0.56
0.13,0.16,0.47
0.15,0.13,0.41
0.16,0.12,0.36
0.16,0.09,0.33
0.15,0.05,0.33
0.15,0,0.36
0.17,-0.04,0.38
0.2,-0.07,0.38
0.21,-0.1,0.39
0.22,-0.12,0.37
0.23,-0.14,0.31
0.23,-0.17,0.26
0.24,-0.21,0.24
0.25,-0.29,0.26
0.28,-0.37,0.35
0.33,-0.41,0.46
0.37,-0.42,0.53
0.38,-0.44,0.53
0.36,-0.51,0.49
0.3,-0.54,0.45
0.26,-0.57,0.37
0.24,-0.65,0.37
0.25,-0.73,0.49
0.35,-0.84,0.6
0.48,-0.87,0.67
0.53,-0.91,0.7
0.48,-1.01,0.7
0.31,-0.91,0.65
0.29,-1.01,0.6
0.32,-1.17,0.66
0.35,-1.26,0.82
0.43,-1.13,0.93
0.55,-1.12,0.91
0.6,-1.27,0.87
0.57,-1.33,0.85
0.5,-1.36,0.84
0.41,-1.35,0.86
0.36,-1.34,0.88
0.35,-1.32,0.92
0.42,-1.3,0.96
0.49,-1.33,0.98
0.52,-1.37,0.95
0.52,-1.38,0.9
0.52,-1.33,0.88
0.53,-1.29,0.89
0.54,-1.27,0.94
0.56,-1.25,0.98
0.57,-1.21,0.96
0.57,-1.17,0.93
0.59,-1.16,0.89
0.58,-1.18,0.85
0.55,-1.21,0.82
0.52,-1.24,0.77
0.46,-1.29,0.8
0.44,-1.27,0.82
0.47,-1.27,0.78
0.5,-1.25,0.74
0.5,-1.18,0.73
0.48,-1.1,0.74
0.53,-1.06,0.81
0.46,-1.01,1.07
0.62,-1.01,1.1
0.93,-1.17,1.41
0.55,-1.25,1.4
0.09,-1.07,0.8
-0.05,-0.93,0.63
-0.17,-0.98,0.5
-0.16,-1.06,0.43
-0.04,-1.06,0.38
0.12,-1.01,0.42
0.31,-0.93,0.47
0.4,-0.89,0.41
0.39,-0.89,0.34
0.4,-0.9,0.25
0.45,-0.92,0.15
0.47,-0.91,0.09
0.45,-0.9,0.06
0.42,-0.9,0.06
0.41,-0.91,0.06
0.42,-0.91,0.06
0.41,-0.9,0.06
0.4,-0.9,0.06
0.4,-0.9,0.06
0.39,-0.9,0.06
0.39,-0.91,0.06
0.39,-0.92,0.06
0.38,-0.93,0.08
0.36,-0.94,0.1
0.34,-0.95,0.15
0.33,-0.94,0.19
0.34,-0.93,0.22
0.32,-0.95,0.26
0.31,-0.97,0.33
0.33,-0.99,0.4
0.33,-1.03,0.49
0.3,-1.06,0.56
0.25,-1.08,0.6
0.18,-1.1,0.65
0.14,-1.12,0.72
0.14,-1.13,0.75
0.13,-1.14,0.85
0.12,-1.13,1.01
0.09,-1.13,1.13
0.1,-1.14,1.21
0.13,-1.15,1.26
0.1,-1.21,1.24
0.09,-1.23,1.26
0.08,-1.29,1.29
0.08,-1.35,1.31
0.09,-1.37,1.3
0.12,-1.39,1.3
0.15,-1.43,1.29
0.18,-1.45,1.27
0.2,-1.48,1.24
0.24,-1.52,1.22
0.3,-1.59,1.22
0.34,-1.62,1.18
0.36,-1.59,1.13
0.35,-1.53,1.1
0.35,-1.5,1.05
0.38,-1.49,0.99
0.39,-1.45,0.91
0.39,-1.42,0.86
0.42,-1.4,0.83
0.45,-1.36,0.8
0.47,-1.3,0.75
0.47,-1.23,0.68
0.47,-1.17,0.65
0.46,-1.1,0.63
0.44,-1.04,0.61
0.43,-0.96,0.55
0.43,-0.85,0.5
0.43,-0.8,0.46
0.44,-0.72,0.43
0.45,-0.6,0.4
0.45,-0.5,0.35
0.47,-0.46,0.33
0.44,-0.42,0.33
0.35,-0.37,0.33
0.28,-0.32,0.32
0.27,-0.19,0.3
0.27,-0.12,0.28
0.25,-0.09,0.27
0.28,-0.05,0.24
0.25,-0.08,0.19
0.2,-0.07,0.15
0.13,-0.06,0.14
0.08,-0.06,0.15
0.07,0.03,0.16
0.06,0.09,0.2
0.06,0.12,0.25
0.04,0.13,0.29
-0.01,0.11,0.33
-0.07,0.12,0.36
-0.1,0.15,0.39
-0.11,0.18,0.46
-0.15,0.18,0.51
-0.19,0.19,0.59
-0.25,0.17,0.61
-0.26,0.17,0.63
-0.24,0.17,0.68
-0.2,0.16,0.74
-0.19,0.17,0.81
-0.2,0.18,0.86
-0.19,0.19,0.89
-0.19,0.2,0.89
-0.21,0.21,0.88
-0.2,0.21,0.88
-0.19,0.19,0.89
-0.18,0.18,0.9
-0.18,0.18,0.91
-0.16,0.19,0.91
-0.13,0.18,0.91
-0.11,0.17,0.9
-0.1,0.17,0.89
-0.07,0.17,0.88
-0.06,0.17,0.85
-0.04,0.17,0.83
-0.04,0.18,0.8
-0.03,0.17,0.78
-0.02,0.17,0.75
-0.01,0.16,0.71
0,0.15,0.66
0,0.13,0.51
0.02,0.12,0.45
0.02,0.1,0.41
0.04,0.09,0.39
0.06,0.06,0.39
0.06,0.03,0.39
0.08,0.03,0.38
0.1,0.02,0.34
0.11,-0.02,0.3
0.1,-0.07,0.24
0.09,-0.12,0.19
0.08,-0.17,0.19
0.08,-0.24,0.24
0.14,-0.31,0.3
0.2,-0.35,0.36
0.24,-0.36,0.38
0.25,-0.4,0.36
0.26,-0.45,0.34
0.27,-0.51,0.35
0.28,-0.59,0.37
0.29,-0.68,0.41
0.27,-0.76,0.49
0.25,-0.84,0.54
0.25,-0.91,0.56
0.21,-0.85,0.57
0.19,-0.79,0.55
0.22,-0.9,0.67
0.28,-1.08,0.79
0.35,-1.13,0.81
0.41,-1.22,0.81
0.44,-1.26,0.77
0.43,-1.24,0.72
0.4,-1.23,0.66
0.39,-1.24,0.63
0.4,-1.29,0.71
0.46,-1.31,0.86
0.55,-1.28,0.94
0.61,-1.26,0.92
0.64,-1.29,0.9
0.63,-1.34,0.87
0.59,-1.37,0.86
0.56,-1.39,0.91
0.54,-1.42,0.98
0.52,-1.46,1.01
0.49,-1.49,1
0.47,-1.51,0.99
0.46,-1.49,0.97
0.45,-1.44,0.96
0.45,-1.39,0.96
0.47,-1.36,0.96
0.49,-1.33,0.99
0.53,-1.28,1.01
0.55,-1.22,0.96
0.54,-1.16,0.93
0.52,-1.13,0.88
0.52,-1.19,0.8
0.51,-1.25,0.73
0.45,-1.22,0.71
0.38,-1.21,0.74
0.42,-1.17,0.76
0.53,-1.11,0.87
0.74,-1.14,1
0.83,-1.18,1.17
0.09,-1.14,1.03
-0.54,-1.04,0.75
-0.25,-0.99,0.58
0.06,-1.04,0.38
0.08,-1.06,0.38
0.08,-1,0.4
0.12,-0.93,0.43
0.14,-0.9,0.49
0.19,-0.91,0.48
0.34,-0.89,0.39
0.48,-0.84,0.29
0.47,-0.81,0.21
0.4,-0.8,0.15
0.36,-0.8,0.09
0.36,-0.82,0.07
0.38,-0.82,0.07
0.41,-0.83,0.07
0.43,-0.82,0.08
0.44,-0.82,0.08
0.45,-0.83,0.08
0.45,-0.83,0.07
0.45,-0.84,0.06
0.45,-0.85,0.05
0.44,-0.87,0.05
0.44,-0.88,0.05
0.43,-0.9,0.07
0.43,-0.91,0.08
0.42,-0.91,0.11
0.42,-0.94,0.14
0.41,-0.96,0.19
0.39,-0.98,0.25
0.37,-0.97,0.32
0.35,-0.97,0.38
0.3,-1.01,0.43
0.26,-1.04,0.49
0.22,-1.05,0.56
0.18,-1.06,0.62
0.17,-1.05,0.73
0.14,-1.05,0.8
0.12,-1.07,0.77
0.11,-1.09,0.83
0.11,-1.07,0.93
0.07,-1.22,1.01
-0.03,-1.26,1.03
0.01,-1.26,1.2
0.02,-1.27,1.24
0,-1.29,1.25
-0.02,-1.31,1.23
-0.03,-1.36,1.21
-0.04,-1.42,1.21
-0.05,-1.47,1.23
-0.02,-1.53,1.24
0.04,-1.57,1.22
0.08,-1.55,1.21
0.09,-1.54,1.21
0.13,-1.56,1.2
0.18,-1.61,1.19
0.23,-1.65,1.16
0.24,-1.69,1.11
0.23,-1.65,1.04
0.2,-1.54,1.01
0.23,-1.45,0.99
0.26,-1.42,0.96
0.27,-1.42,0.96
0.31,-1.44,0.94
0.34,-1.44,0.88
0.36,-1.39,0.8
0.35,-1.34,0.73
0.34,-1.18,0.65
0.35,-1.06,0.63
0.38,-0.98,0.62
0.38,-0.94,0.58
0.36,-0.91,0.54
0.36,-0.85,0.49
0.39,-0.74,0.38
0.42,-0.64,0.32
0.45,-0.6,0.28
0.46,-0.56,0.3
0.45,-0.47,0.33
0.4,-0.33,0.34
0.32,-0.25,0.35
0.26,-0.2,0.3
0.24,-0.17,0.24
0.22,-0.18,0.2
0.18,-0.21,0.17
0.16,-0.12,0.13
0.2,0,0.12
0.27,0.04,0.2
0.28,0.06,0.29
0.21,0.06,0.3
0.11,0.07,0.24
0.06,0.07,0.19
0.07,0.08,0.17
0.05,0.13,0.21
0,0.17,0.33
-0.05,0.2,0.4
-0.07,0.2,0.46
-0.08,0.2,0.53
-0.09,0.2,0.59
-0.11,0.21,0.63
-0.14,0.21,0.68
-0.18,0.2,0.72
-0.22,0.2,0.76
-0.25,0.22,0.81
-0.24,0.23,0.87
-0.22,0.22,0.91
-0.2,0.2,0.92
-0.19,0.19,0.94
-0.18,0.21,0.95
-0.16,0.23,0.94
-0.13,0.21,0.92
-0.13,0.21,0.9
-0.12,0.21,0.87
-0.1,0.21,0.84
-0.08,0.2,0.81
-0.05,0.2,0.79
-0.02,0.21,0.75
0.01,0.22,0.7
0.04,0.23,0.64
0.07,0.23,0.57
0.1,0.22,0.47
0.1,0.19,0.45
0.11,0.17,0.43
0.13,0.14,0.41
0.14,0.12,0.39
0.14,0.11,0.37
0.14,0.11,0.33
0.14,0.1,0.28
0.13,0.07,0.28
0.11,0.04,0.31
0.12,0,0.36
0.15,-0.07,0.37
0.17,-0.18,0.35
0.19,-0.26,0.3
0.17,-0.29,0.27
0.15,-0.32,0.28
0.16,-0.31,0.33
0.21,-0.26,0.38
0.28,-0.26,0.39
0.32,-0.35,0.38
0.34,-0.51,0.37
0.35,-0.67,0.37
0.34,-0.78,0.4
0.35,-0.8,0.46
0.35,-0.81,0.51
0.32,-0.77,0.56
0.33,-0.76,0.56
0.35,-1.03,0.57
0.38,-1.18,0.67
0.43,-1.14,0.81
0.49,-1.1,0.85
0.52,-1.19,0.8
0.45,-1.24,0.71
0.39,-1.24,0.64
0.37,-1.3,0.65
0.39,-1.4,0.82
0.46,-1.42,0.99
0.54,-1.36,1.05
0.58,-1.34,1.03
0.56,-1.37,0.99
0.51,-1.4,0.95
0.45,-1.41,0.94
0.42,-1.46,1
0.43,-1.51,1.12
0.45,-1.54,1.17
0.45,-1.56,1.14
0.44,-1.57,1.09
0.42,-1.56,1.04
0.4,-1.5,1.02
0.38,-1.39,1.01
0.36,-1.3,1.02
0.37,-1.25,1.05
0.39,-1.2,1
0.37,-1.15,0.94
0.35,-1.14,0.89
0.34,-1.13,0.86
0.33,-1.1,0.85
0.3,-1.07,0.81
0.29,-1.09,0.72
0.3,-1.11,0.66
0.27,-1.08,0.62
0.28,-1.06,0.6
0.34,-1.03,0.59
0.38,-0.98,0.58
0.42,-0.94,0.74
0.47,-0.92,0.91
0.56,-0.97,0.93
0.49,-1.04,0.96
0.17,-1.06,0.77
0.03,-1,0.5
0.05,-0.93,0.35
0.02,-0.93,0.33
0.03,-1.02,0.34
0.15,-1.07,0.37
0.27,-0.95,0.43
0.32,-0.86,0.44
0.31,-0.91,0.41
0.31,-0.93,0.35
0.34,-0.91,0.2
0.34,-0.89,0.17
0.32,-0.89,0.17
0.32,-0.89,0.16
0.34,-0.9,0.15
0.35,-0.9,0.15
0.34,-0.91,0.16
0.35,-0.91,0.16
0.36,-0.92,0.16
0.37,-0.94,0.16
0.38,-0.95,0.16
0.38,-0.96,0.16
0.38,-0.97,0.15
0.38,-0.98,0.14
0.38,-0.98,0.13
0.38,-0.98,0.13
0.38,-0.97,0.12
0.38,-0.97,0.12
0.37,-0.97,0.14
0.35,-0.97,0.19
0.35,-0.98,0.21
0.35,-0.99,0.21
0.32,-0.99,0.21
0.29,-0.98,0.21
0.27,-0.98,0.24
0.26,-0.97,0.27
0.24,-0.95,0.32
0.2,-0.95,0.45
0.18,-0.96,0.53
0.14,-0.99,0.58
0.08,-1.02,0.6
0.03,-1.03,0.63
0.01,-1.04,0.63
0.01,-1.04,0.7
0.05,-1.03,0.82
0.07,-1.06,0.86
0.11,-1.08,0.97
0.12,-1.1,1.08
0.07,-1.15,1.14
0.06,-1.18,1.19
0.04,-1.21,1.2
0.01,-1.24,1.21
-0.02,-1.27,1.23
-0.04,-1.3,1.23
-0.07,-1.33,1.21
-0.07,-1.34,1.19
-0.07,-1.38,1.18
-0.05,-1.4,1.18
-0.01,-1.41,1.18
0.02,-1.42,1.15
0.04,-1.45,1.12
0.07,-1.47,1.1
0.1,-1.49,1.08
0.15,-1.52,1.06
0.19,-1.5,1.03
0.17,-1.49,1.01
0.14,-1.48,0.99
0.14,-1.45,0.96
0.15,-1.43,0.93
0.17,-1.42,0.91
0.18,-1.38,0.87
0.19,-1.31,0.82
0.21,-1.24,0.8
0.22,-1.17,0.79
0.21,-1.11,0.78
0.2,-1.05,0.75
0.2,-0.99,0.72
0.2,-0.93,0.65
0.2,-0.87,0.57
0.21,-0.82,0.51
0.22,-0.76,0.46
0.23,-0.69,0.41
0.25,-0.62,0.39
0.26,-0.54,0.41
0.29,-0.49,0.39
0.29,-0.41,0.34
0.25,-0.27,0.29
0.23,-0.23,0.27
0.22,-0.21,0.23
0.2,-0.12,0.15
0.21,-0.11,0.14
0.22,-0.04,0.14
0.23,-0.02,0.14
0.19,-0.02,0.13
0.17,0.03,0.11
0.16,0.07,0.12
0.15,0.1,0.16
0.15,0.11,0.2
0.14,0.15,0.27
0.11,0.17,0.33
0.06,0.18,0.38
0.02,0.2,0.41
0.02,0.22,0.45
0.02,0.22,0.51
0.02,0.2,0.58
0,0.18,0.62
-0.03,0.16,0.65
-0.06,0.15,0.67
-0.08,0.15,0.71
-0.1,0.16,0.74
-0.1,0.19,0.81
-0.07,0.22,0.89
-0.06,0.21,0.94
-0.07,0.19,0.97
-0.08,0.18,0.97
-0.08,0.17,0.96
-0.08,0.16,0.96
-0.06,0.18,0.97
-0.04,0.18,0.99
-0.03,0.18,1.01
-0.03,0.18,1.03
-0.03,0.17,1.04
-0.03,0.16,1.04
-0.03,0.17,1.02
0,0.19,1.01
0.03,0.19,1
0.05,0.17,1
0.06,0.16,0.98
0.07,0.16,0.94
0.08,0.16,0.9
0.08,0.15,0.87
0.08,0.16,0.86
0.09,0.16,0.83
0.09,0.15,0.78
0.08,0.14,0.73
0.08,0.14,0.67
0.09,0.13,0.6
0.11,0.13,0.52
0.13,0.13,0.43
0.14,0.11,0.36
0.14,0.07,0.33
0.15,0.04,0.32
0.19,0,0.3
0.2,-0.03,0.27
0.19,-0.06,0.24
0.18,-0.1,0.21
0.18,-0.14,0.2
0.18,-0.18,0.21
0.19,-0.22,0.23
0.19,-0.28,0.25
0.2,-0.36,0.28
0.21,-0.45,0.3
0.2,-0.53,0.31
0.18,-0.57,0.29
0.16,-0.58,0.28
0.15,-0.58,0.29
0.15,-0.62,0.29
0.16,-0.72,0.33
0.18,-0.85,0.43
0.23,-0.98,0.52
0.29,-1.08,0.52
0.3,-1.09,0.49
0.34,-1.07,0.44
0.32,-1.12,0.43
0.24,-1.12,0.55
0.26,-1.15,0.68
0.32,-1.29,0.74
0.34,-1.39,0.73
0.37,-1.51,0.68
0.36,-1.5,0.69
0.36,-1.48,0.76
0.38,-1.49,0.89
0.38,-1.47,1.01
0.39,-1.46,1.03
0.41,-1.51,1.04
0.42,-1.56,1.05
0.41,-1.56,1.05
0.36,-1.53,1.07
0.3,-1.49,1.16
0.27,-1.44,1.22
0.26,-1.41,1.2
0.24,-1.42,1.18
0.23,-1.44,1.15
0.25,-1.44,1.11
0.26,-1.42,1.05
0.28,-1.39,0.99
0.3,-1.36,0.95
0.31,-1.35,0.95
0.32,-1.33,0.96
0.33,-1.27,0.95
0.34,-1.19,0.92
0.33,-1.14,0.88
0.32,-1.14,0.81
0.32,-1.16,0.73
0.29,-1.12,0.73
0.37,-1.05,0.85
0.4,-0.98,1
0.32,-0.98,1.13
0.25,-0.93,1.12
0.15,-0.89,0.87
-0.01,-0.95,0.64
-0.13,-0.99,0.52
-0.14,-0.98,0.45
0.04,-0.99,0.39
0.28,-0.98,0.36
0.36,-0.96,0.35
0.36,-0.93,0.33
0.37,-0.94,0.28
0.4,-0.95,0.2
0.42,-0.94,0.13
0.4,-0.93,0.08
0.39,-0.91,0.06
0.36,-0.91,0.07
0.34,-0.92,0.08
0.33,-0.91,0.09
0.32,-0.9,0.11
0.31,-0.92,0.12
0.31,-0.94,0.15
0.31,-0.96,0.18
0.3,-0.98,0.3
0.29,-1.01,0.34
0.29,-1.03,0.39
0.28,-1.04,0.45
0.26,-1.07,0.51
0.24,-1.1,0.56
0.21,-1.12,0.59
0.15,-1.15,0.66
0.13,-1.18,0.76
0.12,-1.22,0.85
0.1,-1.25,0.93
0.1,-1.31,1.12
0.11,-1.34,1.36
0.07,-1.32,1.49
-0.05,-1.31,1.54
-0.14,-1.31,1.49
-0.19,-1.3,1.42
-0.2,-1.31,1.39
-0.13,-1.35,1.39
-0.03,-1.42,1.43
0.07,-1.5,1.48
0.13,-1.57,1.46
0.12,-1.63,1.39
0.09,-1.68,1.3
0.11,-1.72,1.21
0.15,-1.76,1.15
0.19,-1.8,1.11
0.22,-1.8,1.02
0.32,-1.76,0.94
0.36,-1.73,0.87
0.39,-1.71,0.82
0.42,-1.66,0.78
0.41,-1.6,0.72
0.42,-1.47,0.64
0.45,-1.33,0.57
0.46,-1.28,0.53
0.43,-1.24,0.51
0.4,-1.17,0.45
0.34,-1.09,0.39
0.31,-1.05,0.31
0.37,-0.96,0.23
0.44,-0.77,0.19
0.44,-0.6,0.14
0.43,-0.51,0.11
0.48,-0.42,0.15
0.49,-0.37,0.17
0.43,-0.34,0.19
0.36,-0.29,0.17
0.31,-0.23,0.12
0.26,-0.18,0.08
0.26,-0.16,0.07
0.26,-0.07,0.07
0.23,0.04,0.09
0.21,0.06,0.1
0.17,0.08,0.1
0.16,0.11,0.12
0.15,0.14,0.14
0.15,0.14,0.19
0.14,0.12,0.25
0.09,0.14,0.32
0.05,0.18,0.38
0.03,0.18,0.42
0.01,0.17,0.47
0,0.17,0.55
-0.01,0.18,0.62
-0.03,0.17,0.69
-0.08,0.15,0.74
-0.13,0.16,0.77
-0.16,0.17,0.81
-0.16,0.17,0.86
-0.18,0.17,0.9
-0.18,0.15,0.96
-0.16,0.15,1.01
-0.16,0.16,1.05
-0.15,0.18,1.06
-0.14,0.19,1.05
-0.13,0.19,1.03
-0.12,0.18,1.02
-0.1,0.15,1.02
-0.09,0.16,0.98
-0.03,0.17,0.95
-0.01,0.18,0.9
0.01,0.17,0.84
0.03,0.16,0.79
0.05,0.16,0.74
0.08,0.17,0.69
0.11,0.18,0.64
0.14,0.17,0.59
0.16,0.16,0.53
0.17,0.15,0.47
0.17,0.14,0.43
0.16,0.12,0.4
0.16,0.12,0.37
0.17,0.1,0.34
0.17,0.07,0.3
0.16,0.04,0.27
0.16,0,0.24
0.16,-0.04,0.23
0.16,-0.08,0.23
0.15,-0.12,0.25
0.16,-0.17,0.26
0.18,-0.2,0.29
0.2,-0.21,0.33
0.24,-0.22,0.35
0.26,-0.26,0.34
0.27,-0.33,0.3
0.28,-0.58,0.38
0.31,-0.64,0.49
0.34,-0.62,0.56
0.32,-0.57,0.56
0.33,-0.62,0.5
0.37,-0.76,0.46
0.3,-0.8,0.48
0.3,-0.84,0.58
0.38,-0.97,0.71
0.44,-1.02,0.8
0.46,-0.96,0.81
0.46,-0.97,0.76
0.47,-1,0.71
0.43,-1.02,0.64
0.4,-1.15,0.63
0.41,-1.25,0.78
0.46,-1.26,0.91
0.52,-1.25,0.9
0.54,-1.24,0.87
0.58,-1.23,0.87
0.62,-1.21,0.86
0.59,-1.2,0.84
0.52,-1.2,0.84
0.48,-1.24,0.91
0.52,-1.26,0.98
0.56,-1.25,1.01
0.57,-1.25,0.98
0.59,-1.25,0.94
0.58,-1.24,0.9
0.56,-1.23,0.87
0.56,-1.22,0.9
0.59,-1.21,0.95
0.62,-1.18,0.96
0.64,-1.16,0.93
0.63,-1.16,0.94
0.61,-1.16,0.92
0.57,-1.15,0.87
0.53,-1.14,0.81
0.48,-1.13,0.78
0.47,-1.15,0.79
0.5,-1.15,0.8
0.53,-1.09,0.8
0.53,-1.04,0.78
0.54,-1.03,0.75
0.54,-1.02,0.72
0.53,-1,0.72
0.52,-0.98,0.71
0.52,-0.96,0.68
0.52,-0.94,0.66
0.52,-0.94,0.64
0.5,-0.95,0.62
0.48,-0.93,0.54
0.48,-0.92,0.47
0.45,-0.93,0.42
0.42,-0.92,0.38
0.41,-0.93,0.34
0.4,-0.93,0.3
0.4,-0.91,0.3
0.38,-0.87,0.3
0.36,-0.87,0.26
0.34,-0.91,0.25
0.33,-0.92,0.25
0.33,-0.91,0.24
0.33,-0.92,0.23
0.33,-0.93,0.21
0.33,-0.94,0.2
0.33,-0.93,0.21
0.33,-0.93,0.24
0.33,-0.93,0.28
0.33,-0.95,0.32
0.31,-0.98,0.39
0.29,-1,0.48
0.29,-1,0.51
0.29,-1,0.52
0.28,-1,0.58
0.28,-1.02,0.68
0.31,-1.05,0.79
0.32,-1.06,0.99
0.28,-1.07,1.06
0.27,-1.06,1.14
0.26,-1.1,1.23
0.26,-1.15,1.32
0.23,-1.2,1.37
0.17,-1.23,1.38
0.11,-1.24,1.38
0.07,-1.3,1.37
0.07,-1.34,1.36
0.12,-1.36,1.38
0.15,-1.39,1.39
0.19,-1.45,1.39
0.23,-1.51,1.38
0.27,-1.57,1.37
0.31,-1.62,1.34
0.31,-1.66,1.3
0.33,-1.7,1.27
0.35,-1.68,1.24
0.36,-1.64,1.21
0.36,-1.59,1.17
0.37,-1.57,1.11
0.35,-1.56,1.04
0.33,-1.53,0.98
0.33,-1.48,0.92
0.35,-1.43,0.86
0.41,-1.39,0.78
0.46,-1.31,0.6
0.46,-1.17,0.58
0.44,-1.11,0.5
0.39,-1.09,0.41
0.38,-0.97,0.39
0.41,-0.87,0.32
0.4,-0.81,0.23
0.41,-0.72,0.21
0.42,-0.58,0.2
0.44,-0.45,0.2
0.44,-0.39,0.22
0.39,-0.36,0.22
0.31,-0.32,0.17
0.27,-0.26,0.15
0.26,-0.17,0.12
0.22,-0.1,0.1
0.15,-0.11,0.07
0.12,-0.02,0.05
0.15,0.05,0.07
0.16,0.05,0.08
0.13,0.1,0.1
0.07,0.09,0.13
0.02,0.06,0.15
0,0.1,0.17
0,0.15,0.22
-0.01,0.2,0.29
0,0.27,0.4
0,0.25,0.46
-0.04,0.24,0.51
-0.07,0.25,0.55
-0.11,0.24,0.59
-0.14,0.24,0.63
-0.15,0.25,0.66
-0.15,0.27,0.71
-0.12,0.28,0.75
-0.1,0.27,0.79
-0.07,0.25,0.81
-0.04,0.23,0.83
-0.02,0.21,0.85
-0.01,0.19,0.88
-0.01,0.2,0.92
-0.02,0.21,0.94
-0.03,0.22,0.95
-0.03,0.22,0.95
-0.03,0.21,0.95
-0.02,0.2,0.96
-0.02,0.18,0.97
-0.03,0.18,0.97
-0.02,0.19,0.96
-0.01,0.21,0.94
0,0.21,0.91
0,0.21,0.87
0.02,0.2,0.81
0.06,0.18,0.77
0.06,0.17,0.72
0.06,0.17,0.66
0.07,0.16,0.59
0.08,0.13,0.52
0.09,0.11,0.46
0.09,0.09,0.4
0.09,0.07,0.36
0.09,0.07,0.34
0.1,0.07,0.34
0.12,0.07,0.35
0.14,0.05,0.34
0.15,0.02,0.33
0.14,-0.02,0.31
0.13,-0.08,0.27
0.13,-0.15,0.24
0.13,-0.23,0.23
0.13,-0.31,0.25
0.12,-0.35,0.28
0.14,-0.36,0.31
0.15,-0.36,0.34
0.16,-0.4,0.38
0.2,-0.44,0.4
0.25,-0.46,0.4
0.28,-0.53,0.4
0.29,-0.67,0.45
0.3,-0.86,0.48
0.29,-0.9,0.51
0.3,-0.9,0.55
0.25,-0.75,0.61
0.27,-0.83,0.6
0.36,-1.05,0.57
0.36,-1.17,0.64
0.4,-1.27,0.74
0.43,-1.31,0.8
0.44,-1.33,0.82
0.45,-1.34,0.82
0.47,-1.34,0.81
0.48,-1.36,0.79
0.48,-1.4,0.8
0.49,-1.44,0.89
0.53,-1.47,1.01
0.58,-1.47,1.08
0.61,-1.48,1.12
0.62,-1.49,1.12
0.62,-1.47,1.09
0.63,-1.42,1.05
0.62,-1.37,1.01
0.58,-1.36,1.05
0.56,-1.35,1.14
0.57,-1.32,1.16
0.58,-1.27,1.09
0.58,-1.26,1.1
0.57,-1.26,1.09
0.54,-1.24,1.03
0.5,-1.19,0.96
0.45,-1.16,0.92
0.43,-1.13,0.88
0.43,-1.11,0.86
0.42,-1.1,0.83
0.43,-1.12,0.79
0.46,-1.14,0.75
0.48,-1.13,0.73
0.49,-1.1,0.69
0.5,-1.03,0.72
0.56,-0.98,0.81
0.63,-1.03,0.8
0.78,-1.01,0.88
0.69,-0.92,1.02
0.16,-0.91,0.83
-0.08,-0.92,0.57
0.02,-0.92,0.45
0,-0.95,0.37
0.01,-1,0.39
0.15,-1.02,0.43
0.33,-0.97,0.44
0.4,-0.88,0.4
0.35,-0.85,0.29
0.37,-0.89,0.2
0.4,-0.84,0.17
0.39,-0.81,0.15
0.37,-0.82,0.12
0.35,-0.82,0.12
0.34,-0.82,0.12
0.34,-0.82,0.13
0.35,-0.83,0.14
0.35,-0.86,0.15
0.35,-0.89,0.17
0.36,-0.91,0.17
0.37,-0.92,0.16
0.37,-0.95,0.18
0.36,-0.97,0.21
0.36,-0.98,0.24
0.35,-0.99,0.29
0.39,-1,0.36
0.38,-1.03,0.43
0.35,-1.06,0.47
0.35,-1.06,0.53
0.29,-1.05,0.58
0.26,-1.02,0.6
0.25,-1.03,0.68
0.17,-1.11,0.82
0.15,-1.11,0.98
0.14,-1.07,1.06
-0.05,-1.05,1.1
-0.11,-1.04,1.18
-0.16,-1.05,1.25
-0.19,-1.08,1.3
-0.19,-1.13,1.35
-0.19,-1.19,1.36
-0.19,-1.25,1.34
-0.17,-1.31,1.35
-0.15,-1.36,1.37
-0.13,-1.4,1.38
-0.11,-1.43,1.41
-0.1,-1.46,1.43
-0.07,-1.48,1.43
-0.04,-1.5,1.4
-0.02,-1.52,1.35
-0.01,-1.56,1.31
0.01,-1.58,1.27
0.05,-1.6,1.24
0.09,-1.59,1.22
0.13,-1.59,1.16
0.14,-1.59,1.1
0.16,-1.57,1.03
0.18,-1.53,0.97
0.23,-1.47,0.93
0.28,-1.4,0.9
0.32,-1.33,0.75
0.34,-1.23,0.62
0.35,-1.15,0.51
0.37,-1.04,0.44
0.36,-0.94,0.41
0.4,-0.88,0.39
0.45,-0.85,0.32
0.47,-0.77,0.28
0.45,-0.65,0.26
0.41,-0.56,0.24
0.38,-0.46,0.21
0.35,-0.39,0.17
0.31,-0.34,0.12
0.28,-0.24,0.08
0.28,-0.19,0.03
0.3,-0.14,-0.01
0.32,-0.08,-0.02
0.3,-0.06,0.01
0.26,0.04,0.03
0.21,0.1,0.03
0.18,0.09,0.04
0.18,0.13,0.06
0.18,0.16,0.09
0.17,0.16,0.14
0.15,0.19,0.19
0.11,0.2,0.25
0.08,0.2,0.3
0.04,0.22,0.38
-0.01,0.22,0.43
0,0.22,0.47
0,0.22,0.55
-0.02,0.21,0.64
-0.04,0.2,0.72
-0.07,0.2,0.78
-0.1,0.21,0.82
-0.11,0.21,0.87
-0.11,0.21,0.9
-0.1,0.22,0.92
-0.07,0.21,0.93
-0.07,0.2,0.93
-0.08,0.19,0.93
-0.07,0.19,0.91
-0.04,0.19,0.9
-0.03,0.18,0.89
-0.01,0.16,0.86
0.02,0.15,0.83
0.04,0.15,0.79
0.06,0.15,0.74
0.06,0.15,0.71
0.07,0.14,0.67
0.07,0.14,0.62
0.08,0.13,0.57
0.08,0.1,0.51
0.09,0.04,0.39
0.09,0.02,0.36
0.09,-0.01,0.35
0.1,-0.03,0.35
0.13,-0.04,0.35
0.14,-0.06,0.34
0.15,-0.08,0.31
0.15,-0.09,0.28
0.14,-0.12,0.24
0.15,-0.18,0.23
0.15,-0.26,0.25
0.17,-0.34,0.29
0.2,-0.43,0.36
0.24,-0.51,0.4
0.25,-0.54,0.39
0.25,-0.57,0.34
0.26,-0.6,0.25
0.24,-0.65,0.19
0.25,-0.73,0.22
0.32,-0.84,0.34
0.41,-0.96,0.48
0.42,-0.91,0.62
0.48,-0.96,0.66
0.49,-1.12,0.6
0.39,-1.11,0.56
0.39,-1.08,0.5
0.39,-1.3,0.63
0.45,-1.37,0.77
0.54,-1.42,0.82
0.59,-1.45,0.83
0.6,-1.45,0.83
0.59,-1.44,0.8
0.57,-1.46,0.8
0.54,-1.48,0.91
0.51,-1.44,1.03
0.47,-1.35,1.1
0.47,-1.3,1.17
0.49,-1.31,1.19
0.5,-1.34,1.14
0.47,-1.36,1.09
0.43,-1.36,1.06
0.4,-1.37,1.04
0.37,-1.38,1.06
0.36,-1.39,1.12
0.36,-1.37,1.14
0.35,-1.35,1.11
0.34,-1.33,1.07
0.33,-1.3,1.03
0.31,-1.26,0.98
0.3,-1.2,0.94
0.3,-1.16,0.87
0.31,-1.13,0.8
0.31,-1.1,0.72
0.33,-1.06,0.68
0.33,-1.05,0.62
0.31,-1.05,0.55
0.36,-1.06,0.57
0.48,-1.05,0.74
0.53,-1.07,1.01
0.38,-1.07,1.14
0.31,-0.95,0.98
0.34,-0.86,0.75
0.16,-0.9,0.59
0.01,-0.96,0.55
-0.11,-0.99,0.53
0,-1.05,0.48
0.37,-1.07,0.42
0.57,-1.02,0.36
0.49,-0.97,0.34
0.36,-0.97,0.29
0.32,-1,0.2
0.33,-1,0.12
0.35,-0.96,0.06
0.35,-0.95,0.03
0.34,-0.95,0.01
0.33,-0.94,0.03
0.31,-0.93,0.06
0.3,-0.93,0.07
0.3,-0.92,0.11
0.3,-0.93,0.1
0.32,-0.93,0.1
0.33,-0.93,0.09
0.34,-0.93,0.08
0.35,-0.93,0.07
0.35,-0.93,0.07
0.36,-0.94,0.07
0.36,-0.95,0.07
0.37,-0.94,0.09
0.38,-0.94,0.11
0.38,-0.94,0.13
0.36,-0.96,0.17
0.34,-0.98,0.23
0.33,-1,0.3
0.32,-1.01,0.34
0.29,-1.01,0.35
0.24,-1,0.38
0.15,-0.97,0.43
0.09,-0.96,0.48
0.04,-0.98,0.55
0.01,-0.99,0.61
0,-0.98,0.66
-0.02,-0.97,0.72
-0.05,-0.94,0.8
-0.1,-0.97,0.86
-0.15,-1.04,0.89
-0.12,-1.11,0.94
-0.11,-1.16,0.98
-0.15,-1.22,1.05
-0.14,-1.23,1.17
-0.11,-1.27,1.24
-0.11,-1.34,1.24
-0.13,-1.39,1.23
-0.14,-1.42,1.24
-0.13,-1.43,1.24
-0.09,-1.41,1.24
-0.06,-1.42,1.23
-0.03,-1.43,1.21
-0.01,-1.47,1.21
0.01,-1.53,1.23
0.04,-1.59,1.22
0.07,-1.59,1.16
0.1,-1.55,1.11
0.13,-1.51,1.1
0.15,-1.47,1.11
0.18,-1.46,1.09
0.2,-1.45,1.06
0.21,-1.44,1.01
0.21,-1.44,0.93
0.2,-1.42,0.85
0.22,-1.36,0.79
0.26,-1.3,0.69
0.3,-1.2,0.64
0.32,-1.12,0.57
0.32,-1.01,0.51
0.31,-0.95,0.44
0.31,-0.93,0.37
0.34,-0.85,0.29
0.39,-0.78,0.2
0.42,-0.72,0.15
0.39,-0.57,0.15
0.33,-0.41,0.17
0.34,-0.34,0.18
0.36,-0.36,0.2
0.29,-0.34,0.22
0.27,-0.27,0.18
0.3,-0.19,0.12
0.31,-0.17,0.1
0.34,-0.14,0.13
0.31,-0.11,0.18
0.22,-0.13,0.19
0.16,-0.11,0.2
0.12,-0.02,0.23
0.13,0.03,0.27
0.17,0.05,0.31
0.17,0.06,0.36
0.14,0.09,0.41
0.11,0.1,0.45
0.07,0.11,0.52
0.07,0.12,0.56
0.08,0.11,0.62
0.12,0.12,0.7
0.13,0.17,0.77
0.08,0.19,0.82
0.01,0.18,0.83
-0.04,0.14,0.84
-0.06,0.11,0.88
-0.05,0.11,0.93
-0.02,0.12,0.96
0,0.12,0.98
0,0.12,1
0.01,0.13,1.02
0.01,0.15,1.02
-0.01,0.16,1
-0.02,0.14,0.98
-0.04,0.12,0.96
-0.04,0.13,0.92
-0.03,0.13,0.87
0,0.14,0.82
0.02,0.15,0.76
0.03,0.16,0.72
0.06,0.16,0.68
0.1,0.16,0.65
0.11,0.16,0.61
0.11,0.15,0.54
0.11,0.15,0.5
0.11,0.16,0.44
0.11,0.16,0.38
0.12,0.15,0.32
0.14,0.14,0.25
0.16,0.12,0.19
0.18,0.11,0.15
0.21,0.07,0.13
0.24,0.03,0.13
0.26,-0.01,0.13
0.26,-0.06,0.15
0.26,-0.15,0.17
0.26,-0.26,0.2
0.24,-0.32,0.24
0.23,-0.33,0.27
0.23,-0.34,0.31
0.24,-0.38,0.35
0.26,-0.46,0.37
0.25,-0.57,0.4
0.21,-0.67,0.45
0.19,-0.72,0.5
0.18,-0.75,0.53
0.17,-0.74,0.54
0.14,-0.69,0.49
0.21,-0.78,0.48
0.25,-1.07,0.74
0.22,-1.13,0.81
0.27,-1.16,0.82
0.28,-1.17,0.82
0.28,-1.2,0.81
0.26,-1.25,0.79
0.24,-1.29,0.76
0.22,-1.34,0.79
0.23,-1.35,0.85
0.3,-1.31,0.91
0.37,-1.29,1
0.38,-1.31,1.03
0.34,-1.34,1.01
0.27,-1.35,0.97
0.25,-1.36,0.91
0.25,-1.37,0.85
0.25,-1.39,0.85
0.26,-1.44,0.95
0.3,-1.46,1.08
0.32,-1.38,1.17
0.32,-1.29,1.21
0.34,-1.24,1.19
0.29,-1.22,1.15
0.21,-1.2,1.12
0.16,-1.18,1.08
0.14,-1.18,1.06
0.12,-1.18,1.05
0.14,-1.2,1.05
0.17,-1.18,1.05
0.22,-1.16,1.03
0.26,-1.14,1
0.28,-1.12,0.96
0.31,-1.13,0.91
0.34,-1.15,0.87
0.34,-1.14,0.83
0.33,-1.11,0.82
0.38,-1.12,0.86
0.45,-1.06,0.91
0.34,-0.97,1.16
0.08,-0.99,1.22
-0.13,-1.05,0.92
-0.27,-1.03,0.71
-0.18,-0.97,0.56
0,-1,0.52
0.12,-1.07,0.5
0.25,-1.05,0.41
0.31,-0.99,0.39
0.33,-0.93,0.41
0.28,-0.88,0.42
0.27,-0.9,0.39
0.31,-0.91,0.34
0.33,-0.9,0.29
0.34,-0.88,0.21
0.4,-0.87,0.2
0.39,-0.87,0.19
0.39,-0.85,0.19
0.4,-0.84,0.19
0.42,-0.84,0.18
0.43,-0.83,0.17
0.43,-0.82,0.15
0.43,-0.82,0.14
0.44,-0.82,0.13
0.44,-0.82,0.11
0.44,-0.82,0.1
0.45,-0.81,0.08
0.46,-0.82,0.07
0.46,-0.82,0.06
0.46,-0.82,0.06
0.46,-0.82,0.06
0.46,-0.82,0.05
0.47,-0.83,0.04
0.48,-0.83,0.03
0.48,-0.84,0.02
0.46,-0.84,0.03
0.43,-0.85,0.07
0.4,-0.87,0.12
0.38,-0.89,0.17
0.34,-0.9,0.21
0.29,-0.91,0.3
0.21,-0.91,0.34
0.22,-0.92,0.36
0.24,-0.92,0.4
0.23,-0.95,0.51
0.19,-1.01,0.62
0.16,-1.07,0.71
0.14,-1.08,0.77
0.11,-1.09,0.8
0.12,-1.07,0.87
0.17,-1.06,1.01
0.22,-1.1,1.11
0.24,-1.12,1.27
0.23,-1.16,1.38
0.2,-1.21,1.38
0.19,-1.23,1.38
0.13,-1.28,1.36
0.07,-1.32,1.4
0.04,-1.35,1.45
0.03,-1.38,1.51
0.03,-1.4,1.53
0.01,-1.43,1.51
-0.02,-1.49,1.49
-0.03,-1.54,1.44
0.02,-1.57,1.4
0.06,-1.59,1.38
0.09,-1.61,1.24
0.19,-1.65,1.14
0.22,-1.65,1.06
0.26,-1.64,0.99
0.31,-1.61,0.95
0.34,-1.57,0.91
0.36,-1.52,0.86
0.37,-1.49,0.81
0.36,-1.47,0.77
0.35,-1.44,0.71
0.34,-1.38,0.65
0.34,-1.3,0.63
0.35,-1.22,0.61
0.37,-1.13,0.58
0.36,-1.07,0.54
0.33,-1.01,0.47
0.3,-0.92,0.41
0.3,-0.84,0.36
0.31,-0.77,0.29
0.31,-0.68,0.24
0.3,-0.61,0.2
0.29,-0.54,0.15
0.28,-0.45,0.12
0.28,-0.41,0.1
0.28,-0.39,0.08
0.28,-0.34,0.08
0.27,-0.25,0.07
0.2,-0.11,0.11
0.18,-0.1,0.12
0.19,-0.07,0.14
0.17,-0.01,0.16
0.15,0,0.16
0.14,0.02,0.19
0.11,0.07,0.23
0.09,0.1,0.28
0.08,0.12,0.34
0.07,0.14,0.38
0.06,0.2,0.39
0.07,0.23,0.39
0.05,0.2,0.39
0.03,0.18,0.41
0.03,0.18,0.45
0.03,0.2,0.49
0.02,0.2,0.5
0.02,0.19,0.52
0.03,0.2,0.54
0.05,0.2,0.55
0.07,0.19,0.54
0.09,0.18,0.52
0.09,0.17,0.52
0.08,0.17,0.53
0.09,0.17,0.53
0.08,0.15,0.54
0.08,0.14,0.52
0.09,0.12,0.48
0.11,0.1,0.44
0.12,0.08,0.4
0.13,0.05,0.36
0.13,0,0.34
0.13,-0.05,0.36
0.14,-0.09,0.4
0.16,-0.11,0.44
0.17,-0.11,0.46
0.18,-0.13,0.45
0.2,-0.15,0.43
0.21,-0.17,0.4
0.22,-0.21,0.37
0.21,-0.26,0.4
0.18,-0.32,0.45
0.18,-0.37,0.5
0.21,-0.41,0.52
0.23,-0.46,0.5
0.23,-0.53,0.44
0.22,-0.58,0.4
0.2,-0.61,0.37
0.16,-0.76,0.39
0.17,-0.77,0.52
0.28,-0.62,0.61
0.4,-0.64,0.58
0.43,-0.89,0.54
0.45,-1.04,0.46
0.42,-1.12,0.4
0.38,-1.12,0.4
0.41,-1.21,0.48
0.44,-1.29,0.64
0.5,-1.21,0.72
0.61,-1.22,0.72
0.65,-1.35,0.74
0.65,-1.45,0.72
0.61,-1.48,0.65
0.52,-1.49,0.62
0.5,-1.51,0.69
0.55,-1.51,0.81
0.61,-1.47,0.88
0.62,-1.4,0.92
0.61,-1.39,0.94
0.6,-1.45,0.92
0.55,-1.49,0.89
0.5,-1.51,0.93
0.49,-1.53,1.05
0.53,-1.5,1.11
0.53,-1.43,1.09
0.51,-1.36,1.09
0.51,-1.31,1.09
0.53,-1.26,1.08
0.51,-1.19,1.03
0.44,-1.16,0.99
0.42,-1.18,0.96
0.42,-1.22,0.92
0.41,-1.21,0.88
0.4,-1.19,0.85
0.41,-1.21,0.89
0.5,-1.23,0.93
0.58,-1.24,1.11
0.8,-1.16,1.52
0.38,-1.08,1.36
-0.43,-1.08,0.85
-0.39,-1.03,0.68
-0.11,-1.01,0.54
0,-1.08,0.41
0.09,-1.12,0.41
0.17,-1.06,0.47
0.22,-1.01,0.46
0.27,-0.96,0.39
0.29,-0.94,0.32
0.31,-0.94,0.24
0.33,-0.92,0.18
0.36,-0.89,0.14
0.36,-0.87,0.12
0.37,-0.86,0.12
0.36,-0.84,0.12
0.36,-0.83,0.07
0.39,-0.84,0.07
0.39,-0.82,0.08
0.39,-0.81,0.06
0.38,-0.81,0.05
0.38,-0.81,0.05
0.38,-0.81,0.06
0.39,-0.83,0.05
0.39,-0.85,0.04
0.38,-0.87,0.07
0.37,-0.9,0.1
0.36,-0.92,0.14
0.36,-0.93,0.17
0.36,-0.94,0.19
0.36,-0.95,0.2
0.34,-0.95,0.21
0.31,-0.96,0.24
0.29,-1,0.31
0.27,-1.05,0.39
0.25,-1.08,0.49
0.24,-1.11,0.59
0.19,-1.16,0.68
0.15,-1.17,0.77
0.13,-1.17,0.87
0.07,-1.17,0.91
0.01,-1.14,0.95
-0.08,-1.11,1.04
-0.24,-1.1,1.15
-0.26,-1.13,1.22
-0.27,-1.19,1.29
-0.27,-1.26,1.35
-0.26,-1.27,1.35
-0.25,-1.31,1.38
-0.26,-1.39,1.42
-0.28,-1.45,1.43
-0.25,-1.5,1.43
-0.23,-1.58,1.42
-0.22,-1.65,1.4
-0.21,-1.68,1.35
-0.15,-1.71,1.3
-0.06,-1.73,1.23
0.02,-1.75,1.17
0.1,-1.76,1.13
0.17,-1.75,1.08
0.24,-1.71,1.03
0.28,-1.67,0.98
0.29,-1.63,0.94
0.29,-1.55,0.87
0.28,-1.46,0.79
0.29,-1.39,0.74
0.32,-1.37,0.7
0.36,-1.35,0.65
0.39,-1.31,0.56
0.43,-1.09,0.51
0.42,-0.95,0.45
0.44,-0.84,0.39
0.47,-0.8,0.33
0.45,-0.74,0.28
0.42,-0.67,0.24
0.37,-0.61,0.18
0.37,-0.5,0.11
0.4,-0.37,0.06
0.39,-0.31,0.02
0.37,-0.3,0
0.36,-0.27,-0.03
0.34,-0.2,-0.08
0.35,-0.12,-0.12
0.4,-0.05,-0.12
0.39,0.01,-0.08
0.32,0.01,-0.03
0.24,-0.02,-0.01
0.16,0.03,0.02
0.11,0.05,0.05
0.08,0.06,0.08
0.06,0.07,0.12
0.07,0.1,0.18
0.08,0.14,0.27
0.07,0.14,0.39
0.05,0.14,0.59
-0.02,0.14,0.62
-0.06,0.12,0.65
-0.09,0.11,0.69
-0.11,0.08,0.74
-0.12,0.08,0.77
-0.12,0.1,0.81
-0.11,0.13,0.84
-0.09,0.15,0.86
-0.08,0.15,0.9
-0.08,0.14,0.92
-0.08,0.14,0.92
-0.07,0.14,0.9
-0.05,0.14,0.86
-0.04,0.13,0.82
-0.02,0.1,0.76
-0.01,0.07,0.7
0.01,0.05,0.64
0.04,0.03,0.6
0.08,0.02,0.57
0.12,0.01,0.55
0.16,-0.01,0.53
0.18,-0.03,0.51
0.18,-0.04,0.47
0.18,-0.06,0.42
0.17,-0.1,0.39
0.16,-0.14,0.38
0.15,-0.16,0.39
0.16,-0.18,0.38
0.17,-0.24,0.34
0.19,-0.32,0.29
0.19,-0.41,0.24
0.18,-0.49,0.26
0.16,-0.54,0.34
0.2,-0.55,0.42
0.25,-0.49,0.47
0.29,-0.45,0.48
0.31,-0.45,0.46
0.32,-0.52,0.42
0.35,-0.66,0.37
0.34,-0.77,0.35
0.3,-0.89,0.39
0.32,-1,0.53
0.38,-1,0.65
0.38,-0.83,0.69
0.4,-0.83,0.64
0.41,-1,0.55
0.38,-1.06,0.49
0.36,-1.11,0.46
0.38,-1.22,0.53
0.41,-1.35,0.68
0.48,-1.45,0.78
0.54,-1.51,0.84
0.56,-1.45,0.79
0.56,-1.38,0.72
0.55,-1.38,0.66
0.54,-1.42,0.73
0.58,-1.44,0.89
0.66,-1.48,1.01
0.71,-1.52,1.09
0.7,-1.54,1.09
0.65,-1.51,1.04
0.58,-1.46,0.96
0.52,-1.41,0.92
0.48,-1.37,0.92
0.48,-1.37,0.99
0.51,-1.35,1.07
0.53,-1.3,1.11
0.54,-1.26,1.11
0.53,-1.25,1.07
0.49,-1.23,1.04
0.47,-1.23,1
0.46,-1.24,0.93
0.38,-1.26,0.86
0.31,-1.22,0.84
0.33,-1.17,0.84
0.35,-1.18,0.81
0.5,-1.24,0.91
0.85,-1.28,1.05
0.44,-1.15,0.94
-0.47,-1.06,0.8
-0.19,-1.06,0.51
0.08,-1.16,0.37
0.27,-1.14,0.35
0.32,-1.04,0.37
0.27,-1.03,0.41
0.25,-1.02,0.46
0.29,-1,0.47
0.4,-0.98,0.4
0.52,-0.95,0.31
0.56,-0.92,0.26
0.55,-0.89,0.23
0.56,-0.86,0.2
0.58,-0.84,0.18
0.61,-0.83,0.17
0.62,-0.81,0.17
0.62,-0.8,0.16
0.62,-0.77,0.14
0.61,-0.75,0.13
0.61,-0.72,0.11
0.61,-0.69,0.11
0.59,-0.66,0.1
0.58,-0.64,0.09
0.57,-0.63,0.08
0.56,-0.63,0.07
0.55,-0.62,0.06
0.55,-0.61,0.05
0.55,-0.61,0.05
0.54,-0.61,0.05
0.54,-0.61,0.05
0.54,-0.61,0.05
0.52,-0.61,0.05
0.53,-0.62,0.04
0.55,-0.63,0.04
0.54,-0.64,0.04
0.53,-0.65,0.04
0.53,-0.67,0.05
0.53,-0.69,0.05
0.51,-0.71,0.06
0.5,-0.73,0.07
0.5,-0.75,0.09
0.49,-0.77,0.12
0.48,-0.81,0.16
0.46,-0.85,0.21
0.42,-0.89,0.25
0.37,-0.92,0.27
0.31,-0.94,0.28
0.28,-0.95,0.35
0.27,-0.96,0.5
0.23,-0.96,0.69
0.17,-1,0.89
0.08,-1.06,1.12
0.02,-1.25,1.06
-0.02,-1.32,1.09
-0.05,-1.29,1.23
0,-1.26,1.36
0.11,-1.28,1.43
0.2,-1.35,1.5
0.24,-1.43,1.56
0.27,-1.48,1.59
0.25,-1.54,1.57
0.22,-1.62,1.55
0.24,-1.7,1.52
0.29,-1.74,1.5
0.3,-1.76,1.48
0.29,-1.78,1.46
0.29,-1.8,1.43
0.31,-1.84,1.37
0.33,-1.89,1.31
0.36,-1.9,1.25
0.39,-1.89,1.19
0.41,-1.87,1.14
0.42,-1.83,1.08
0.42,-1.8,1
0.42,-1.79,0.93
0.42,-1.78,0.85
0.45,-1.74,0.76
0.49,-1.68,0.61
0.52,-1.54,0.55
0.52,-1.45,0.48
0.52,-1.37,0.42
0.51,-1.28,0.36
0.51,-1.16,0.3
0.5,-1.05,0.24
0.5,-0.92,0.2
0.5,-0.79,0.16
0.51,-0.68,0.12
0.5,-0.58,0.08
0.47,-0.5,0.07
0.44,-0.45,0.05
0.4,-0.41,0.05
0.38,-0.37,0.04
0.35,-0.3,0.01
0.3,-0.22,0.02
0.24,-0.17,0.01
0.2,-0.12,-0.01
0.17,-0.07,-0.01
0.14,-0.05,0.03
0.09,-0.05,0.1
0.04,-0.02,0.18
-0.01,0.04,0.26
-0.03,0.1,0.32
-0.03,0.13,0.35
-0.04,0.14,0.33
0.01,0.14,0.38
0.02,0.13,0.46
0.01,0.16,0.55
0,0.15,0.62
-0.03,0.15,0.66
-0.06,0.16,0.72
-0.07,0.16,0.78
-0.07,0.16,0.82
-0.09,0.15,0.84
-0.12,0.17,0.87
-0.13,0.2,0.92
-0.13,0.21,0.97
-0.13,0.2,0.99
-0.13,0.18,0.99
-0.13,0.16,0.98
-0.13,0.15,0.95
-0.12,0.16,0.9
-0.08,0.15,0.86
-0.05,0.15,0.84
-0.03,0.15,0.82
-0.01,0.15,0.79
0.02,0.15,0.75
0.05,0.15,0.7
0.08,0.14,0.65
0.11,0.13,0.6
0.12,0.12,0.52
0.07,0.1,0.49
0.04,0.08,0.43
0.02,0.06,0.39
0.01,0.05,0.35
0.02,0.05,0.33
0.04,0.04,0.3
0.06,0.02,0.28
0.1,-0.03,0.26
0.16,-0.08,0.25
0.22,-0.12,0.24
0.26,-0.15,0.24
0.29,-0.18,0.23
0.3,-0.24,0.24
0.29,-0.3,0.26
0.28,-0.35,0.28
0.26,-0.41,0.31
0.24,-0.46,0.36
0.25,-0.48,0.4
0.28,-0.51,0.42
0.3,-0.54,0.44
0.31,-0.58,0.44
0.34,-0.64,0.41
0.36,-0.74,0.39
0.38,-0.85,0.44
0.44,-0.95,0.53
0.5,-0.97,0.59
0.58,-1.05,0.61
0.58,-1.08,0.63
0.6,-1.12,0.65
0.64,-1.17,0.68
0.68,-1.22,0.73
0.73,-1.26,0.76
0.76,-1.29,0.79
0.8,-1.32,0.8
0.82,-1.37,0.78
0.8,-1.39,0.79
0.8,-1.4,0.79
0.81,-1.43,0.81
0.83,-1.44,0.89
0.88,-1.39,0.96
0.9,-1.34,0.97
0.88,-1.32,0.94
0.83,-1.35,0.91
0.79,-1.37,0.94
0.73,-1.35,1.01
0.69,-1.32,1.04
0.65,-1.31,1.03
0.62,-1.28,1.03
0.63,-1.26,1.02
0.64,-1.24,0.99
0.64,-1.21,0.96
0.63,-1.19,0.91
0.64,-1.2,0.78
0.62,-1.18,0.74
0.61,-1.16,0.69
0.58,-1.18,0.64
0.54,-1.17,0.59
0.51,-1.16,0.56
0.51,-1.15,0.57
0.56,-1.15,0.6
0.61,-1.07,0.62
0.76,-0.98,0.66
0.75,-1.12,0.69
0.2,-1.28,0.63
-0.11,-1.2,0.51
0.08,-1.09,0.4
0.18,-1.09,0.3
0.17,-1.11,0.27
0.16,-1.06,0.29
0.18,-1.01,0.32
0.2,-0.97,0.34
0.25,-0.92,0.35
0.36,-0.88,0.34
0.48,-0.84,0.32
0.54,-0.79,0.29
0.56,-0.73,0.24
0.55,-0.68,0.2
0.52,-0.65,0.17
0.5,-0.62,0.13
0.5,-0.62,0.11
0.5,-0.6,0.1
0.5,-0.6,0.08
0.49,-0.59,0.08
0.49,-0.58,0.09
0.5,-0.59,0.09
0.51,-0.6,0.1
0.51,-0.61,0.1
0.5,-0.61,0.1
0.5,-0.63,0.1
0.49,-0.65,0.11
0.48,-0.67,0.11
0.47,-0.69,0.11
0.47,-0.71,0.12
0.47,-0.76,0.15
0.47,-0.82,0.17
0.45,-0.86,0.19
0.42,-0.89,0.22
0.4,-0.9,0.26
0.37,-0.92,0.3
0.33,-0.94,0.34
0.3,-0.97,0.38
0.29,-1.02,0.44
0.29,-1.07,0.53
0.28,-1.1,0.61
0.25,-1.11,0.7
0.18,-1.15,0.76
0.14,-1.17,0.83
0.1,-1.18,0.92
0.07,-1.19,0.96
0.04,-1.19,0.95
-0.02,-1.18,0.97
-0.03,-1.18,1.06
0.03,-1.21,1.16
0.08,-1.25,1.23
0.09,-1.29,1.28
0.07,-1.34,1.27
0.05,-1.38,1.25
0.04,-1.41,1.25
0.04,-1.46,1.27
0.04,-1.51,1.28
0.05,-1.57,1.29
0.07,-1.62,1.29
0.09,-1.67,1.26
0.11,-1.71,1.22
0.14,-1.69,1.18
0.2,-1.66,1.14
0.24,-1.67,1.12
0.28,-1.69,1.12
0.33,-1.72,1.1
0.37,-1.71,1.04
0.41,-1.64,0.92
0.42,-1.47,0.86
0.38,-1.41,0.84
0.35,-1.39,0.84
0.35,-1.35,0.82
0.35,-1.28,0.8
0.36,-1.18,0.78
0.35,-1.09,0.69
0.34,-1.03,0.61
0.33,-0.99,0.57
0.34,-0.97,0.52
0.36,-0.91,0.47
0.37,-0.81,0.44
0.38,-0.68,0.4
0.41,-0.59,0.36
0.4,-0.52,0.32
0.39,-0.45,0.27
0.41,-0.41,0.24
0.44,-0.37,0.24
0.42,-0.3,0.22
0.39,-0.17,0.21
0.38,-0.09,0.17
0.34,-0.06,0.14
0.29,-0.01,0.13
0.27,0.02,0.11
0.28,0.04,0.09
0.24,-0.03,0.05
0.13,0.02,0.05
0.07,0.11,0.06
0.07,0.14,0.08
0.06,0.18,0.11
0.04,0.22,0.17
0.06,0.23,0.23
0.08,0.21,0.28
0.07,0.17,0.3
0.03,0.14,0.32
-0.02,0.13,0.32
-0.05,0.14,0.33
-0.07,0.16,0.35
-0.09,0.17,0.38
-0.08,0.16,0.4
-0.06,0.15,0.41
-0.06,0.14,0.42
-0.06,0.14,0.43
-0.07,0.15,0.43
-0.08,0.15,0.43
-0.08,0.13,0.44
-0.07,0.11,0.43
-0.06,0.09,0.42
-0.05,0.06,0.4
-0.04,0.04,0.36
-0.03,0,0.32
0,-0.09,0.28
0.05,-0.14,0.29
0.08,-0.16,0.31
0.11,-0.18,0.33
0.15,-0.21,0.35
0.2,-0.26,0.37
0.25,-0.31,0.34
0.28,-0.38,0.33
0.32,-0.47,0.35
0.35,-0.54,0.36
0.37,-0.57,0.38
0.41,-0.58,0.41
0.43,-0.66,0.45
0.43,-0.77,0.52
0.45,-0.84,0.6
0.5,-0.9,0.66
0.53,-0.9,0.68
0.56,-0.9,0.67
0.55,-0.9,0.63
0.5,-0.91,0.6
0.49,-0.99,0.62
0.52,-1.09,0.71
0.58,-1.14,0.79
0.62,-1.14,0.82
0.63,-1.16,0.82
0.63,-1.2,0.82
0.6,-1.24,0.83
0.54,-1.28,0.85
0.57,-1.35,0.91
0.64,-1.39,0.94
0.69,-1.41,0.96
0.71,-1.43,0.98
0.71,-1.44,0.98
0.68,-1.42,1.02
0.63,-1.35,1.04
0.59,-1.31,1.06
0.58,-1.3,1.1
0.62,-1.31,1.13
0.64,-1.31,1.12
0.63,-1.33,1.1
0.61,-1.34,1.1
0.58,-1.3,1.13
0.54,-1.21,1.13
0.49,-1.14,1.08
0.45,-1.09,1.01
0.4,-1.03,0.96
0.38,-1.02,0.92
0.42,-1.05,0.89
0.53,-1.15,0.82
0.56,-1.17,0.86
0.5,-1.14,1.05
0.45,-1.15,1.56
0.39,-0.93,1.93
0.06,-1.04,1.27
-0.19,-1.09,0.99
-0.14,-1.05,0.75
0.06,-1.03,0.55
0.32,-1.04,0.41
0.53,-1.02,0.34
0.71,-0.97,0.35
0.79,-0.94,0.34
0.77,-0.88,0.27
0.71,-0.81,0.14
0.68,-0.76,0.01
0.67,-0.74,-0.08
0.65,-0.72,-0.09
0.61,-0.72,-0.07
0.59,-0.72,-0.04
0.6,-0.72,0
0.63,-0.71,0.04
0.66,-0.7,0.08
0.68,-0.68,0.13
0.69,-0.67,0.16
0.71,-0.65,0.14
0.74,-0.65,0.1
0.75,-0.68,0.07
0.73,-0.71,0.05
71,-0.72,0.05
0.7,-0.73,0.06
0.69,-0.74,0.07
0.66,-0.74,0.08
0.63,-0.72,0.08
0.6,-0.7,0.08
0.57,-0.68,0.07
0.55,-0.67,0.07
0.54,-0.66,0.07
0.52,-0.66,0.07
0.52,-0.66,0.07
0.52,-0.67,0.07
0.52,-0.68,0.07
0.52,-0.7,0.07
0.52,-0.73,0.08
0.51,-0.77,0.1
0.51,-0.82,0.11
0.5,-0.86,0.11
0.48,-0.89,0.11
0.47,-0.92,0.11
0.46,-0.94,0.1
0.44,-0.96,0.1
0.43,-0.97,0.11
0.41,-0.98,0.12
0.4,-0.99,0.13
0.39,-1,0.13
0.38,-1.01,0.14
0.36,-1.03,0.16
0.35,-1.05,0.16
0.32,-1.05,0.16
0.3,-1.05,0.14
0.29,-1.06,0.13
0.29,-1.08,0.13
0.29,-1.1,0.12
0.28,-1.15,0.11
0.28,-1.18,0.11
0.29,-1.22,0.09
0.29,-1.24,0.09
0.28,-1.21,0.09
0.28,-1.13,0.11
0.29,-1.03,0.13
0.29,-0.98,0.13
0.3,-0.96,0.13
0.31,-0.96,0.12
0.33,-0.99,0.11
0.35,-1.05,0.11
0.37,-1.14,0.11
0.39,-1.21,0.1
0.39,-1.25,0.11
0.39,-1.28,0.13
0.4,-1.29,0.14
0.4,-1.25,0.14
0.4,-1.2,0.13
0.39,-1.13,0.14
0.39,-1.04,0.16
0.39,-0.93,0.16
0.42,-0.89,0.15
0.44,-0.85,0.14
0.45,-0.83,0.15
0.44,-0.82,0.15
0.44,-0.8,0.16
0.42,-0.8,0.15
0.41,-0.79,0.15
0.4,-0.79,0.15
0.39,-0.78,0.15
0.4,-0.76,0.15
0.41,-0.76,0.17
0.42,-0.75,0.19
0.44,-0.75,0.2
0.46,-0.74,0.21
0.47,-0.73,0.23
0.48,-0.73,0.26
0.48,-0.74,0.29
0.47,-0.73,0.3
0.46,-0.72,0.3
0.45,-0.72,0.3
0.45,-0.71,0.3
0.44,-0.71,0.3
0.44,-0.7,0.32
0.43,-0.7,0.34
0.42,-0.71,0.4
0.37,-0.72,0.41
0.35,-0.74,0.39
0.36,-0.76,0.39
0.39,-0.79,0.4
0.4,-0.82,0.42
0.4,-0.84,0.44
0.41,-0.86,0.45
0.39,-0.87,0.46
0.35,-0.88,0.45
0.33,-0.89,0.45
0.33,-0.91,0.44
0.29,-0.92,0.44
0.28,-0.93,0.42
0.31,-0.95,0.43
0.29,-0.96,0.43
0.25,-0.97,0.44
0.24,-0.97,0.47
0.22,-0.99,0.46
0.19,-0.99,0.42
0.21,-0.99,0.38
0.24,-1,0.36
0.25,-0.99,0.29
0.21,-0.98,0.25
0.18,-0.95,0.25
0.18,-0.93,0.22
0.17,-0.93,0.21
0.11,-0.94,0.22
0.11,-0.94,0.18
0.11,-0.95,0.13
0.14,-0.95,0.08
0.1,-0.96,0.07
0.04,-0.93,0.08
0,-0.89,0.09
-0.01,-0.87,0.07
0.03,-0.84,0.02
0.09,-0.85,-0.05
0.11,-0.89,-0.07
0.05,-0.91,-0.04
0.05,-0.95,0.01
0.07,-1,0.02
0.09,-1.05,-0.04
0.16,-1.09,-0.1
0.18,-1.09,-0.11
0.21,-1.08,-0.09
0.24,-1.09,-0.09
0.27,-1.1,-0.12
0.29,-1.11,-0.11
0.3,-1.11,-0.1
0.28,-1.07,-0.1
0.27,-1.03,-0.09
0.26,-1,-0.06
0.26,-0.97,-0.03
0.29,-0.91,0.01
0.27,-0.89,-0.09
0.31,-0.91,-0.1
0.34,-0.94,-0.07
0.36,-0.95,-0.06
0.38,-0.96,0.09
0.37,-0.98,0.19
0.38,-0.92,0.24
0.19,-0.81,0.23
0.19,-1.03,0.46
0.53,-1.61,0.8
0.74,-2.16,0.87
0.69,-2.5,0.77
0.33,-2.23,0.39
-0.06,-1.44,-0.03
-0.17,-0.84,-0.13
-0.01,-0.64,0
0.18,-0.63,0.22
0.3,-0.73,0.41
0.38,-0.83,0.55
0.37,-0.85,0.58
0.36,-0.84,0.43
0.41,-0.85,0.25
0.5,-0.95,0.13
0.55,-1.04,0.06
0.48,-1.07,0.05
0.4,-0.98,0.3
0.44,-0.92,0.37
0.5,-0.87,0.34
0.54,-0.84,0.27
0.57,-0.83,0.22
0.57,-0.84,0.22
0.54,-0.86,0.24
0.51,-0.86,0.26
0.48,-0.87,0.27
0.46,-0.88,0.26
