Acc_x,Acc_y,Acc_z
0.45,0.42,0.76
0.45,0.43,0.78
0.46,0.44,0.8
0.46,0.45,0.82
0.48,0.45,0.86
0.51,0.45,0.89
0.51,0.44,0.91
0.52,0.43,0.9
0.55,0.41,0.88
0.59,0.4,0.87
0.62,0.4,0.87
0.62,0.39,0.87
0.61,0.34,0.86
0.63,0.31,0.86
0.66,0.28,0.86
0.67,0.25,0.86
0.67,0.24,0.84
0.67,0.22,0.81
0.68,0.2,0.78
0.71,0.18,0.75
0.73,0.15,0.74
0.74,0.14,0.73
0.75,0.13,0.73
0.74,0.12,0.73
0.74,0.11,0.74
0.76,0.1,0.75
0.78,0.09,0.75
0.79,0.08,0.75
0.82,0.07,0.76
0.83,0.07,0.76
0.81,0.07,0.73
0.76,0.06,0.7
0.74,0.05,0.65
0.78,0.03,0.63
0.84,0.01,0.64
0.88,0,0.66
0.88,0,0.67
0.88,0,0.66
0.88,0.01,0.64
0.88,0.02,0.63
0.86,0.03,0.6
0.85,0.04,0.57
0.84,0.06,0.54
0.83,0.07,0.5
0.82,0.06,0.47
0.82,0.06,0.46
0.85,0.06,0.46
0.89,0.06,0.47
0.92,0.04,0.48
0.94,0.04,0.48
0.94,0.05,0.48
0.91,0.04,0.48
0.89,0.04,0.46
0.85,0.05,0.43
0.81,0.05,0.39
0.8,0.04,0.35
0.83,0,0.33
0.88,-0.04,0.35
0.94,-0.09,0.4
0.97,-0.14,0.43
0.99,-0.18,0.44
1.03,-0.21,0.44
1.04,-0.24,0.42
0.96,-0.3,0.46
1,-0.33,0.39
1.01,-0.38,0.4
1.01,-0.41,0.42
0.98,-0.47,0.44
0.94,-0.52,0.45
0.92,-0.56,0.47
0.91,-0.61,0.5
0.9,-0.66,0.51
0.84,-0.7,0.52
0.76,-0.72,0.53
0.74,-0.73,0.51
0.73,-0.78,0.48
0.73,-0.81,0.46
0.77,-0.85,0.44
0.83,-0.88,0.44
0.88,-0.9,0.43
0.89,-0.91,0.41
0.86,-0.91,0.42
0.81,-0.9,0.44
0.77,-0.88,0.45
0.72,-0.84,0.46
0.67,-0.81,0.46
0.63,-0.76,0.44
0.6,-0.71,0.42
0.57,-0.66,0.38
0.55,-0.6,0.31
0.55,-0.52,0.29
0.55,-0.5,0.27
0.56,-0.5,0.27
0.56,-0.5,0.26
0.56,-0.49,0.25
0.56,-0.48,0.24
0.55,-0.47,0.22
0.54,-0.46,0.22
0.53,-0.46,0.21
0.52,-0.45,0.21
0.53,-0.45,0.21
0.56,-0.45,0.21
0.6,-0.46,0.21
0.65,-0.48,0.22
0.71,-0.5,0.25
0.76,-0.51,0.29
0.79,-0.53,0.32
0.81,-0.54,0.34
0.82,-0.56,0.39
0.81,-0.57,0.41
0.8,-0.59,0.43
0.8,-0.62,0.44
0.81,-0.64,0.45
0.84,-0.65,0.44
0.87,-0.65,0.41
0.89,-0.64,0.37
0.85,-0.69,0.31
0.8,-0.68,0.3
0.76,-0.67,0.29
0.74,-0.68,0.27
0.74,-0.69,0.28
0.73,-0.68,0.28
0.73,-0.67,0.26
0.72,-0.67,0.24
0.7,-0.68,0.23
0.7,-0.66,0.22
0.72,-0.66,0.22
0.72,-0.67,0.23
0.73,-0.67,0.23
0.73,-0.67,0.24
0.74,-0.68,0.26
0.73,-0.69,0.27
0.73,-0.7,0.27
0.72,-0.7,0.27
0.71,-0.7,0.26
0.71,-0.69,0.25
0.71,-0.68,0.24
0.72,-0.67,0.22
0.74,-0.67,0.22
0.76,-0.67,0.22
0.78,-0.68,0.22
0.8,-0.69,0.24
0.81,-0.73,0.25
0.82,-0.74,0.26
0.81,-0.75,0.26
0.8,-0.77,0.26
0.79,-0.79,0.25
0.78,-0.81,0.23
0.77,-0.82,0.22
0.78,-0.79,0.21
0.77,-0.77,0.19
0.76,-0.78,0.17
0.74,-0.79,0.15
0.73,-0.77,0.13
0.74,-0.77,0.13
0.76,-0.79,0.13
0.77,-0.81,0.15
0.78,-0.81,0.17
0.78,-0.79,0.17
0.76,-0.78,0.18
0.75,-0.76,0.17
0.74,-0.74,0.14
0.74,-0.71,0.12
0.75,-0.69,0.11
0.77,-0.68,0.1
0.78,-0.67,0.1
0.79,-0.66,0.12
0.79,-0.65,0.13
0.78,-0.65,0.19
0.73,-0.65,0.2
0.7,-0.64,0.2
0.67,-0.63,0.21
0.64,-0.63,0.2
0.62,-0.63,0.19
0.61,-0.62,0.17
0.6,-0.61,0.15
0.6,-0.61,0.14
0.6,-0.61,0.14
0.61,-0.62,0.15
0.6,-0.62,0.15
0.59,-0.62,0.16
0.58,-0.62,0.18
0.57,-0.64,0.19
0.57,-0.67,0.21
0.57,-0.69,0.23
0.57,-0.72,0.24
0.56,-0.75,0.26
0.54,-0.76,0.29
0.53,-0.78,0.31
0.54,-0.8,0.33
0.55,-0.82,0.32
0.57,-0.83,0.31
0.58,-0.84,0.29
0.59,-0.86,0.28
0.59,-0.89,0.24
0.54,-0.91,0.26
0.51,-0.92,0.3
0.47,-0.98,0.34
0.33,-1.08,0.35
0.31,-1.1,0.4
0.49,-1.02,0.47
0.51,-1.01,0.48
0.43,-1.12,0.47
0.37,-1.2,0.51
0.37,-1.21,0.59
0.36,-1.22,0.66
0.34,-1.2,0.72
0.3,-1.17,0.77
0.24,-1.16,0.82
0.22,-1.14,0.93
0.22,-1.09,1.05
0.17,-1.06,1.18
0.14,-1.04,1.29
0.13,-1.02,1.4
0.13,-1.03,1.51
0.13,-1.08,1.55
0.12,-1.19,1.54
0.08,-1.36,1.54
0.05,-1.58,1.59
0.03,-1.79,1.64
0.01,-1.95,1.64
0.03,-1.98,1.64
0.1,-1.88,1.64
0.17,-1.78,1.6
0.23,-1.73,1.52
0.31,-1.7,1.4
0.4,-1.67,1.25
0.45,-1.62,1.13
0.47,-1.57,1.04
0.5,-1.49,0.95
0.55,-1.41,0.85
0.58,-1.33,0.77
0.57,-1.25,0.68
0.56,-1.21,0.59
0.55,-1.18,0.51
0.53,-1.13,0.41
0.51,-1.06,0.32
0.5,-0.98,0.24
0.49,-0.88,0.19
0.47,-0.76,0.15
0.44,-0.64,0.11
0.4,-0.55,0.08
0.35,-0.46,0.04
0.3,-0.4,0.02
0.24,-0.34,0.03
0.19,-0.23,0.04
0.15,-0.13,0.05
0.12,-0.04,0.07
0.14,0.03,0.08
0.17,0.08,0.1
0.2,0.06,0.12
0.17,0.03,0.17
0.12,0.02,0.22
0.06,0.01,0.25
0,0.01,0.28
-0.05,0.03,0.33
-0.09,0.05,0.4
-0.11,0.06,0.47
-0.13,0.06,0.52
-0.16,0.08,0.55
-0.18,0.1,0.57
-0.21,0.08,0.61
-0.26,0.04,0.66
-0.3,0.03,0.7
-0.32,0.05,0.72
-0.34,0.08,0.74
-0.35,0.1,0.76
-0.35,0.1,0.78
-0.34,0.08,0.8
-0.33,0.07,0.81
-0.32,0.07,0.79
-0.32,0.07,0.75
-0.32,0.07,0.67
-0.27,0.05,0.62
-0.24,0.04,0.57
-0.21,0.02,0.52
-0.16,0,0.47
-0.12,-0.01,0.42
-0.1,-0.02,0.39
-0.07,-0.02,0.36
-0.04,-0.04,0.33
-0.01,-0.07,0.3
0,-0.1,0.27
0.01,-0.12,0.23
0.02,-0.16,0.19
0.02,-0.2,0.2
0.04,-0.24,0.22
0.09,-0.27,0.23
0.15,-0.32,0.23
0.2,-0.39,0.2
0.26,-0.44,0.18
0.31,-0.49,0.17
0.34,-0.55,0.17
0.36,-0.59,0.21
0.38,-0.61,0.24
0.42,-0.67,0.26
0.43,-0.76,0.31
0.44,-0.82,0.38
0.44,-0.82,0.48
0.49,-0.95,0.45
0.51,-0.98,0.44
0.57,-1.06,0.46
0.63,-1.19,0.55
0.69,-1.32,0.66
0.73,-1.4,0.73
0.74,-1.43,0.76
0.71,-1.42,0.73
0.67,-1.4,0.7
0.68,-1.44,0.73
0.72,-1.49,0.83
0.77,-1.49,0.93
0.85,-1.47,1
0.91,-1.48,1.04
0.91,-1.5,1.04
0.86,-1.53,1.01
0.81,-1.56,0.99
0.78,-1.56,1.02
0.76,-1.53,1.05
0.75,-1.49,1.05
0.74,-1.46,1.05
0.74,-1.45,1.04
0.75,-1.44,1.01
0.75,-1.42,0.97
0.72,-1.4,0.91
0.68,-1.39,0.86
0.66,-1.41,0.76
0.64,-1.38,0.71
0.63,-1.37,0.66
0.63,-1.37,0.6
0.58,-1.37,0.55
0.52,-1.33,0.51
0.55,-1.31,0.48
0.6,-1.34,0.42
0.54,-1.23,0.4
0.39,-1.14,0.38
0.45,-1.16,0.33
0.42,-1.18,0.26
0.08,-1.2,0.2
0.03,-1.09,0.22
0.27,-0.93,0.26
0.31,-0.9,0.24
0.29,-0.87,0.23
0.32,-0.83,0.19
0.35,-0.77,0.18
0.34,-0.72,0.17
0.35,-0.68,0.16
0.37,-0.65,0.14
0.37,-0.64,0.13
0.37,-0.64,0.15
0.32,-0.6,0.18
0.27,-0.56,0.18
0.3,-0.58,0.17
0.37,-0.59,0.17
0.32,-0.6,0.15
0.33,-0.61,0.14
0.39,-0.64,0.15
0.42,-0.68,0.17
0.4,-0.73,0.19
0.4,-0.76,0.23
0.45,-0.79,0.25
0.46,-0.81,0.26
0.43,-0.85,0.3
0.39,-0.89,0.35
0.41,-0.95,0.45
0.45,-1.01,0.54
0.45,-1.08,0.58
0.44,-1.15,0.63
0.43,-1.22,0.67
0.4,-1.28,0.71
0.37,-1.32,0.77
0.38,-1.39,0.81
0.37,-1.43,0.86
0.38,-1.45,0.91
0.43,-1.47,0.96
0.48,-1.48,1.03
0.47,-1.52,1.07
0.42,-1.56,1.07
0.36,-1.63,1.05
0.33,-1.67,1.08
0.33,-1.71,1.13
0.32,-1.79,1.16
0.32,-1.89,1.18
0.32,-1.96,1.18
0.33,-1.95,1.14
0.34,-1.88,1.09
0.33,-1.82,1.05
0.34,-1.79,1.01
0.38,-1.78,0.99
0.39,-1.79,0.96
0.4,-1.77,0.92
0.42,-1.77,0.86
0.46,-1.74,0.8
0.49,-1.65,0.72
0.49,-1.53,0.62
0.46,-1.43,0.52
0.41,-1.35,0.49
0.42,-1.28,0.5
0.51,-1.2,0.51
0.56,-1.13,0.49
0.56,-1.05,0.42
0.57,-0.95,0.34
0.55,-0.86,0.3
0.53,-0.76,0.3
0.52,-0.67,0.32
0.49,-0.52,0.33
0.46,-0.46,0.34
0.43,-0.42,0.34
0.39,-0.33,0.28
0.36,-0.23,0.22
0.35,-0.16,0.21
0.32,-0.15,0.21
0.29,-0.13,0.26
0.24,-0.1,0.3
0.21,-0.08,0.32
0.19,-0.01,0.3
0.17,0.07,0.31
0.15,0.09,0.33
0.13,0.06,0.34
0.09,0.04,0.35
0.04,0.09,0.36
0.01,0.12,0.37
-0.03,0.12,0.39
-0.07,0.11,0.41
-0.11,0.12,0.43
-0.14,0.13,0.47
-0.15,0.13,0.51
-0.16,0.12,0.53
-0.18,0.11,0.54
-0.19,0.1,0.55
-0.21,0.08,0.55
-0.22,0.07,0.56
-0.22,0.07,0.57
-0.23,0.07,0.57
-0.26,0.07,0.57
-0.26,0.07,0.58
-0.26,0.07,0.57
-0.25,0.06,0.54
-0.25,0.06,0.51
-0.24,0.05,0.49
-0.24,0.03,0.48
-0.22,0.03,0.48
-0.19,0.03,0.46
-0.15,0.03,0.42
-0.11,0.03,0.39
-0.07,0.01,0.35
-0.04,-0.04,0.34
-0.02,-0.08,0.34
0.03,-0.1,0.34
0.09,-0.12,0.34
0.14,-0.17,0.33
0.19,-0.22,0.31
0.23,-0.27,0.29
0.26,-0.33,0.29
0.28,-0.41,0.32
0.31,-0.49,0.36
0.32,-0.56,0.46
0.38,-0.65,0.5
0.38,-0.66,0.53
0.4,-0.7,0.52
0.41,-0.76,0.53
0.4,-0.83,0.57
0.4,-0.87,0.66
0.41,-0.85,0.74
0.46,-0.87,0.76
0.5,-0.99,0.76
0.49,-1.07,0.76
0.48,-1.13,0.76
0.46,-1.19,0.8
0.44,-1.22,0.89
0.47,-1.19,0.97
0.53,-1.13,1.02
0.6,-1.11,1.03
0.64,-1.12,1.02
0.66,-1.16,0.97
0.65,-1.22,0.92
0.63,-1.3,0.92
0.62,-1.38,0.98
0.63,-1.45,1.06
0.65,-1.46,1.11
0.69,-1.44,1.12
0.7,-1.41,1.11
0.71,-1.4,1.04
0.69,-1.43,1
0.64,-1.46,0.99
0.59,-1.47,0.99
0.56,-1.46,0.98
0.54,-1.43,0.96
0.53,-1.4,0.93
0.53,-1.37,0.89
0.53,-1.34,0.86
0.53,-1.31,0.81
0.52,-1.32,0.76
0.5,-1.33,0.71
0.49,-1.3,0.66
0.56,-1.25,0.59
0.63,-1.19,0.57
0.56,-1.19,0.59
0.56,-1.22,0.56
0.54,-1.21,0.51
0.27,-1.12,0.49
0.12,-1.05,0.48
0.14,-0.98,0.44
0.17,-0.9,0.41
0.15,-0.86,0.41
0.1,-0.83,0.51
0.02,-0.76,0.61
0.04,-0.7,0.59
0.16,-0.67,0.53
0.27,-0.65,0.4
0.3,-0.62,0.33
0.29,-0.58,0.24
0.34,-0.58,0.16
0.43,-0.6,0.09
0.47,-0.62,0.05
0.45,-0.64,0.05
0.4,-0.66,0.09
0.38,-0.67,0.14
0.38,-0.69,0.17
0.39,-0.72,0.18
0.39,-0.75,0.21
0.38,-0.78,0.24
0.35,-0.81,0.3
0.33,-0.83,0.37
0.35,-0.9,0.43
0.36,-0.99,0.5
0.38,-1.05,0.54
0.43,-1.13,0.54
0.45,-1.15,0.56
0.35,-1.14,0.65
0.26,-1.22,0.73
0.22,-1.31,0.84
0.19,-1.38,0.94
0.18,-1.43,1
0.16,-1.43,1.05
0.14,-1.48,1.07
0.13,-1.52,1.1
0.16,-1.54,1.11
0.19,-1.58,1.14
0.21,-1.6,1.15
0.22,-1.64,1.17
0.24,-1.68,1.21
0.27,-1.71,1.24
0.26,-1.74,1.24
0.22,-1.75,1.21
0.2,-1.75,1.17
0.2,-1.71,1.14
0.21,-1.69,1.12
0.23,-1.69,1.1
0.25,-1.72,1.11
0.28,-1.73,1.09
0.32,-1.71,1.02
0.34,-1.64,0.95
0.36,-1.55,0.89
0.4,-1.47,0.83
0.41,-1.42,0.79
0.39,-1.39,0.78
0.37,-1.34,0.76
0.37,-1.29,0.71
0.37,-1.23,0.65
0.38,-1.18,0.59
0.38,-1.05,0.48
0.41,-0.95,0.41
0.43,-0.85,0.37
0.45,-0.77,0.33
0.48,-0.7,0.28
0.48,-0.61,0.25
0.47,-0.55,0.22
0.46,-0.5,0.18
0.44,-0.49,0.14
0.41,-0.45,0.11
0.4,-0.35,0.11
0.38,-0.26,0.12
0.34,-0.16,0.11
0.27,-0.08,0.13
0.24,-0.1,0.16
0.19,-0.06,0.2
0.15,0.01,0.21
0.15,0.05,0.19
0.15,0.1,0.2
0.11,0.1,0.23
0.1,0.1,0.26
0.1,0.13,0.3
0.08,0.16,0.34
0.08,0.2,0.4
0.09,0.2,0.45
0.07,0.18,0.48
0.05,0.16,0.53
0,0.15,0.56
-0.01,0.15,0.61
-0.02,0.14,0.67
-0.02,0.14,0.72
-0.03,0.13,0.74
-0.05,0.1,0.74
-0.08,0.09,0.72
-0.1,0.09,0.72
-0.11,0.11,0.73
-0.11,0.13,0.74
-0.1,0.12,0.75
-0.09,0.11,0.74
-0.1,0.09,0.72
-0.11,0.07,0.71
-0.11,0.05,0.69
-0.11,0.03,0.66
-0.1,0.02,0.63
-0.1,0.02,0.59
-0.09,0.02,0.55
-0.09,0.01,0.52
-0.09,0,0.49
-0.08,-0.02,0.46
-0.06,-0.06,0.45
-0.04,-0.1,0.43
-0.03,-0.12,0.4
-0.02,-0.14,0.36
0.03,-0.2,0.34
0.06,-0.22,0.33
0.1,-0.26,0.31
0.16,-0.32,0.29
0.21,-0.39,0.29
0.24,-0.46,0.31
0.26,-0.55,0.34
0.28,-0.62,0.37
0.29,-0.63,0.39
0.29,-0.62,0.42
0.3,-0.62,0.41
0.33,-0.65,0.39
0.37,-0.75,0.38
0.37,-0.89,0.44
0.37,-1.03,0.55
0.38,-1.09,0.65
0.46,-1.11,0.68
0.54,-1.15,0.65
0.54,-1.16,0.62
0.57,-1.17,0.59
0.6,-1.24,0.61
0.63,-1.38,0.72
0.68,-1.53,0.85
0.72,-1.6,0.96
0.73,-1.61,1.01
0.7,-1.58,0.98
0.61,-1.57,0.96
0.55,-1.57,0.98
0.52,-1.58,1.07
0.54,-1.56,1.13
0.58,-1.53,1.12
0.59,-1.53,1.11
0.58,-1.56,1.12
0.58,-1.59,1.1
0.56,-1.62,1.07
0.53,-1.65,1.06
0.51,-1.67,1.05
0.48,-1.67,1.02
0.46,-1.65,0.98
0.46,-1.63,0.92
0.45,-1.6,0.85
0.43,-1.57,0.8
0.42,-1.55,0.76
0.43,-1.59,0.72
0.39,-1.56,0.71
0.36,-1.48,0.73
0.49,-1.39,0.63
0.46,-1.33,0.58
0.28,-1.26,0.63
0.3,-1.21,0.6
0.32,-1.2,0.53
0.25,-1.13,0.31
0.31,-1.02,0.33
0.26,-0.94,0.44
0.11,-0.87,0.45
0.15,-0.83,0.46
0.18,-0.74,0.45
0.15,-0.65,0.43
0.19,-0.62,0.4
0.27,-0.58,0.36
0.26,-0.52,0.33
0.23,-0.48,0.3
0.25,-0.45,0.27
0.31,-0.44,0.23
0.36,-0.43,0.2
0.4,-0.42,0.17
0.42,-0.41,0.15
0.43,-0.42,0.13
0.41,-0.44,0.09
0.42,-0.45,0.06
0.44,-0.46,0.04
0.49,-0.49,0.06
0.46,-0.52,0.09
0.45,-0.56,0.12
0.5,-0.61,0.15
0.5,-0.66,0.2
0.48,-0.72,0.25
0.46,-0.79,0.31
0.45,-0.92,0.42
0.45,-0.98,0.47
0.41,-1.07,0.55
0.37,-1.17,0.63
0.34,-1.24,0.7
0.3,-1.33,0.75
0.27,-1.42,0.81
0.28,-1.48,0.86
0.28,-1.5,0.93
0.28,-1.5,1.07
0.3,-1.5,1.2
0.28,-1.51,1.26
0.21,-1.54,1.28
0.15,-1.56,1.26
0.09,-1.58,1.26
0.03,-1.62,1.28
-0.02,-1.66,1.33
-0.03,-1.7,1.4
-0.03,-1.75,1.46
-0.04,-1.82,1.48
-0.03,-1.86,1.43
0.03,-1.84,1.37
0.1,-1.79,1.31
0.15,-1.73,1.24
0.19,-1.7,1.21
0.23,-1.67,1.19
0.25,-1.62,1.11
0.22,-1.62,1.03
0.21,-1.6,0.95
0.24,-1.55,0.87
0.26,-1.48,0.82
0.27,-1.4,0.79
0.28,-1.33,0.76
0.29,-1.26,0.73
0.3,-1.19,0.67
0.29,-1.12,0.6
0.29,-1.04,0.55
0.32,-0.96,0.5
0.34,-0.9,0.47
0.35,-0.85,0.45
0.31,-0.8,0.44
0.31,-0.72,0.42
0.34,-0.63,0.38
0.35,-0.52,0.36
0.32,-0.44,0.34
0.28,-0.38,0.31
0.27,-0.32,0.27
0.24,-0.3,0.25
0.2,-0.25,0.23
0.18,-0.19,0.2
0.17,-0.12,0.2
0.17,-0.06,0.2
0.18,0.04,0.2
0.15,0.07,0.2
0.13,0.07,0.22
0.11,0.08,0.25
0.09,0.14,0.27
0.07,0.16,0.28
0.04,0.17,0.32
-0.01,0.19,0.36
-0.08,0.19,0.4
-0.13,0.17,0.45
-0.18,0.16,0.49
-0.21,0.16,0.51
-0.21,0.16,0.52
-0.21,0.16,0.55
-0.22,0.17,0.58
-0.23,0.17,0.6
-0.25,0.17,0.61
-0.26,0.17,0.63
-0.27,0.15,0.65
-0.27,0.14,0.66
-0.26,0.13,0.66
-0.25,0.13,0.66
-0.26,0.12,0.65
-0.26,0.12,0.64
-0.25,0.11,0.63
-0.24,0.11,0.61
-0.23,0.1,0.53
-0.17,0.08,0.49
-0.15,0.05,0.46
-0.14,0.02,0.44
-0.12,-0.02,0.42
-0.11,-0.05,0.42
-0.11,-0.07,0.43
-0.09,-0.09,0.44
-0.07,-0.11,0.45
-0.03,-0.13,0.44
0,-0.17,0.43
0.02,-0.2,0.43
0.02,-0.24,0.45
0.01,-0.29,0.49
0.02,-0.29,0.56
0.05,-0.26,0.59
0.09,-0.27,0.57
0.12,-0.32,0.53
0.13,-0.37,0.48
0.14,-0.43,0.44
0.16,-0.49,0.45
0.2,-0.6,0.51
0.27,-0.69,0.58
0.33,-0.71,0.62
0.38,-0.71,0.62
0.42,-0.71,0.58
0.44,-0.72,0.53
0.49,-0.88,0.54
0.52,-0.99,0.58
0.57,-1.12,0.65
0.63,-1.21,0.7
0.69,-1.15,0.75
0.76,-1.05,0.79
0.81,-1.06,0.81
0.84,-1.13,0.86
0.85,-1.18,0.91
0.84,-1.24,0.93
0.85,-1.34,0.93
0.88,-1.43,0.95
0.9,-1.44,1.01
0.94,-1.39,1.09
0.95,-1.33,1.12
0.91,-1.31,1.14
0.87,-1.33,1.12
0.84,-1.38,1.07
0.8,-1.42,1.05
0.76,-1.43,1.06
0.77,-1.42,1.09
0.81,-1.39,1.11
0.81,-1.36,1.09
0.78,-1.33,1.06
0.73,-1.32,1.01
0.68,-1.32,0.88
0.64,-1.31,0.86
0.66,-1.31,0.84
0.65,-1.31,0.78
0.6,-1.32,0.71
0.55,-1.33,0.65
0.52,-1.34,0.61
0.49,-1.35,0.57
0.47,-1.29,0.56
0.46,-1.19,0.54
0.46,-1.13,0.47
0.41,-1.08,0.45
0.34,-1.03,0.44
0.34,-0.95,0.4
0.39,-0.89,0.34
0.41,-0.87,0.29
0.36,-0.81,0.3
0.26,-0.74,0.33
0.22,-0.68,0.36
0.29,-0.66,0.39
0.21,-0.67,0.41
0.14,-0.59,0.41
0.14,-0.49,0.38
0.09,-0.49,0.34
0.12,-0.48,0.36
0.16,-0.44,0.36
0.16,-0.43,0.32
0.24,-0.45,0.3
0.33,-0.46,0.28
0.4,-0.47,0.25
0.44,-0.47,0.22
0.43,-0.48,0.2
0.44,-0.5,0.18
0.47,-0.52,0.18
0.49,-0.53,0.2
0.52,-0.57,0.24
0.54,-0.61,0.27
0.56,-0.67,0.28
0.56,-0.7,0.28
0.51,-0.72,0.32
0.48,-0.75,0.39
0.48,-0.8,0.45
0.49,-0.88,0.52
0.49,-0.96,0.58
0.44,-1.08,0.68
0.43,-1.17,0.74
0.46,-1.23,0.75
0.46,-1.27,0.79
0.45,-1.32,0.86
0.41,-1.36,0.96
0.37,-1.41,1.06
0.34,-1.48,1.11
0.34,-1.5,1.16
0.26,-1.47,1.2
0.19,-1.49,1.2
0.1,-1.49,1.23
0.06,-1.51,1.27
0.09,-1.59,1.29
0.14,-1.64,1.29
0.13,-1.65,1.29
0.14,-1.63,1.27
0.19,-1.66,1.26
0.26,-1.71,1.26
0.31,-1.74,1.23
0.32,-1.74,1.19
0.3,-1.72,1.17
0.29,-1.69,1.12
0.3,-1.68,1.06
0.3,-1.69,1.04
0.26,-1.68,1.04
0.26,-1.63,1.02
0.3,-1.58,0.96
0.34,-1.52,0.9
0.35,-1.44,0.84
0.37,-1.37,0.76
0.37,-1.34,0.7
0.35,-1.28,0.69
0.32,-1.19,0.69
0.3,-1.12,0.68
0.3,-0.94,0.57
0.36,-0.83,0.47
0.36,-0.75,0.39
0.35,-0.68,0.34
0.36,-0.6,0.32
0.38,-0.53,0.31
0.39,-0.48,0.31
0.39,-0.41,0.32
0.37,-0.37,0.32
0.3,-0.32,0.29
0.27,-0.25,0.25
0.26,-0.2,0.22
0.25,-0.15,0.2
0.25,-0.11,0.17
0.24,-0.08,0.18
0.2,-0.07,0.21
0.14,-0.06,0.24
0.08,0,0.28
0.03,0.06,0.33
0,0.09,0.37
-0.03,0.12,0.42
-0.09,0.14,0.45
-0.13,0.12,0.45
-0.15,0.14,0.44
-0.16,0.17,0.42
-0.17,0.16,0.43
-0.19,0.16,0.53
-0.21,0.16,0.58
-0.21,0.15,0.61
-0.21,0.15,0.64
-0.22,0.15,0.65
-0.23,0.15,0.66
-0.23,0.14,0.65
-0.23,0.13,0.63
-0.24,0.12,0.62
-0.25,0.13,0.62
-0.25,0.13,0.62
-0.25,0.12,0.62
-0.23,0.11,0.62
-0.21,0.1,0.6
-0.2,0.08,0.57
-0.19,0.06,0.53
-0.18,0.04,0.49
-0.17,0.02,0.45
-0.17,0,0.43
-0.17,0,0.43
-0.17,0,0.4
-0.16,-0.01,0.37
-0.18,-0.05,0.36
-0.19,-0.1,0.36
-0.19,-0.16,0.37
-0.18,-0.18,0.39
-0.17,-0.19,0.43
-0.12,-0.2,0.43
-0.08,-0.23,0.42
-0.04,-0.26,0.41
0.02,-0.33,0.44
0.07,-0.42,0.47
0.11,-0.46,0.5
0.15,-0.46,0.5
0.17,-0.47,0.46
0.17,-0.5,0.43
0.17,-0.53,0.45
0.18,-0.56,0.53
0.22,-0.6,0.61
0.3,-0.66,0.64
0.36,-0.75,0.64
0.39,-0.88,0.63
0.42,-0.96,0.6
0.43,-0.97,0.58
0.44,-0.95,0.62
0.45,-0.94,0.74
0.5,-0.96,0.88
0.61,-1.03,0.96
0.69,-1.07,0.98
0.71,-1.08,0.97
0.7,-1.12,0.95
0.67,-1.14,0.89
0.65,-1.15,0.85
0.72,-1.16,0.97
0.79,-1.13,1.1
0.86,-1.11,1.14
0.9,-1.15,1.1
0.9,-1.21,1.03
0.88,-1.25,0.97
0.83,-1.29,0.95
0.78,-1.32,0.97
0.75,-1.36,1.01
0.74,-1.39,1.05
0.72,-1.4,1.07
0.71,-1.4,1.05
0.68,-1.41,1.01
0.65,-1.42,0.96
0.6,-1.43,0.91
0.57,-1.42,0.88
0.54,-1.41,0.85
0.52,-1.4,0.83
0.51,-1.38,0.81
0.51,-1.36,0.78
0.52,-1.36,0.72
0.52,-1.38,0.64
0.51,-1.39,0.62
0.47,-1.37,0.59
0.47,-1.3,0.52
0.51,-1.21,0.46
0.28,-1.15,0.52
0.34,-1.19,0.51
0.38,-1.17,0.43
0.25,-1.09,0.37
0.14,-0.99,0.35
0.14,-0.97,0.36
0.23,-0.94,0.34
0.34,-0.86,0.33
0.33,-0.83,0.34
0.34,-0.78,0.33
0.39,-0.72,0.31
0.44,-0.74,0.3
0.32,-0.73,0.32
0.13,-0.67,0.37
0.1,-0.61,0.42
0.13,-0.56,0.4
0.16,-0.55,0.38
0.23,-0.54,0.35
0.25,-0.53,0.29
0.28,-0.53,0.22
0.32,-0.53,0.16
0.35,-0.53,0.12
0.38,-0.54,0.09
0.42,-0.55,0.08
0.46,-0.57,0.11
0.47,-0.6,0.21
0.47,-0.65,0.24
0.47,-0.68,0.27
0.47,-0.72,0.29
0.46,-0.74,0.32
0.44,-0.77,0.35
0.42,-0.82,0.38
0.39,-0.87,0.43
0.37,-0.92,0.48
0.33,-0.96,0.57
0.31,-1.02,0.65
0.31,-1.12,0.69
0.27,-1.19,0.75
0.24,-1.21,0.84
0.24,-1.22,0.92
0.24,-1.27,0.94
0.24,-1.3,0.97
0.21,-1.33,1.01
0.19,-1.37,1.09
0.17,-1.37,1.22
0.19,-1.4,1.3
0.22,-1.47,1.32
0.21,-1.51,1.35
0.18,-1.54,1.36
0.14,-1.59,1.3
0.11,-1.67,1.23
0.09,-1.71,1.27
0.17,-1.72,1.36
0.21,-1.7,1.41
0.22,-1.68,1.36
0.2,-1.68,1.27
0.17,-1.72,1.18
0.15,-1.74,1.1
0.14,-1.72,1.06
0.15,-1.68,1.03
0.2,-1.63,1
0.27,-1.59,0.97
0.32,-1.58,0.93
0.32,-1.57,0.88
0.28,-1.53,0.83
0.25,-1.46,0.79
0.22,-1.38,0.73
0.22,-1.29,0.68
0.25,-1.2,0.65
0.24,-1.15,0.6
0.22,-1.11,0.57
0.21,-1.06,0.55
0.24,-0.97,0.49
0.31,-0.84,0.44
0.36,-0.73,0.41
0.38,-0.69,0.41
0.37,-0.64,0.4
0.34,-0.59,0.35
0.33,-0.39,0.23
0.3,-0.32,0.18
0.31,-0.26,0.13
0.31,-0.22,0.08
0.32,-0.17,0.06
0.3,-0.12,0.06
0.27,-0.07,0.08
0.29,-0.02,0.12
0.3,0.02,0.17
0.27,0.05,0.21
0.21,0.09,0.22
0.15,0.1,0.19
0.09,0.11,0.16
0.05,0.13,0.16
0.04,0.14,0.19
0.03,0.16,0.25
-0.01,0.18,0.32
-0.05,0.18,0.4
-0.09,0.18,0.48
-0.11,0.18,0.56
-0.12,0.17,0.63
-0.14,0.14,0.69
-0.15,0.12,0.72
-0.16,0.12,0.74
-0.18,0.13,0.75
-0.2,0.13,0.76
-0.2,0.14,0.83
-0.17,0.13,0.87
-0.17,0.12,0.88
-0.19,0.12,0.88
-0.19,0.13,0.85
-0.18,0.12,0.83
-0.17,0.11,0.8
-0.16,0.1,0.77
-0.13,0.08,0.73
-0.1,0.07,0.68
-0.07,0.07,0.63
-0.04,0.05,0.59
-0.02,0.02,0.55
-0.01,0,0.52
0,-0.02,0.49
0.01,-0.02,0.46
0.02,-0.04,0.43
0.03,-0.06,0.4
0.06,-0.11,0.37
0.09,-0.17,0.36
0.12,-0.19,0.35
0.16,-0.19,0.34
0.19,-0.22,0.32
0.22,-0.27,0.3
0.21,-0.33,0.3
0.2,-0.42,0.32
0.21,-0.57,0.42
0.15,-0.61,0.48
0.12,-0.63,0.51
0.13,-0.64,0.51
0.1,-0.58,0.5
0.11,-0.67,0.5
0.16,-0.81,0.52
0.2,-0.84,0.56
0.27,-0.9,0.61
0.32,-0.97,0.68
0.35,-1.02,0.74
0.37,-1.03,0.78
0.38,-1.04,0.77
0.38,-1.08,0.74
0.38,-1.13,0.75
0.4,-1.17,0.77
0.45,-1.23,0.84
0.53,-1.31,0.96
0.63,-1.4,1.04
0.69,-1.46,1.07
0.69,-1.47,1.07
0.64,-1.43,1.03
0.58,-1.41,1.03
0.53,-1.41,1.09
0.52,-1.37,1.15
0.56,-1.33,1.19
0.6,-1.33,1.21
0.61,-1.41,1.19
0.59,-1.42,1.16
0.54,-1.43,1.13
0.5,-1.44,1.11
0.46,-1.45,1.09
0.45,-1.45,1.06
0.47,-1.43,1.02
0.5,-1.41,0.97
0.54,-1.42,0.89
0.54,-1.46,0.84
0.48,-1.46,0.74
0.53,-1.44,0.71
0.71,-1.35,0.84
0.77,-1.23,1
0.56,-1.5,1.17
0,-1.6,1.14
-0.36,-1.34,0.83
-0.23,-1.29,0.51
-0.05,-1.23,0.36
-0.02,-1.14,0.35
-0.12,-1.04,0.42
-0.07,-0.93,0.47
0.15,-0.86,0.47
0.35,-0.84,0.43
0.53,-0.79,0.36
0.69,-0.65,0.12
0.73,-0.64,0.05
0.68,-0.64,0
0.75,-0.65,0
0.68,-0.63,0.02
0.49,-0.58,0.02
0.41,-0.55,0.05
0.39,-0.52,0.06
0.4,-0.5,0.07
0.42,-0.48,0.08
0.43,-0.48,0.07
0.44,-0.47,0.04
0.45,-0.47,0.01
0.47,-0.47,-0.01
0.49,-0.49,-0.02
0.52,-0.5,-0.03
0.55,-0.51,-0.02
0.57,-0.52,0
0.55,-0.53,0.03
0.52,-0.54,0.04
0.5,-0.55,0.04
0.49,-0.57,0.04
0.49,-0.6,0.04
0.51,-0.62,0.04
0.51,-0.65,0.05
0.5,-0.71,0.1
0.47,-0.77,0.21
0.47,-0.83,0.28
0.42,-0.86,0.41
0.4,-0.94,0.56
0.44,-1.04,0.66
0.54,-1.09,0.66
0.64,-1.14,0.6
0.64,-1.22,0.54
0.55,-1.22,0.57
0.46,-1.15,0.64
0.44,-1.17,0.7
0.44,-1.27,0.78
0.39,-1.29,0.89
0.36,-1.24,0.98
0.33,-1.22,1.05
0.24,-1.23,1.13
0.2,-1.29,1.17
0.25,-1.34,1.2
0.3,-1.38,1.25
0.27,-1.43,1.28
0.2,-1.46,1.27
0.16,-1.5,1.24
0.11,-1.53,1.22
0.06,-1.56,1.25
0.03,-1.59,1.3
0.01,-1.61,1.34
0.01,-1.62,1.33
0.08,-1.69,1.26
0.13,-1.72,1.18
0.17,-1.72,1.12
0.2,-1.69,1.07
0.25,-1.67,1.03
0.3,-1.66,1.01
0.34,-1.66,0.99
0.37,-1.65,0.95
0.37,-1.63,0.89
0.35,-1.58,0.83
0.36,-1.53,0.75
0.35,-1.44,0.69
0.34,-1.36,0.65
0.38,-1.31,0.61
0.4,-1.26,0.59
0.38,-1.19,0.59
0.35,-1.1,0.56
0.35,-1.01,0.52
0.35,-0.93,0.48
0.36,-0.85,0.43
0.41,-0.76,0.33
0.46,-0.63,0.27
0.46,-0.52,0.29
0.44,-0.44,0.32
0.43,-0.43,0.35
0.4,-0.39,0.31
0.33,-0.2,0.26
0.25,-0.14,0.2
0.21,-0.13,0.19
0.14,-0.14,0.17
0.12,-0.14,0.16
0.13,-0.08,0.19
0.14,-0.01,0.18
0.14,0.05,0.16
0.14,0.09,0.19
0.1,0.12,0.25
0.07,0.17,0.29
0.05,0.18,0.29
0.01,0.2,0.3
0,0.23,0.31
-0.01,0.19,0.34
-0.06,0.17,0.38
-0.1,0.19,0.4
-0.1,0.22,0.43
-0.09,0.23,0.45
-0.09,0.22,0.47
-0.11,0.19,0.5
-0.13,0.17,0.52
-0.13,0.17,0.53
-0.13,0.17,0.53
-0.13,0.18,0.52
-0.12,0.19,0.5
-0.09,0.19,0.46
-0.04,0.18,0.43
-0.02,0.17,0.4
-0.01,0.14,0.37
0,0.11,0.36
-0.01,0.08,0.34
-0.01,0.05,0.33
-0.02,0.03,0.32
-0.03,0.04,0.31
-0.02,0.04,0.3
-0.01,0.03,0.28
0.01,0,0.25
0.04,-0.05,0.23
0.04,-0.14,0.24
0.05,-0.22,0.27
0.08,-0.27,0.34
0.14,-0.31,0.4
0.2,-0.32,0.43
0.23,-0.32,0.45
0.24,-0.34,0.42
0.24,-0.37,0.4
0.25,-0.43,0.42
0.29,-0.53,0.46
0.35,-0.62,0.54
0.4,-0.71,0.6
0.43,-0.81,0.64
0.44,-0.9,0.68
0.5,-0.89,0.66
0.49,-0.89,0.65
0.52,-0.96,0.69
0.6,-1.07,0.76
0.69,-1.14,0.83
0.77,-1.19,0.9
0.79,-1.22,0.96
0.78,-1.22,0.95
0.76,-1.23,0.91
0.72,-1.26,0.91
0.7,-1.28,0.95
0.7,-1.27,0.98
0.75,-1.23,1.01
0.84,-1.19,1.07
0.92,-1.2,1.14
0.99,-1.24,1.17
1,-1.28,1.15
0.95,-1.33,1.14
0.9,-1.36,1.14
0.85,-1.37,1.13
0.82,-1.36,1.13
0.79,-1.36,1.14
0.8,-1.35,1.17
0.84,-1.32,1.2
0.85,-1.28,1.2
0.84,-1.26,1.1
0.77,-1.28,1.05
0.73,-1.27,1.01
0.7,-1.26,0.95
0.67,-1.27,0.92
0.63,-1.26,0.85
0.6,-1.23,0.77
0.6,-1.22,0.72
0.69,-1.2,0.69
0.64,-1.13,0.68
0.47,-1.09,0.69
0.43,-1.16,0.6
0.35,-1.15,0.48
0.25,-1.04,0.41
0.21,-0.96,0.36
0.2,-0.9,0.32
0.2,-0.85,0.32
0.16,-0.79,0.32
0.18,-0.74,0.3
0.31,-0.7,0.33
0.26,-0.64,0.37
0.17,-0.62,0.33
0.28,-0.61,0.31
0.38,-0.59,0.32
0.41,-0.58,0.3
0.37,-0.58,0.28
0.35,-0.58,0.2
0.42,-0.57,0.17
0.45,-0.58,0.15
0.44,-0.58,0.14
0.42,-0.58,0.14
0.41,-0.58,0.14
0.43,-0.59,0.15
0.46,-0.6,0.17
0.5,-0.62,0.2
0.54,-0.65,0.24
0.58,-0.68,0.3
0.61,-0.7,0.34
0.63,-0.73,0.37
0.62,-0.76,0.38
0.6,-0.78,0.39
0.59,-0.83,0.37
0.57,-0.9,0.35
0.56,-0.93,0.34
0.56,-0.93,0.41
0.56,-0.93,0.49
0.54,-0.99,0.54
0.5,-1.04,0.62
0.46,-1.08,0.71
0.4,-1.15,0.76
0.35,-1.18,0.79
0.31,-1.2,0.84
0.33,-1.22,1.11
0.28,-1.26,1.2
0.27,-1.31,1.18
0.21,-1.35,1.12
0.13,-1.37,1.13
0.07,-1.42,1.2
0.02,-1.48,1.27
-0.04,-1.53,1.32
-0.04,-1.6,1.37
0.02,-1.65,1.42
0.07,-1.65,1.43
0.11,-1.64,1.39
0.17,-1.64,1.35
0.22,-1.68,1.32
0.24,-1.69,1.31
0.24,-1.66,1.27
0.24,-1.63,1.2
0.23,-1.59,1.14
0.22,-1.58,1.12
0.23,-1.59,1.11
0.29,-1.58,1.05
0.34,-1.54,0.98
0.39,-1.51,0.88
0.41,-1.46,0.8
0.42,-1.38,0.72
0.44,-1.31,0.64
0.44,-1.24,0.51
0.46,-1.07,0.45
0.47,-0.98,0.41
0.48,-0.88,0.39
0.51,-0.77,0.4
0.49,-0.69,0.39
0.47,-0.63,0.34
0.48,-0.59,0.29
0.46,-0.55,0.24
0.43,-0.52,0.22
0.4,-0.45,0.2
0.35,-0.36,0.2
0.27,-0.28,0.21
0.26,-0.23,0.21
0.31,-0.18,0.2
0.35,-0.13,0.2
0.35,-0.08,0.21
0.3,-0.01,0.24
0.24,0.04,0.25
0.16,0.06,0.26
0.09,0.07,0.27
0.03,0.08,0.3
0.02,0.09,0.34
0.02,0.12,0.35
0.01,0.16,0.35
-0.01,0.17,0.35
-0.01,0.16,0.36
-0.01,0.18,0.41
-0.02,0.18,0.43
-0.02,0.19,0.44
-0.03,0.17,0.47
-0.04,0.16,0.5
-0.05,0.15,0.54
-0.07,0.13,0.55
-0.08,0.13,0.55
-0.08,0.14,0.54
-0.08,0.14,0.53
-0.09,0.14,0.53
-0.09,0.14,0.53
-0.08,0.14,0.51
-0.06,0.13,0.5
-0.04,0.11,0.47
-0.02,0.09,0.44
-0.02,0.05,0.42
-0.02,0.02,0.39
-0.01,-0.01,0.38
-0.01,-0.03,0.38
-0.01,-0.05,0.37
0,-0.08,0.35
0.01,-0.12,0.33
0.02,-0.19,0.32
0.04,-0.25,0.33
0.07,-0.3,0.35
0.09,-0.37,0.38
0.15,-0.38,0.39
0.21,-0.38,0.4
0.27,-0.39,0.42
0.31,-0.45,0.43
0.35,-0.55,0.42
0.42,-0.69,0.41
0.45,-0.82,0.41
0.47,-0.87,0.41
0.46,-0.87,0.45
0.45,-0.83,0.55
0.48,-0.81,0.61
0.5,-0.83,0.64
0.51,-0.87,0.64
0.58,-0.93,0.61
0.69,-0.97,0.57
0.8,-1.04,0.53
0.88,-1.11,0.47
0.95,-1.19,0.42
1.04,-1.26,0.41
1.12,-1.31,0.46
1.16,-1.33,0.53
1.18,-1.33,0.62
1.17,-1.34,0.66
1.14,-1.38,0.66
1.08,-1.43,0.65
1.03,-1.5,0.77
1.05,-1.51,0.86
1.06,-1.52,0.88
1.01,-1.53,0.92
0.96,-1.53,0.94
0.9,-1.54,0.92
0.84,-1.56,0.91
0.78,-1.56,0.92
0.74,-1.54,0.95
0.7,-1.52,1
0.67,-1.49,1.02
0.65,-1.46,1.01
0.62,-1.43,0.95
0.57,-1.4,0.88
0.53,-1.37,0.81
0.49,-1.38,0.76
0.43,-1.36,0.74
0.43,-1.37,0.7
0.46,-1.43,0.67
0.5,-1.33,0.76
0.58,-1.23,0.74
0.57,-1.32,0.62
0.27,-1.31,0.56
0.02,-1.18,0.47
0,-1.11,0.42
0.01,-1.09,0.39
0.14,-1.02,0.36
0.22,-0.86,0.37
0.36,-0.77,0.36
0.47,-0.7,0.34
0.44,-0.65,0.3
0.4,-0.62,0.26
0.39,-0.58,0.2
0.42,-0.57,0.19
0.43,-0.56,0.17
0.37,-0.51,0.18
0.33,-0.46,0.23
0.36,-0.45,0.23
0.41,-0.44,0.21
0.44,-0.43,0.19
0.46,-0.42,0.14
0.44,-0.41,0.09
0.45,-0.41,0.05
0.48,-0.42,0.03
0.49,-0.44,0.02
0.46,-0.45,0.02
0.45,-0.47,0.04
0.48,-0.49,0.06
0.5,-0.51,0.08
0.52,-0.55,0.11
0.52,-0.6,0.16
0.54,-0.67,0.2
0.56,-0.73,0.27
0.48,-0.8,0.31
0.44,-0.83,0.34
0.43,-0.88,0.39
0.4,-0.97,0.48
0.37,-1.05,0.62
0.42,-1.11,0.7
0.45,-1.19,0.73
0.38,-1.26,0.79
0.32,-1.3,0.83
0.36,-1.33,0.84
0.47,-1.35,0.89
0.58,-1.34,0.98
0.61,-1.33,1.1
0.56,-1.35,1.2
0.5,-1.4,1.19
0.44,-1.4,1.15
0.33,-1.39,1.16
0.25,-1.45,1.19
0.27,-1.51,1.22
0.31,-1.57,1.27
0.35,-1.63,1.33
0.37,-1.68,1.35
0.35,-1.71,1.31
0.31,-1.69,1.26
0.3,-1.65,1.24
0.32,-1.64,1.21
0.31,-1.66,1.18
0.3,-1.65,1.14
0.3,-1.63,1.1
0.3,-1.61,1.05
0.33,-1.58,1.01
0.37,-1.56,0.97
0.4,-1.54,0.94
0.41,-1.49,0.88
0.41,-1.43,0.79
0.43,-1.38,0.7
0.46,-1.34,0.64
0.48,-1.31,0.6
0.49,-1.24,0.56
0.49,-1.11,0.54
0.51,-1.01,0.52
0.52,-0.94,0.46
0.49,-0.9,0.4
0.47,-0.84,0.36
0.49,-0.75,0.31
0.51,-0.65,0.27
0.53,-0.51,0.26
0.52,-0.41,0.27
0.49,-0.4,0.28
0.47,-0.37,0.28
0.44,-0.34,0.26
0.41,-0.31,0.25
0.37,-0.21,0.26
0.35,-0.1,0.25
0.3,-0.02,0.23
0.25,0.05,0.18
0.27,0.07,0.13
0.3,0.05,0.13
0.28,0.03,0.14
0.22,0.02,0.18
0.17,0.05,0.21
0.12,0.12,0.24
0.07,0.17,0.28
0.07,0.17,0.32
0.1,0.19,0.36
0.12,0.23,0.42
0.11,0.23,0.46
0.06,0.21,0.5
-0.02,0.2,0.52
-0.07,0.2,0.56
-0.1,0.22,0.6
-0.09,0.23,0.65
-0.09,0.21,0.69
-0.1,0.19,0.71
-0.11,0.19,0.72
-0.13,0.21,0.72
-0.14,0.23,0.74
-0.14,0.25,0.76
-0.12,0.22,0.8
-0.1,0.21,0.79
-0.08,0.2,0.79
-0.07,0.19,0.78
-0.06,0.18,0.77
-0.06,0.16,0.76
-0.05,0.15,0.76
-0.04,0.16,0.75
-0.02,0.16,0.74
-0.01,0.14,0.71
0.02,0.13,0.68
0.05,0.11,0.64
0.07,0.08,0.6
0.07,0.07,0.58
0.08,0.06,0.56
0.1,0.04,0.53
0.11,0.02,0.49
0.11,-0.01,0.44
0.12,-0.01,0.38
0.11,-0.03,0.35
0.1,-0.08,0.33
0.11,-0.12,0.33
0.12,-0.18,0.33
0.15,-0.23,0.34
0.17,-0.28,0.34
0.19,-0.3,0.35
0.23,-0.35,0.34
0.27,-0.42,0.31
0.26,-0.48,0.31
0.26,-0.55,0.33
0.27,-0.63,0.37
0.31,-0.67,0.43
0.37,-0.72,0.46
0.42,-0.81,0.47
0.44,-0.89,0.47
0.43,-0.94,0.44
0.42,-0.97,0.42
0.41,-1.02,0.49
0.44,-1.05,0.61
0.53,-1.02,0.65
0.64,-1.05,0.64
0.71,-1.18,0.64
0.74,-1.32,0.61
0.75,-1.43,0.62
0.74,-1.48,0.71
0.73,-1.46,0.84
0.72,-1.4,0.89
0.74,-1.35,0.9
0.76,-1.33,0.93
0.8,-1.34,0.95
0.83,-1.4,0.94
0.83,-1.47,0.95
0.82,-1.53,1.01
0.78,-1.54,1.04
0.77,-1.53,1.07
0.76,-1.52,1.09
0.75,-1.51,1.12
0.73,-1.52,1.12
0.7,-1.52,1.1
0.65,-1.52,1.08
0.59,-1.5,1.06
0.55,-1.48,1.04
0.55,-1.46,1.01
0.53,-1.43,0.98
0.53,-1.4,0.93
0.53,-1.42,0.89
0.45,-1.42,0.84
0.44,-1.36,0.77
0.5,-1.4,0.7
0.6,-1.26,0.69
0.52,-1.11,0.75
0.42,-1.26,0.84
0.35,-1.38,0.84
0.11,-1.26,0.7
0,-1.11,0.57
0.03,-1.06,0.48
0.06,-0.98,0.4
0.07,-0.89,0.38
0.06,-0.74,0.4
0.22,-0.69,0.42
0.33,-0.63,0.4
0.43,-0.58,0.34
0.51,-0.55,0.28
0.54,-0.53,0.22
0.56,-0.48,0.18
0.52,-0.45,0.14
0.47,-0.43,0.12
0.45,-0.43,0.12
0.44,-0.41,0.13
0.44,-0.4,0.14
0.45,-0.39,0.15
0.46,-0.39,0.15
0.47,-0.4,0.15
0.47,-0.41,0.14
0.48,-0.43,0.13
0.49,-0.45,0.11
0.48,-0.46,0.1
0.48,-0.48,0.1
0.49,-0.51,0.12
0.51,-0.54,0.13
0.52,-0.58,0.16
0.51,-0.62,0.22
0.49,-0.67,0.3
0.49,-0.74,0.39
0.51,-0.8,0.46
0.51,-0.91,0.47
0.48,-0.96,0.52
0.44,-1.01,0.58
0.38,-1.05,0.65
0.34,-1.12,0.71
0.29,-1.2,0.79
0.21,-1.27,0.87
0.23,-1.29,0.96
0.31,-1.31,1.05
0.34,-1.35,1.12
0.33,-1.36,1.15
0.3,-1.39,1.14
0.27,-1.43,1.12
0.22,-1.42,1.11
0.24,-1.43,1.12
0.22,-1.44,1.17
0.12,-1.46,1.26
0.11,-1.54,1.3
0.15,-1.6,1.31
0.18,-1.61,1.31
0.18,-1.59,1.28
0.18,-1.57,1.27
0.2,-1.56,1.25
0.23,-1.56,1.22
0.25,-1.56,1.23
0.24,-1.58,1.18
0.22,-1.58,1.15
0.19,-1.58,1.14
0.18,-1.6,1.13
0.2,-1.59,1.09
0.22,-1.56,1.01
0.22,-1.52,0.94
0.25,-1.49,0.89
0.28,-1.46,0.84
0.31,-1.45,0.78
0.34,-1.41,0.72
0.37,-1.33,0.66
0.37,-1.21,0.64
0.35,-1.12,0.63
0.34,-1.05,0.61
0.34,-0.98,0.56
0.34,-0.91,0.48
0.35,-0.84,0.41
0.34,-0.76,0.36
0.3,-0.7,0.34
0.28,-0.63,0.32
0.28,-0.54,0.29
0.28,-0.46,0.25
0.3,-0.37,0.23
0.31,-0.27,0.23
0.31,-0.21,0.19
0.28,-0.16,0.16
0.23,-0.1,0.13
0.25,-0.09,0.11
0.26,-0.11,0.1
0.23,-0.06,0.09
0.2,0.03,0.1
0.18,0.08,0.15
0.16,0.1,0.19
0.16,0.13,0.22
0.13,0.15,0.21
0.11,0.12,0.2
0.08,0.1,0.2
0.05,0.14,0.23
0.02,0.18,0.29
-0.01,0.21,0.37
-0.02,0.21,0.43
-0.03,0.16,0.46
-0.06,0.12,0.46
-0.1,0.11,0.47
-0.11,0.14,0.5
-0.11,0.16,0.53
-0.12,0.16,0.55
-0.12,0.15,0.56
-0.13,0.14,0.57
-0.13,0.13,0.58
-0.13,0.12,0.58
-0.13,0.11,0.56
-0.1,0.07,0.51
-0.09,0.04,0.47
-0.08,0.01,0.44
-0.06,-0.01,0.41
-0.03,-0.04,0.39
0,-0.08,0.38
0.03,-0.12,0.38
0.06,-0.17,0.37
0.08,-0.22,0.36
0.11,-0.24,0.36
0.13,-0.26,0.35
0.14,-0.27,0.36
0.17,-0.29,0.37
0.21,-0.33,0.39
0.25,-0.37,0.4
0.31,-0.44,0.42
0.36,-0.54,0.45
0.4,-0.66,0.44
0.41,-0.79,0.43
0.39,-0.86,0.43
0.39,-0.85,0.45
0.39,-0.81,0.52
0.41,-0.79,0.61
0.46,-0.79,0.67
0.5,-0.83,0.68
0.52,-0.91,0.67
0.55,-1.18,0.62
0.54,-1.27,0.62
0.57,-1.31,0.69
0.63,-1.26,0.8
0.68,-1.2,0.87
0.72,-1.18,0.89
0.74,-1.19,0.9
0.74,-1.22,0.89
0.73,-1.27,0.86
0.69,-1.35,0.84
0.68,-1.42,0.86
0.69,-1.44,0.92
0.72,-1.42,0.98
0.74,-1.39,1.04
0.77,-1.38,1.08
0.77,-1.38,1.1
0.74,-1.39,1.09
0.7,-1.4,1.08
0.66,-1.4,1.09
0.65,-1.4,1.08
0.65,-1.39,1.06
0.63,-1.38,1.01
0.61,-1.36,1
0.61,-1.32,1.05
0.62,-1.28,1.08
0.61,-1.25,1.05
0.58,-1.22,0.91
0.49,-1.25,0.87
0.43,-1.22,0.8
0.52,-1.26,0.76
0.6,-1.29,0.72
0.61,-1.18,0.73
0.55,-1.16,0.77
0.5,-1.29,0.7
0.37,-1.27,0.62
0.15,-1.11,0.55
0.16,-1.03,0.44
0.2,-0.99,0.34
0.16,-0.91,0.31
0.13,-0.85,0.34
0.18,-0.8,0.37
0.22,-0.74,0.37
0.28,-0.69,0.39
0.26,-0.64,0.36
0.25,-0.61,0.31
0.33,-0.59,0.31
0.3,-0.56,0.32
0.25,-0.5,0.31
0.31,-0.49,0.27
0.37,-0.51,0.23
0.41,-0.51,0.2
0.47,-0.51,0.17
0.47,-0.5,0.12
0.37,-0.51,0.09
0.38,-0.52,0.07
0.4,-0.54,0.08
0.42,-0.57,0.09
0.43,-0.6,0.11
0.43,-0.63,0.13
0.43,-0.67,0.15
0.43,-0.71,0.17
0.43,-0.74,0.19
0.42,-0.78,0.22
0.43,-0.84,0.24
0.43,-0.89,0.28
0.41,-0.94,0.33
0.39,-0.99,0.39
0.35,-1.05,0.43
0.34,-1.08,0.47
0.32,-1.09,0.55
0.33,-1.13,0.65
0.32,-1.2,0.75
0.22,-1.22,0.83
0.17,-1.21,0.9
0.17,-1.22,0.98
0.16,-1.25,1.07
0.13,-1.29,1.14
0.04,-1.32,1.15
-0.02,-1.35,1.06
-0.07,-1.37,1.08
-0.08,-1.39,1.17
-0.08,-1.44,1.27
-0.05,-1.52,1.34
-0.03,-1.6,1.39
-0.03,-1.64,1.39
-0.01,-1.6,1.35
0.02,-1.55,1.3
0.06,-1.54,1.25
0.08,-1.57,1.23
0.1,-1.61,1.22
0.11,-1.62,1.21
0.1,-1.59,1.2
0.09,-1.56,1.19
0.11,-1.56,1.16
0.13,-1.57,1.15
0.15,-1.58,1.14
0.17,-1.57,1.09
0.19,-1.54,1.03
0.21,-1.5,0.95
0.24,-1.46,0.86
0.25,-1.43,0.82
0.26,-1.39,0.79
0.27,-1.33,0.74
0.3,-1.25,0.7
0.31,-1.19,0.7
0.33,-1.07,0.65
0.35,-0.98,0.58
0.35,-0.88,0.5
0.34,-0.79,0.44
0.34,-0.73,0.4
0.33,-0.68,0.35
0.33,-0.59,0.31
0.35,-0.52,0.25
0.34,-0.47,0.21
0.32,-0.39,0.2
0.29,-0.29,0.21
0.26,-0.21,0.2
0.26,-0.18,0.18
0.28,-0.14,0.15
0.26,-0.1,0.11
0.22,-0.06,0.09
0.19,-0.03,0.1
0.18,0.02,0.13
0.14,0.08,0.17
0.12,0.06,0.18
0.09,0.07,0.18
0.06,0.07,0.2
0.05,0.06,0.21
0.03,0.11,0.23
0.02,0.19,0.26
0.03,0.22,0.4
0,0.16,0.47
-0.06,0.15,0.53
-0.09,0.2,0.57
-0.1,0.23,0.6
-0.1,0.22,0.63
-0.12,0.19,0.66
-0.13,0.17,0.71
-0.15,0.15,0.75
-0.16,0.16,0.77
-0.16,0.17,0.79
-0.14,0.18,0.79
-0.14,0.18,0.79
-0.15,0.2,0.78
-0.15,0.2,0.77
-0.13,0.17,0.76
-0.12,0.14,0.76
-0.12,0.13,0.75
-0.11,0.13,0.71
-0.08,0.12,0.66
-0.06,0.09,0.6
-0.04,0.08,0.55
-0.03,0.08,0.5
-0.02,0.06,0.46
0,0.05,0.42
0.01,0.02,0.38
0.03,-0.02,0.35
0.06,-0.08,0.35
0.1,-0.09,0.34
0.13,-0.11,0.32
0.15,-0.15,0.31
0.17,-0.19,0.31
0.19,-0.24,0.31
0.21,-0.29,0.3
0.23,-0.36,0.3
0.27,-0.4,0.31
0.3,-0.44,0.34
0.31,-0.48,0.35
0.33,-0.55,0.33
0.35,-0.61,0.32
0.38,-0.65,0.32
0.42,-0.7,0.33
0.47,-0.77,0.41
0.51,-0.84,0.51
0.58,-0.93,0.55
0.62,-1.02,0.52
0.64,-1.07,0.47
0.64,-1.01,0.47
0.66,-1.09,0.47
0.66,-1.26,0.5
0.67,-1.29,0.58
0.76,-1.26,0.65
0.87,-1.23,0.73
0.95,-1.35,0.71
0.99,-1.39,0.69
0.96,-1.42,0.68
0.92,-1.47,0.7
0.92,-1.5,0.8
0.94,-1.5,0.9
0.95,-1.5,0.95
0.94,-1.5,0.98
0.93,-1.49,0.98
0.88,-1.45,1.01
0.84,-1.4,1.05
0.84,-1.37,1.06
0.82,-1.38,1.03
0.79,-1.42,0.99
0.78,-1.47,0.96
0.76,-1.49,0.99
0.71,-1.47,1.07
0.68,-1.42,1.1
0.67,-1.37,1.05
0.63,-1.35,0.99
0.55,-1.38,0.95
0.47,-1.37,0.95
0.49,-1.35,0.92
0.58,-1.45,0.9
0.66,-1.45,0.9
0.6,-1.36,0.9
0.19,-1.36,0.71
0.13,-1.28,0.53
0.07,-1.22,0.41
0.01,-1.15,0.37
-0.03,-1.08,0.4
0.03,-0.98,0.43
0.14,-0.89,0.44
0.24,-0.82,0.44
0.36,-0.75,0.4
0.45,-0.69,0.34
0.45,-0.63,0.26
0.46,-0.59,0.21
0.43,-0.58,0.24
0.29,-0.55,0.28
0.22,-0.51,0.31
0.22,-0.48,0.34
0.27,-0.46,0.33
0.36,-0.45,0.28
0.43,-0.46,0.23
0.49,-0.46,0.18
0.54,-0.45,0.12
0.54,-0.45,0.09
0.53,-0.45,0.07
0.53,-0.46,0.06
0.54,-0.48,0.06
0.56,-0.49,0.08
0.57,-0.53,0.13
0.54,-0.56,0.17
0.54,-0.57,0.2
0.55,-0.59,0.22
0.57,-0.6,0.23
0.57,-0.61,0.22
0.52,-0.65,0.23
0.46,-0.69,0.27
0.46,-0.73,0.33
0.43,-0.77,0.4
0.39,-0.82,0.48
0.38,-0.87,0.57
0.39,-0.9,0.67
0.4,-0.93,0.72
0.37,-0.99,0.72
0.32,-1.06,0.69
0.27,-1.11,0.72
0.22,-1.14,0.86
0.18,-1.17,1.03
0.14,-1.23,1.19
0.14,-1.31,1.28
0.14,-1.33,1.29
0.08,-1.37,1.25
0,-1.44,1.21
-0.04,-1.51,1.19
-0.05,-1.58,1.2
-0.04,-1.62,1.4
-0.02,-1.57,1.45
-0.01,-1.55,1.43
-0.01,-1.56,1.4
-0.01,-1.59,1.37
-0.03,-1.63,1.33
-0.04,-1.67,1.31
-0.06,-1.68,1.29
-0.03,-1.65,1.25
0.01,-1.61,1.21
0.04,-1.61,1.17
0.08,-1.63,1.13
0.12,-1.66,1.09
0.14,-1.64,1.02
0.17,-1.61,0.93
0.21,-1.58,0.84
0.26,-1.55,0.77
0.29,-1.51,0.72
0.34,-1.45,0.69
0.4,-1.37,0.63
0.44,-1.29,0.59
0.44,-1.21,0.56
0.42,-1.12,0.49
0.4,-1.03,0.42
0.38,-0.94,0.37
0.37,-0.85,0.34
0.38,-0.76,0.32
0.39,-0.59,0.28
0.41,-0.52,0.24
0.41,-0.47,0.21
0.41,-0.41,0.17
0.4,-0.35,0.14
0.38,-0.27,0.15
0.33,-0.19,0.16
0.31,-0.16,0.17
0.3,-0.14,0.2
0.26,-0.08,0.23
0.25,-0.04,0.22
0.25,-0.02,0.22
0.22,0,0.22
0.18,0.02,0.21
0.13,0.06,0.2
0.1,0.09,0.23
0.09,0.13,0.28
0.08,0.14,0.34
0.06,0.12,0.39
0.02,0.11,0.44
-0.02,0.1,0.46
-0.05,0.09,0.47
-0.09,0.1,0.5
-0.1,0.11,0.52
-0.1,0.11,0.54
-0.09,0.11,0.57
-0.13,0.08,0.57
-0.14,0.07,0.58
-0.15,0.07,0.6
-0.14,0.07,0.61
-0.12,0.06,0.6
-0.11,0.06,0.57
-0.1,0.04,0.52
-0.08,0.03,0.47
-0.07,0.02,0.45
-0.05,0,0.45
-0.04,-0.01,0.46
-0.03,-0.01,0.45
-0.02,-0.03,0.43
0,-0.07,0.4
0.02,-0.12,0.36
0.03,-0.17,0.33
0.04,-0.21,0.31
0.07,-0.25,0.32
0.11,-0.3,0.35
0.14,-0.32,0.38
0.16,-0.33,0.39
0.18,-0.35,0.41
0.21,-0.38,0.4
0.24,-0.42,0.38
0.26,-0.49,0.36
0.28,-0.62,0.36
0.29,-0.78,0.45
0.34,-0.79,0.54
0.38,-0.75,0.59
0.43,-0.72,0.6
0.45,-0.8,0.59
0.43,-0.89,0.59
0.43,-0.97,0.54
0.44,-1.08,0.48
0.48,-1.2,0.56
0.56,-1.27,0.7
0.65,-1.24,0.77
0.71,-1.18,0.79
0.73,-1.15,0.76
0.74,-1.19,0.73
0.74,-1.27,0.7
0.73,-1.36,0.7
0.73,-1.42,0.78
0.75,-1.43,0.9
0.77,-1.4,1
0.78,-1.36,1.04
0.79,-1.34,1.05
0.79,-1.35,1.07
0.76,-1.35,1.1
0.71,-1.35,1.1
0.68,-1.36,1.09
0.65,-1.38,1.19
0.64,-1.4,1.24
0.65,-1.38,1.21
0.65,-1.35,1.17
0.66,-1.32,1.14
0.66,-1.29,1.11
0.65,-1.27,1.05
0.62,-1.25,1
0.61,-1.22,0.94
0.6,-1.24,0.87
0.55,-1.3,0.84
0.5,-1.31,0.8
0.5,-1.24,0.76
0.52,-1.21,0.71
0.54,-1.18,0.64
0.47,-1.11,0.61
0.34,-1.1,0.59
0.35,-1.11,0.55
0.37,-1.07,0.52
0.37,-1.03,0.46
0.36,-0.98,0.4
0.35,-0.92,0.38
0.35,-0.86,0.36
0.37,-0.82,0.34
0.39,-0.79,0.32
0.38,-0.75,0.3
0.36,-0.7,0.28
0.33,-0.63,0.28
0.31,-0.59,0.3
0.29,-0.56,0.3
0.34,-0.54,0.32
0.35,-0.51,0.36
0.35,-0.5,0.37
0.39,-0.49,0.35
0.39,-0.48,0.33
0.37,-0.48,0.31
0.39,-0.48,0.28
0.42,-0.49,0.26
0.45,-0.5,0.25
0.47,-0.52,0.25
0.49,-0.54,0.27
0.5,-0.56,0.31
0.53,-0.58,0.36
0.57,-0.62,0.4
0.6,-0.64,0.43
0.62,-0.68,0.46
0.63,-0.72,0.5
0.61,-0.78,0.55
0.6,-0.86,0.61
0.62,-0.93,0.67
0.64,-0.97,0.71
0.65,-1,0.71
0.62,-1.02,0.68
0.57,-1.01,0.6
0.48,-0.99,0.62
0.43,-0.96,0.66
0.38,-0.95,0.73
0.34,-0.99,0.82
0.31,-1.07,0.87
0.35,-1.11,0.88
0.37,-1.13,0.88
0.35,-1.13,0.91
0.32,-1.16,0.95
0.3,-1.22,0.98
0.28,-1.29,1.02
0.28,-1.34,1.06
0.3,-1.37,1.08
0.3,-1.42,1.1
0.29,-1.47,1.14
0.31,-1.52,1.2
0.32,-1.55,1.23
0.31,-1.54,1.24
0.32,-1.5,1.24
0.32,-1.47,1.24
0.32,-1.49,1.24
0.32,-1.51,1.23
0.34,-1.52,1.21
0.37,-1.5,1.18
0.41,-1.47,1.15
0.43,-1.49,1.07
0.41,-1.52,1.01
0.41,-1.51,0.94
0.43,-1.5,0.88
0.46,-1.48,0.84
0.48,-1.44,0.82
0.48,-1.38,0.77
0.49,-1.28,0.69
0.52,-1.18,0.63
0.54,-1.09,0.58
0.53,-1.02,0.56
0.48,-0.96,0.56
0.44,-0.9,0.54
0.44,-0.81,0.49
0.44,-0.72,0.42
0.45,-0.64,0.37
0.44,-0.6,0.32
0.45,-0.56,0.28
0.45,-0.5,0.26
0.43,-0.46,0.21
0.43,-0.43,0.14
0.44,-0.39,0.08
0.43,-0.38,0.05
0.42,-0.34,0.04
0.4,-0.29,0.02
0.37,-0.24,0.03
0.33,-0.16,0.02
0.28,-0.04,0.06
0.26,-0.04,0.09
0.25,-0.01,0.11
0.23,0.06,0.16
0.18,0.06,0.22
0.13,0.04,0.26
0.06,0.04,0.31
-0.02,0.06,0.38
-0.06,0.07,0.41
-0.05,0.09,0.42
-0.03,0.08,0.43
-0.04,0.05,0.43
-0.04,0.03,0.43
-0.05,0.03,0.45
-0.05,0.04,0.48
-0.04,0.04,0.51
-0.03,0.04,0.52
-0.03,0.04,0.53
-0.03,0.04,0.53
-0.02,0.04,0.54
-0.01,0.03,0.54
0,0,0.53
0.01,-0.03,0.49
0.02,-0.05,0.46
0.03,-0.08,0.45
0.05,-0.12,0.45
0.09,-0.14,0.43
0.11,-0.13,0.42
0.13,-0.15,0.4
0.16,-0.21,0.38
0.18,-0.31,0.36
0.18,-0.42,0.35
0.19,-0.52,0.38
0.21,-0.55,0.42
0.26,-0.5,0.44
0.33,-0.44,0.44
0.38,-0.45,0.43
0.39,-0.52,0.42
0.41,-0.61,0.42
0.44,-0.74,0.45
0.47,-0.81,0.52
0.54,-0.85,0.56
0.58,-0.9,0.54
0.6,-0.93,0.5
0.64,-0.96,0.45
0.63,-0.98,0.44
0.63,-1.03,0.45
0.65,-1.11,0.51
0.69,-1.17,0.61
0.76,-1.2,0.68
0.82,-1.22,0.69
0.86,-1.27,0.67
0.84,-1.36,0.66
0.81,-1.36,0.66
0.8,-1.32,0.68
0.8,-1.26,0.74
0.83,-1.23,0.8
0.88,-1.21,0.86
0.92,-1.22,0.87
0.93,-1.26,0.86
0.92,-1.31,0.86
0.91,-1.33,0.89
0.91,-1.31,0.92
0.91,-1.28,0.94
0.89,-1.27,0.93
0.87,-1.28,0.91
0.87,-1.3,0.88
0.88,-1.34,0.83
0.88,-1.39,0.78
0.85,-1.39,0.78
0.84,-1.36,0.77
0.84,-1.32,0.73
0.85,-1.27,0.67
0.82,-1.29,0.63
0.74,-1.34,0.61
0.68,-1.31,0.61
0.77,-1.31,0.57
0.93,-1.34,0.69
0.5,-1.29,0.69
0.32,-1.35,0.57
0.2,-1.36,0.4
0.21,-1.29,0.27
0.2,-1.16,0.22
0.22,-1.07,0.24
0.27,-1.04,0.3
0.31,-0.99,0.39
0.37,-0.92,0.46
0.4,-0.84,0.4
0.58,-0.76,0.43
0.55,-0.68,0.42
0.45,-0.59,0.31
0.48,-0.57,0.24
0.46,-0.58,0.17
0.58,-0.56,0.16
0.66,-0.52,0.15
0.67,-0.49,0.16
0.64,-0.47,0.16
0.65,-0.45,0.12
0.68,-0.43,0.07
0.69,-0.41,0.02
0.66,-0.4,0
0.62,-0.37,-0.01
0.61,-0.35,-0.03
0.62,-0.33,-0.07
0.63,-0.32,-0.09
0.65,-0.32,-0.08
0.65,-0.32,-0.08
0.63,-0.32,-0.08
0.61,-0.33,-0.06
0.59,-0.35,-0.03
0.59,-0.38,0.01
0.6,-0.41,0.04
0.62,-0.43,0.08
0.64,-0.45,0.11
0.63,-0.47,0.12
0.56,-0.49,0.13
0.5,-0.53,0.16
0.46,-0.56,0.19
0.45,-0.61,0.24
0.46,-0.66,0.3
0.47,-0.71,0.36
0.49,-0.76,0.43
0.51,-0.81,0.46
0.52,-0.85,0.5
0.5,-0.89,0.56
0.48,-0.93,0.61
0.47,-1,0.66
0.44,-1.06,0.7
0.4,-1.11,0.78
0.36,-1.14,0.86
0.32,-1.21,0.99
0.27,-1.24,1.06
0.28,-1.26,1.11
0.29,-1.27,1.14
0.27,-1.26,1.17
0.26,-1.24,1.18
0.25,-1.26,1.16
0.25,-1.29,1.16
0.26,-1.31,1.18
0.26,-1.35,1.23
0.27,-1.37,1.25
0.31,-1.36,1.24
0.31,-1.32,1.23
0.3,-1.32,1.25
0.33,-1.36,1.25
0.35,-1.41,1.21
0.37,-1.44,1.19
0.36,-1.47,1.2
0.35,-1.5,1.21
0.35,-1.54,1.21
0.35,-1.55,1.19
0.32,-1.54,1.18
0.32,-1.52,1.17
0.36,-1.49,1.13
0.38,-1.45,1.09
0.4,-1.38,1.07
0.41,-1.33,1
0.42,-1.21,0.93
0.43,-1.15,0.86
0.44,-1.11,0.8
0.46,-1.08,0.74
0.46,-1.06,0.69
0.45,-1.03,0.66
0.46,-0.97,0.62
0.46,-0.87,0.56
0.45,-0.79,0.5
0.44,-0.73,0.43
0.44,-0.69,0.38
0.43,-0.66,0.34
0.42,-0.61,0.29
0.39,-0.52,0.27
0.37,-0.43,0.24
0.37,-0.37,0.21
0.36,-0.29,0.19
0.36,-0.21,0.2
0.33,-0.18,0.22
0.28,-0.15,0.21
0.24,-0.11,0.19
0.21,-0.08,0.16
0.2,-0.05,0.15
0.19,-0.01,0.15
0.19,0.03,0.18
0.17,0.02,0.24
0.1,0.03,0.26
0.08,0.02,0.27
0.06,0.06,0.28
0.08,0.1,0.3
0.09,0.12,0.34
0.07,0.12,0.39
0.05,0.11,0.42
0.04,0.1,0.44
0.02,0.08,0.47
0.01,0.05,0.49
0.01,0.03,0.5
0,0.02,0.51
-0.02,0.03,0.53
-0.04,0.05,0.55
-0.04,0.06,0.56
-0.03,0.06,0.57
-0.04,0.06,0.58
-0.05,0.04,0.58
-0.05,0.02,0.58
-0.04,0.01,0.56
-0.02,0,0.53
0.01,-0.03,0.51
0.03,-0.07,0.49
0.05,-0.11,0.47
0.06,-0.15,0.45
0.06,-0.17,0.4
0.11,-0.21,0.4
0.15,-0.23,0.4
0.18,-0.26,0.41
0.2,-0.31,0.4
0.22,-0.36,0.36
0.22,-0.44,0.32
0.21,-0.53,0.33
0.21,-0.56,0.39
0.25,-0.55,0.45
0.3,-0.52,0.48
0.35,-0.55,0.47
0.39,-0.63,0.43
0.41,-0.71,0.4
0.46,-0.77,0.42
0.5,-0.83,0.51
0.55,-0.89,0.6
0.6,-0.94,0.62
0.65,-0.99,0.59
0.68,-1.04,0.54
0.69,-1.08,0.51
0.71,-1.11,0.51
0.74,-1.15,0.55
0.78,-1.2,0.6
0.86,-1.24,0.64
0.93,-1.26,0.67
0.97,-1.27,0.7
1.03,-1.3,0.74
1.02,-1.29,0.78
1.01,-1.27,0.78
1.01,-1.28,0.77
1.01,-1.31,0.83
1.01,-1.34,0.94
1.01,-1.37,1.03
0.98,-1.39,1.11
0.94,-1.39,1.17
0.91,-1.38,1.17
0.89,-1.37,1.11
0.87,-1.35,1.05
0.86,-1.34,1.01
0.88,-1.37,0.97
0.9,-1.4,0.95
0.9,-1.4,1.01
0.88,-1.36,1.16
0.88,-1.28,1.19
0.83,-1.27,1.07
0.66,-1.28,0.97
0.55,-1.2,0.93
0.68,-1.13,0.9
0.79,-1.16,0.88
0.66,-1.18,0.91
0.5,-1.11,0.91
0.53,-1.05,0.82
0.5,-1.04,0.58
0.48,-0.99,0.47
0.37,-0.95,0.41
0.36,-0.94,0.4
0.45,-0.93,0.38
0.53,-0.91,0.36
0.56,-0.89,0.34
0.59,-0.86,0.3
0.54,-0.79,0.28
0.35,-0.7,0.32
0.27,-0.64,0.3
0.33,-0.59,0.3
0.35,-0.55,0.37
0.36,-0.5,0.35
0.36,-0.46,0.3
0.34,-0.44,0.25
0.34,-0.41,0.18
0.37,-0.4,0.12
0.4,-0.41,0.07
0.4,-0.4,0.02
0.39,-0.39,-0.01
0.38,-0.38,-0.03
0.36,-0.38,-0.05
0.34,-0.39,-0.04
0.34,-0.4,-0.01
0.34,-0.41,0.04
0.36,-0.44,0.15
0.38,-0.46,0.25
0.38,-0.5,0.36
0.35,-0.55,0.45
0.32,-0.61,0.53
0.29,-0.68,0.59
0.28,-0.75,0.61
0.28,-0.83,0.58
0.29,-0.92,0.56
0.31,-1.02,0.56
0.32,-1.13,0.62
0.33,-1.22,0.75
0.37,-1.3,0.86
0.41,-1.4,0.95
0.44,-1.49,1.01
0.43,-1.54,1.04
0.34,-1.58,1.06
0.3,-1.6,1.08
0.35,-1.61,1.09
0.38,-1.64,1.11
0.4,-1.66,1.11
0.39,-1.65,1.1
0.41,-1.63,1.1
0.44,-1.63,1.12
0.45,-1.63,1.13
0.43,-1.62,1.16
0.37,-1.72,1.23
0.28,-1.77,1.27
0.24,-1.78,1.26
0.24,-1.77,1.21
0.24,-1.78,1.19
0.23,-1.8,1.17
0.23,-1.81,1.16
0.25,-1.78,1.14
0.27,-1.71,1.09
0.27,-1.63,1.05
0.26,-1.58,1.02
0.25,-1.53,0.96
0.28,-1.48,0.89
0.3,-1.43,0.84
0.32,-1.41,0.78
0.32,-1.38,0.7
0.29,-1.34,0.62
0.3,-1.27,0.5
0.38,-1.13,0.38
0.46,-0.98,0.28
0.49,-0.82,0.28
0.47,-0.75,0.31
0.49,-0.7,0.29
0.52,-0.62,0.25
0.51,-0.55,0.2
0.48,-0.49,0.15
0.46,-0.31,0.05
0.4,-0.23,0.04
0.39,-0.16,0.05
0.38,-0.13,0.05
0.37,-0.13,0.04
0.35,-0.12,0.02
0.32,-0.09,0.01
0.29,-0.04,0.02
0.27,0,0.02
0.23,0.02,0.02
0.19,0.03,0.03
0.14,0.02,0.04
0.09,0.02,0.04
0.04,0.04,0.05
0.03,0.06,0.1
0.04,0.05,0.14
0.02,0.03,0.19
-0.01,0.02,0.22
-0.05,0.01,0.22
-0.1,0,0.22
-0.12,0.01,0.25
-0.12,0.01,0.29
-0.13,-0.01,0.32
-0.13,-0.02,0.34
-0.12,-0.03,0.34
-0.13,-0.06,0.34
-0.12,-0.11,0.36
-0.08,-0.15,0.38
-0.04,-0.16,0.39
-0.01,-0.19,0.4
0,-0.25,0.41
0.01,-0.33,0.41
0.04,-0.41,0.41
0.06,-0.5,0.44
0.1,-0.56,0.46
0.15,-0.58,0.48
0.17,-0.59,0.49
0.17,-0.61,0.47
0.18,-0.65,0.48
0.19,-0.72,0.54
0.23,-0.83,0.61
0.3,-0.91,0.62
0.35,-0.94,0.61
0.39,-0.97,0.62
0.41,-1.01,0.6
0.42,-1.06,0.57
0.41,-1.09,0.52
0.39,-1.13,0.48
0.42,-1.18,0.5
0.51,-1.24,0.61
0.65,-1.3,0.76
0.83,-1.3,0.81
0.96,-1.28,0.68
1.02,-1.33,0.61
0.94,-1.34,0.6
0.84,-1.34,0.64
0.77,-1.3,0.71
0.76,-1.26,0.8
0.77,-1.29,0.87
0.79,-1.35,0.9
0.8,-1.41,0.9
0.79,-1.42,0.89
0.78,-1.38,0.91
0.76,-1.33,0.95
0.75,-1.3,0.97
0.75,-1.29,0.96
0.75,-1.32,0.94
0.75,-1.39,0.91
0.74,-1.46,0.88
0.73,-1.51,0.85
0.71,-1.52,0.87
0.69,-1.49,0.88
0.69,-1.46,0.85
0.67,-1.43,0.81
0.64,-1.42,0.78
0.7,-1.45,0.7
0.65,-1.56,0.61
0.52,-1.62,0.59
0.64,-1.59,0.72
0.79,-1.43,0.89
0.31,-1.46,0.93
-0.14,-1.5,0.73
-0.2,-1.51,0.51
0.06,-1.42,0.36
0.1,-1.21,0.27
-0.04,-1.07,0.29
-0.06,-0.93,0.33
0.03,-0.8,0.4
0.18,-0.73,0.46
0.36,-0.67,0.45
0.48,-0.6,0.35
0.58,-0.55,0.24
0.58,-0.52,0.15
0.52,-0.51,0.07
0.51,-0.52,0.01
0.52,-0.52,-0.01
0.55,-0.52,-0.01
0.58,-0.53,-0.01
0.6,-0.56,-0.01
0.64,-0.59,0
0.68,-0.63,0
0.69,-0.64,0.01
0.68,-0.65,0.03
0.67,-0.65,0.04
0.67,-0.65,0.04
0.65,-0.66,0.04
0.62,-0.64,0.05
0.62,-0.64,0.06
0.6,-0.64,0.11
0.57,-0.62,0.15
0.51,-0.6,0.2
0.44,-0.57,0.22
0.42,-0.56,0.23
0.42,-0.55,0.26
0.44,-0.55,0.31
0.44,-0.57,0.36
0.44,-0.59,0.41
0.45,-0.62,0.46
0.46,-0.65,0.52
0.45,-0.69,0.6
0.45,-0.74,0.69
0.42,-0.79,0.75
0.38,-0.84,0.75
0.34,-0.88,0.74
0.3,-0.91,0.76
0.26,-0.96,0.79
0.24,-1.01,0.8
0.26,-1.06,0.84
0.25,-1.06,0.98
0.17,-1.08,1.11
0.17,-1.14,1.11
0.21,-1.21,1.01
0.05,-1.26,1.01
0.06,-1.32,1.06
0,-1.36,1.11
-0.08,-1.4,1.14
-0.08,-1.42,1.16
-0.11,-1.44,1.17
-0.14,-1.47,1.24
-0.15,-1.49,1.33
-0.13,-1.55,1.39
-0.1,-1.61,1.41
-0.11,-1.62,1.39
-0.12,-1.56,1.33
-0.11,-1.5,1.28
-0.09,-1.49,1.24
-0.06,-1.49,1.21
-0.03,-1.48,1.19
0.01,-1.45,1.18
0.04,-1.44,1.17
0.07,-1.42,1.12
0.11,-1.38,1.06
0.17,-1.33,1.01
0.21,-1.29,0.97
0.25,-1.25,0.92
0.27,-1.19,0.86
0.28,-1.12,0.8
0.28,-0.94,0.7
0.3,-0.84,0.67
0.31,-0.75,0.63
0.33,-0.67,0.57
0.33,-0.61,0.52
0.33,-0.58,0.48
0.33,-0.57,0.42
0.32,-0.54,0.35
0.31,-0.48,0.28
0.3,-0.4,0.24
0.28,-0.3,0.21
0.24,-0.2,0.2
0.23,-0.13,0.19
0.24,-0.09,0.17
0.22,-0.06,0.14
0.2,-0.02,0.09
0.2,0.02,0.03
0.21,0.06,0
0.18,0.09,-0.01
0.14,0.1,-0.03
0.12,0.15,-0.04
0.09,0.19,-0.04
0.07,0.23,-0.03
0.06,0.26,-0.01
0.04,0.27,-0.01
0,0.26,-0.02
-0.03,0.24,0
-0.08,0.24,0.03
-0.09,0.26,0.08
-0.07,0.28,0.14
-0.07,0.28,0.18
-0.1,0.26,0.22
-0.13,0.21,0.25
-0.13,0.18,0.29
-0.12,0.14,0.35
-0.12,0.11,0.4
-0.11,0.08,0.44
-0.1,0.06,0.48
-0.1,0.02,0.52
-0.1,-0.01,0.56
-0.1,-0.06,0.58
-0.1,-0.11,0.59
-0.1,-0.16,0.58
-0.08,-0.21,0.57
-0.05,-0.26,0.58
0.01,-0.28,0.62
0.09,-0.28,0.71
0.15,-0.32,0.79
0.17,-0.37,0.82
0.16,-0.41,0.8
0.15,-0.43,0.78
0.14,-0.45,0.76
0.13,-0.52,0.74
0.11,-0.73,0.72
0.11,-0.81,0.71
0.14,-0.83,0.73
0.21,-0.8,0.77
0.28,-0.74,0.78
0.28,-0.68,0.78
0.26,-0.7,0.77
0.3,-0.78,0.78
0.35,-0.82,0.77
0.37,-0.82,0.75
0.38,-0.92,0.7
0.34,-1.03,0.7
0.28,-1,0.74
0.25,-0.92,0.74
0.27,-0.86,0.74
0.29,-0.85,0.76
0.3,-0.88,0.82
0.29,-0.92,0.86
0.27,-0.99,0.85
0.24,-1.03,0.85
0.21,-1.04,0.87
0.2,-1.03,0.86
0.21,-1,0.85
0.22,-0.98,0.87
0.22,-0.95,0.89
0.23,-0.95,0.88
0.28,-0.98,0.84
0.29,-1.01,0.8
0.28,-1.03,0.78
0.28,-1.05,0.82
0.29,-1.05,0.87
0.28,-1.02,0.87
0.26,-0.98,0.84
0.27,-0.94,0.81
0.31,-0.93,0.78
0.36,-0.92,0.74
0.42,-0.95,0.7
0.46,-0.99,0.67
0.5,-1.03,0.66
0.53,-1.08,0.66
0.56,-1.09,0.67
0.59,-1.08,0.67
0.63,-1.1,0.65
0.67,-1.12,0.64
0.69,-1.12,0.62
0.69,-1.11,0.58
0.7,-1.11,0.53
0.71,-1.11,0.49
0.72,-1.12,0.46
0.73,-1.13,0.44
0.75,-1.14,0.43
0.78,-1.15,0.41
0.85,-1.18,0.4
0.93,-1.21,0.35
1.02,-1.22,0.32
0.95,-1.22,0.34
0.81,-1.21,0.41
0.64,-1.12,0.53
0.44,-1,0.6
0.42,-0.95,0.59
0.47,-0.92,0.57
0.49,-0.87,0.53
0.47,-0.83,0.49
0.49,-0.79,0.46
0.56,-0.75,0.45
0.63,-0.71,0.4
0.64,-0.69,0.38
0.6,-0.68,0.37
0.6,-0.68,0.35
0.62,-0.68,0.34
0.61,-0.68,0.34
0.63,-0.68,0.35
0.67,-0.65,0.37
0.69,-0.65,0.4
0.76,-0.66,0.45
0.82,-0.66,0.5
0.83,-0.66,0.53
0.9,-0.66,0.63
0.85,-0.67,0.7
0.84,-0.66,0.74
0.87,-0.62,0.75
0.9,-0.59,0.76
0.94,-0.58,0.74
0.91,-0.57,0.73
0.89,-0.54,0.75
0.91,-0.51,0.78
0.88,-0.49,0.82
0.86,-0.46,0.85
0.86,-0.42,0.87
0.86,-0.4,0.91
0.84,-0.37,0.95
0.81,-0.35,0.99
0.8,-0.32,1.04
0.88,-0.28,1.07
0.83,-0.24,1.08
0.67,-0.2,1.07
0.6,-0.15,1.1
0.53,-0.12,1.14
0.49,-0.1,1.18
0.44,-0.06,1.22
0.37,-0.03,1.26
0.33,0.02,1.24
0.34,0.12,1.07
0.54,0.14,0.84
0.76,0.11,0.6
0.91,0.17,0.55
1,0.18,0.55
0.98,0.11,0.59
0.88,0.07,0.66
0.78,0.08,0.68
0.74,0.09,0.72
0.73,0.13,0.75
0.69,0.14,0.75
0.66,0.13,0.73
0.68,0.12,0.68
0.74,0.11,0.63
0.77,0.12,0.58
0.72,0.14,0.55
0.63,0.18,0.55
0.55,0.19,0.53
0.49,0.2,0.52
0.38,0.24,0.49
0.29,0.27,0.45
0.27,0.28,0.42
0.3,0.27,0.39
0.36,0.27,0.39
0.41,0.3,0.41
0.44,0.34,0.43
0.5,0.37,0.44
0.46,0.42,0.46
0.34,0.41,0.48
0.33,0.35,0.5
0.48,0.31,0.55
0.59,0.3,0.61
0.59,0.31,0.64
0.49,0.34,0.67
0.38,0.36,0.69
0.28,0.36,0.73
0.25,0.37,0.77
