Acc_x,Acc_y,Acc_z
0.06,0.38,0.92
0.06,0.38,0.92
0.06,0.38,0.92
0.06,0.38,0.92
0.06,0.38,0.92
0.06,0.38,0.92
0.06,0.37,0.92
0.06,0.37,0.92
0.06,0.38,0.92
0.07,0.38,0.92
0.07,0.37,0.92
0.07,0.37,0.92
0.06,0.38,0.92
0.06,0.38,0.92
0.07,0.38,0.92
0.07,0.38,0.92
0.06,0.38,0.93
0.06,0.38,0.92
0.06,0.38,0.92
0.06,0.38,0.92
0.06,0.38,0.92
0.06,0.37,0.92
0.06,0.37,0.92
0.06,0.38,0.92
0.06,0.38,0.92
0.06,0.38,0.93
0.06,0.38,0.93
0.06,0.38,0.93
0.06,0.37,0.94
0.06,0.37,0.94
0.06,0.37,0.94
0.06,0.37,0.93
0.07,0.37,0.94
0.08,0.38,0.95
0.1,0.37,0.96
0.1,0.37,0.97
0.1,0.37,0.98
0.11,0.37,0.98
0.12,0.38,0.99
0.13,0.38,1.01
0.14,0.38,1.03
0.15,0.38,1.04
0.14,0.38,1.03
0.13,0.4,1.02
0.14,0.4,1.01
0.14,0.4,1
0.13,0.4,1
0.14,0.39,0.98
0.17,0.38,0.97
0.19,0.38,0.95
0.22,0.37,0.92
0.23,0.37,0.88
0.25,0.36,0.85
0.27,0.36,0.81
0.29,0.35,0.76
0.31,0.34,0.7
0.38,0.39,0.67
0.47,0.47,0.66
0.5,0.51,0.68
0.49,0.51,0.78
0.49,0.51,0.82
0.47,0.52,0.85
0.46,0.51,0.86
0.48,0.5,0.86
0.49,0.49,0.84
0.5,0.49,0.81
0.52,0.48,0.78
0.53,0.47,0.75
0.55,0.45,0.73
0.59,0.42,0.74
0.64,0.38,0.76
0.68,0.36,0.79
0.71,0.33,0.81
0.7,0.3,0.81
0.68,0.28,0.79
0.65,0.26,0.75
0.65,0.22,0.72
0.67,0.2,0.71
0.71,0.18,0.71
0.76,0.16,0.73
0.8,0.14,0.75
0.82,0.13,0.77
0.83,0.12,0.78
0.81,0.12,0.77
0.77,0.13,0.74
0.71,0.12,0.64
0.72,0.08,0.61
0.77,0.07,0.6
0.8,0.07,0.61
0.81,0.07,0.6
0.8,0.07,0.59
0.78,0.08,0.57
0.76,0.08,0.55
0.77,0.07,0.55
0.8,0.06,0.56
0.82,0.06,0.55
0.8,0.06,0.53
0.77,0.05,0.49
0.76,0.05,0.47
0.77,0.05,0.45
0.78,0.04,0.44
0.78,0.04,0.43
0.8,0.04,0.44
0.84,0.03,0.48
0.89,0.02,0.52
0.91,0,0.54
0.89,-0.01,0.54
0.87,-0.02,0.52
0.85,-0.02,0.48
0.85,-0.03,0.45
0.85,-0.03,0.44
0.85,-0.04,0.44
0.85,-0.07,0.46
0.88,-0.1,0.47
0.9,-0.13,0.48
0.92,-0.17,0.49
0.91,-0.19,0.48
0.88,-0.21,0.45
0.85,-0.22,0.43
0.82,-0.23,0.42
0.8,-0.24,0.43
0.79,-0.25,0.44
0.77,-0.27,0.45
0.75,-0.29,0.47
0.79,-0.33,0.51
0.83,-0.38,0.53
0.82,-0.43,0.51
0.78,-0.48,0.48
0.75,-0.51,0.42
0.71,-0.54,0.41
0.68,-0.59,0.43
0.65,-0.63,0.44
0.62,-0.68,0.46
0.6,-0.74,0.48
0.59,-0.81,0.49
0.61,-0.87,0.47
0.64,-0.93,0.44
0.64,-0.97,0.44
0.62,-1.04,0.41
0.56,-1.09,0.41
0.54,-1.1,0.42
0.54,-1.05,0.43
0.51,-1.07,0.41
0.46,-1.19,0.39
0.45,-1.2,0.38
0.45,-1.16,0.36
0.47,-1.11,0.32
0.51,-1.05,0.3
0.51,-1.01,0.31
0.48,-0.96,0.31
0.45,-0.9,0.29
0.44,-0.85,0.27
0.45,-0.81,0.27
0.46,-0.79,0.26
0.46,-0.78,0.24
0.45,-0.76,0.23
0.44,-0.74,0.22
0.45,-0.71,0.2
0.47,-0.68,0.19
0.48,-0.66,0.19
0.48,-0.64,0.18
0.48,-0.63,0.18
0.48,-0.63,0.17
0.48,-0.64,0.17
0.48,-0.66,0.17
0.51,-0.68,0.17
0.54,-0.71,0.17
0.56,-0.74,0.16
0.57,-0.77,0.15
0.58,-0.79,0.13
0.59,-0.82,0.12
0.6,-0.85,0.1
0.62,-0.87,0.09
0.62,-0.9,0.1
0.62,-0.92,0.11
0.63,-0.95,0.12
0.63,-0.96,0.13
0.61,-0.97,0.12
0.59,-0.97,0.11
0.58,-0.98,0.1
0.58,-0.97,0.09
0.57,-0.97,0.09
0.56,-0.96,0.08
0.55,-0.96,0.07
0.53,-0.95,0.06
0.52,-0.93,0.05
0.5,-0.91,0.04
0.49,-0.88,0.03
0.49,-0.86,0.03
0.49,-0.83,0.02
0.49,-0.81,0.01
0.48,-0.79,0
0.48,-0.78,-0.01
0.48,-0.78,-0.01
0.48,-0.78,-0.02
0.5,-0.79,-0.02
0.51,-0.8,-0.03
0.51,-0.82,-0.03
0.52,-0.85,-0.02
0.53,-0.88,-0.02
0.56,-0.91,-0.03
0.58,-0.94,-0.03
0.6,-0.97,-0.04
0.62,-1,-0.05
0.64,-1.03,-0.07
0.64,-1.04,-0.09
0.65,-1.06,-0.1
0.66,-1.09,-0.11
0.67,-1.1,-0.12
0.68,-1.11,-0.12
0.68,-1.11,-0.09
0.65,-1.09,-0.06
0.67,-1.06,-0.05
0.71,-1.04,-0.06
0.72,-1.03,-0.08
0.7,-1.01,-0.11
0.68,-0.98,-0.15
0.63,-0.92,-0.15
0.62,-0.89,-0.14
0.61,-0.86,-0.13
0.59,-0.85,-0.11
0.58,-0.87,-0.08
0.56,-0.9,-0.07
0.53,-0.91,-0.07
0.49,-0.9,-0.07
0.48,-0.86,-0.07
0.47,-0.83,-0.08
0.44,-0.8,-0.06
0.43,-0.78,-0.05
0.42,-0.77,-0.04
0.4,-0.78,-0.01
0.38,-0.77,0.02
0.35,-0.75,0.03
0.33,-0.73,0.06
0.35,-0.74,0.1
0.38,-0.79,0.14
0.4,-0.86,0.18
0.42,-0.94,0.21
0.41,-1,0.25
0.4,-1.04,0.28
0.37,-1.08,0.33
0.34,-1.13,0.38
0.31,-1.14,0.55
0.26,-1.1,0.59
0.17,-1.08,0.67
-0.04,-1.18,0.83
-0.11,-1.29,0.95
-0.14,-1.43,1.02
-0.16,-1.54,1.09
-0.16,-1.63,1.14
-0.22,-1.76,1.13
-0.3,-1.9,1.13
-0.32,-1.95,1.15
-0.28,-1.88,1.21
-0.23,-1.74,1.29
-0.19,-1.62,1.37
-0.14,-1.54,1.45
-0.1,-1.53,1.46
-0.08,-1.57,1.4
-0.07,-1.65,1.3
-0.06,-1.74,1.2
-0.05,-1.8,1.11
-0.02,-1.84,1.03
0.03,-1.86,0.99
0.08,-1.78,0.97
0.1,-1.75,0.9
0.11,-1.77,0.83
0.14,-1.75,0.77
0.19,-1.74,0.69
0.31,-1.8,0.63
0.38,-1.78,0.55
0.46,-1.67,0.44
0.52,-1.46,0.36
0.54,-1.24,0.32
0.54,-1.07,0.29
0.52,-0.93,0.26
0.48,-0.82,0.22
0.44,-0.79,0.19
0.42,-0.77,0.14
0.41,-0.74,0.08
0.44,-0.69,0.04
0.43,-0.54,0.03
0.38,-0.34,0
0.33,-0.2,-0.05
0.28,-0.11,-0.1
0.24,-0.09,-0.14
0.21,-0.06,-0.13
0.2,-0.03,-0.1
0.19,0,-0.08
0.2,0.07,-0.06
0.22,0.13,-0.04
0.24,0.19,-0.01
0.25,0.24,0.05
0.25,0.28,0.14
0.24,0.27,0.21
0.17,0.2,0.31
0.15,0.19,0.34
0.16,0.19,0.38
0.19,0.19,0.45
0.2,0.19,0.55
0.21,0.2,0.64
0.2,0.22,0.71
0.18,0.23,0.76
0.16,0.25,0.78
0.14,0.26,0.79
0.13,0.28,0.78
0.13,0.29,0.77
0.14,0.3,0.77
0.15,0.32,0.76
0.17,0.34,0.75
0.18,0.36,0.72
0.2,0.36,0.67
0.22,0.34,0.6
0.24,0.29,0.53
0.25,0.23,0.47
0.26,0.18,0.42
0.27,0.13,0.38
0.28,0.08,0.34
0.29,0.04,0.3
0.29,0.01,0.28
0.3,0,0.26
0.33,-0.05,0.26
0.37,-0.1,0.27
0.37,-0.15,0.28
0.35,-0.2,0.28
0.34,-0.26,0.27
0.34,-0.32,0.29
0.34,-0.35,0.33
0.33,-0.38,0.38
0.34,-0.43,0.41
0.35,-0.5,0.44
0.35,-0.55,0.47
0.36,-0.62,0.49
0.36,-0.65,0.53
0.34,-0.7,0.56
0.35,-0.75,0.57
0.37,-0.79,0.59
0.4,-0.89,0.58
0.42,-0.98,0.59
0.43,-1.03,0.64
0.44,-1.08,0.71
0.44,-1.08,0.75
0.46,-1.09,0.76
0.48,-1.2,0.74
0.49,-1.31,0.76
0.54,-1.4,0.77
0.56,-1.48,0.78
0.56,-1.64,0.74
0.54,-1.66,0.73
0.54,-1.66,0.7
0.56,-1.65,0.68
0.58,-1.68,0.66
0.61,-1.74,0.65
0.63,-1.78,0.62
0.65,-1.83,0.63
0.64,-1.85,0.66
0.6,-1.79,0.68
0.59,-1.69,0.66
0.6,-1.61,0.61
0.58,-1.54,0.57
0.56,-1.49,0.52
0.53,-1.45,0.46
0.5,-1.42,0.42
0.47,-1.42,0.39
0.43,-1.41,0.37
0.39,-1.38,0.37
0.37,-1.38,0.35
0.37,-1.4,0.31
0.36,-1.4,0.29
0.29,-1.39,0.28
0.24,-1.35,0.26
0.27,-1.29,0.25
0.3,-1.2,0.25
0.27,-1.13,0.23
0.23,-1.03,0.22
0.24,-0.97,0.23
0.22,-0.94,0.26
0.16,-0.92,0.28
0.08,-0.9,0.29
-0.01,-0.86,0.31
-0.05,-0.82,0.34
-0.03,-0.81,0.37
0.01,-0.83,0.4
0.04,-0.84,0.44
0.09,-0.87,0.5
0.16,-0.9,0.54
0.23,-0.93,0.59
0.26,-0.98,0.66
0.26,-1.04,0.72
0.3,-1.07,0.78
0.31,-1.1,0.83
0.32,-1.13,0.84
0.32,-1.17,0.86
0.28,-1.27,0.91
0.26,-1.36,0.93
0.29,-1.43,0.98
0.3,-1.48,1.05
0.28,-1.51,1.11
0.29,-1.5,1.15
0.31,-1.49,1.15
0.23,-1.61,1.17
0.22,-1.69,1.2
0.24,-1.72,1.2
0.29,-1.77,1.18
0.3,-1.83,1.13
0.29,-1.86,1.09
0.34,-1.84,1.11
0.41,-1.8,1.12
0.48,-1.75,1.12
0.54,-1.69,1.11
0.59,-1.64,1.1
0.61,-1.59,1.05
0.6,-1.58,0.96
0.54,-1.6,0.89
0.47,-1.6,0.85
0.45,-1.55,0.83
0.45,-1.49,0.72
0.47,-1.39,0.54
0.51,-1.24,0.45
0.61,-1.1,0.4
0.64,-1.04,0.34
0.6,-0.96,0.27
0.56,-0.84,0.2
0.56,-0.72,0.16
0.53,-0.67,0.13
0.47,-0.59,0.05
0.42,-0.32,0.05
0.36,-0.21,0.06
0.36,-0.14,0.04
0.36,-0.12,0.01
0.36,-0.12,0
0.37,-0.09,-0.02
0.34,-0.03,0
0.27,0,0.05
0.19,0.01,0.09
0.15,0.02,0.08
0.16,0.02,0.05
0.2,0.08,0.03
0.24,0.1,0.06
0.23,0.1,0.11
0.22,0.14,0.15
0.24,0.18,0.21
0.27,0.19,0.3
0.28,0.17,0.4
0.28,0.15,0.49
0.28,0.16,0.57
0.26,0.2,0.6
0.24,0.21,0.63
0.24,0.2,0.7
0.26,0.17,0.78
0.27,0.17,0.87
0.28,0.18,1.01
0.26,0.19,1.03
0.25,0.18,1.06
0.24,0.16,1.11
0.24,0.15,1.14
0.24,0.15,1.16
0.24,0.16,1.16
0.23,0.15,1.15
0.23,0.14,1.12
0.23,0.13,1.07
0.23,0.12,1.02
0.22,0.12,0.96
0.21,0.12,0.92
0.21,0.13,0.89
0.2,0.14,0.85
0.2,0.15,0.8
0.2,0.15,0.74
0.21,0.14,0.66
0.21,0.13,0.58
0.2,0.12,0.51
0.18,0.12,0.46
0.17,0.11,0.43
0.17,0.11,0.43
0.18,0.1,0.44
0.19,0.07,0.43
0.17,0.04,0.41
0.15,-0.01,0.39
0.09,-0.08,0.39
0.08,-0.09,0.4
0.08,-0.09,0.4
0.07,-0.1,0.4
0.08,-0.13,0.39
0.1,-0.18,0.39
0.11,-0.26,0.4
0.11,-0.34,0.43
0.11,-0.36,0.46
0.11,-0.38,0.47
0.11,-0.39,0.48
0.13,-0.4,0.48
0.15,-0.44,0.49
0.13,-0.68,0.49
0.15,-0.74,0.54
0.17,-0.69,0.62
0.19,-0.77,0.66
0.23,-0.82,0.7
0.22,-0.85,0.71
0.19,-0.82,0.7
0.17,-0.84,0.68
0.17,-0.89,0.72
0.22,-0.93,0.83
0.28,-1,0.87
0.33,-1.09,0.85
0.33,-1.15,0.84
0.29,-1.28,0.78
0.24,-1.31,0.82
0.24,-1.29,0.88
0.28,-1.26,0.91
0.35,-1.27,0.91
0.4,-1.33,0.91
0.4,-1.33,0.91
0.38,-1.32,0.89
0.34,-1.31,0.86
0.3,-1.29,0.84
0.28,-1.26,0.82
0.28,-1.23,0.79
0.29,-1.22,0.76
0.3,-1.25,0.73
0.31,-1.27,0.7
0.34,-1.27,0.67
0.37,-1.3,0.62
0.39,-1.31,0.59
0.39,-1.34,0.56
0.4,-1.35,0.55
0.42,-1.33,0.52
0.43,-1.29,0.5
0.43,-1.27,0.47
0.44,-1.25,0.44
0.44,-1.21,0.41
0.43,-1.17,0.36
0.4,-1.14,0.3
0.37,-1.12,0.29
0.36,-1.11,0.28
0.35,-1.11,0.24
0.35,-1.09,0.22
0.34,-1.06,0.17
0.36,-1.04,0.13
0.38,-1.09,0.1
0.34,-1.13,0.09
0.32,-1.08,0.11
0.35,-1.03,0.08
0.39,-1.04,0.06
0.38,-1.03,0.04
0.35,-1,0.03
0.32,-0.97,0.03
0.32,-0.94,0.03
0.33,-0.91,0.03
0.31,-0.89,0.03
0.31,-0.86,0.03
0.3,-0.84,0.03
0.3,-0.84,0.04
0.31,-0.84,0.05
0.31,-0.85,0.05
0.3,-0.85,0.05
0.29,-0.85,0.06
0.3,-0.86,0.08
0.3,-0.89,0.13
0.29,-0.9,0.17
0.29,-0.9,0.21
0.3,-0.91,0.23
0.31,-0.94,0.26
0.32,-0.98,0.3
0.32,-1.05,0.32
0.31,-1.11,0.32
0.3,-1.14,0.32
0.3,-1.12,0.37
0.31,-1.12,0.45
0.34,-1.16,0.55
0.35,-1.18,0.65
0.34,-1.21,0.7
0.35,-1.23,0.74
0.34,-1.26,0.79
0.32,-1.33,0.81
0.28,-1.41,0.82
0.26,-1.42,0.85
0.28,-1.39,0.91
0.31,-1.31,1.02
0.31,-1.23,1.1
0.29,-1.17,1.15
0.28,-1.15,1.17
0.27,-1.13,1.18
0.23,-1.15,1.18
0.23,-1.21,1.18
0.22,-1.37,1.2
0.23,-1.46,1.25
0.25,-1.54,1.28
0.22,-1.62,1.27
0.19,-1.67,1.24
0.16,-1.7,1.18
0.13,-1.72,1.13
0.12,-1.71,1.1
0.14,-1.66,1.06
0.19,-1.62,1.04
0.23,-1.61,1.01
0.26,-1.56,0.95
0.28,-1.46,0.86
0.29,-1.35,0.76
0.32,-1.26,0.66
0.34,-1.18,0.58
0.33,-1.13,0.54
0.32,-1.06,0.49
0.32,-0.97,0.43
0.33,-0.89,0.38
0.33,-0.77,0.33
0.36,-0.67,0.29
0.38,-0.61,0.21
0.37,-0.5,0.12
0.37,-0.37,0.06
0.36,-0.31,0.02
0.34,-0.26,-0.01
0.32,-0.23,-0.04
0.3,-0.16,-0.05
0.27,-0.1,-0.01
0.24,-0.03,0.05
0.2,0.01,0.09
0.18,0.04,0.12
0.18,0.07,0.15
0.17,0.06,0.17
0.16,0.07,0.21
0.12,0.09,0.25
0.06,0.1,0.3
0,0.11,0.37
-0.05,0.12,0.44
-0.08,0.14,0.51
-0.11,0.14,0.58
-0.14,0.13,0.62
-0.16,0.11,0.62
-0.16,0.09,0.64
-0.16,0.07,0.67
-0.16,0.07,0.73
-0.16,0.09,0.8
-0.17,0.09,0.88
-0.17,0.07,0.96
-0.18,0.05,1.02
-0.2,0.03,1.1
-0.24,0.01,1.12
-0.27,-0.01,1.13
-0.31,-0.01,1.11
-0.34,0,1.08
-0.34,0.01,1.05
-0.32,0.01,1.04
-0.28,0,1.04
-0.24,0,1.03
-0.2,-0.01,1.02
-0.17,-0.01,1.01
-0.15,0,1
-0.14,0.01,0.98
-0.13,0.02,0.97
-0.14,0.02,0.95
-0.16,0.02,0.94
-0.17,0.01,0.92
-0.16,0.02,0.91
-0.15,0.03,0.89
-0.15,0.04,0.87
-0.15,0.05,0.84
-0.14,0.05,0.8
-0.13,0.03,0.76
-0.13,0.01,0.7
-0.13,-0.01,0.64
-0.11,-0.03,0.58
-0.09,-0.06,0.47
-0.07,-0.09,0.41
-0.07,-0.11,0.34
-0.04,-0.13,0.3
-0.03,-0.16,0.27
-0.03,-0.19,0.26
-0.02,-0.2,0.26
0,-0.21,0.26
0.02,-0.25,0.27
0.02,-0.27,0.27
0.02,-0.3,0.25
0.04,-0.34,0.23
0.07,-0.41,0.25
0.08,-0.48,0.3
0.1,-0.54,0.35
0.12,-0.56,0.4
0.12,-0.58,0.43
0.11,-0.6,0.43
0.13,-0.65,0.41
0.15,-0.73,0.38
0.18,-0.81,0.4
0.22,-0.87,0.47
0.27,-0.91,0.54
0.3,-0.97,0.59
0.29,-1.01,0.61
0.29,-1.03,0.61
0.3,-1.06,0.59
0.31,-1.15,0.65
0.38,-1.17,0.68
0.4,-1.23,0.73
0.4,-1.33,0.78
0.41,-1.39,0.81
0.42,-1.39,0.81
0.43,-1.36,0.81
0.45,-1.32,0.81
0.47,-1.34,0.79
0.47,-1.39,0.81
0.46,-1.42,0.88
0.47,-1.43,0.95
0.49,-1.45,0.99
0.48,-1.48,1.02
0.46,-1.5,1.01
0.42,-1.5,0.96
0.37,-1.46,0.92
0.32,-1.43,0.91
0.29,-1.42,0.94
0.27,-1.41,0.96
0.27,-1.4,0.96
0.27,-1.37,0.93
0.28,-1.34,0.89
0.28,-1.32,0.85
0.28,-1.31,0.8
0.28,-1.28,0.74
0.26,-1.21,0.67
0.23,-1.19,0.64
0.23,-1.17,0.58
0.22,-1.15,0.55
0.21,-1.12,0.62
0.28,-1.09,0.56
0.29,-1.07,0.47
0.34,-1,0.63
0.6,-1.03,0.68
0.42,-1.2,0.65
-0.12,-1.18,0.62
-0.28,-1.02,0.52
-0.05,-1.01,0.4
0.12,-1.04,0.27
0.14,-1.01,0.25
0.14,-0.98,0.28
0.16,-0.96,0.31
0.3,-0.94,0.31
0.46,-0.92,0.3
0.56,-0.89,0.26
0.63,-0.89,0.22
0.68,-0.88,0.17
0.71,-0.84,0.12
0.71,-0.81,0.09
0.71,-0.8,0.09
0.69,-0.8,0.09
0.68,-0.75,0.12
0.68,-0.74,0.13
0.68,-0.72,0.13
0.67,-0.71,0.12
0.66,-0.69,0.11
0.65,-0.68,0.11
0.64,-0.67,0.1
0.63,-0.66,0.1
0.63,-0.65,0.11
0.63,-0.65,0.11
0.62,-0.66,0.1
0.62,-0.67,0.1
0.61,-0.68,0.1
0.58,-0.69,0.12
0.53,-0.7,0.13
0.47,-0.71,0.14
0.43,-0.7,0.14
0.42,-0.72,0.16
0.41,-0.76,0.19
0.4,-0.81,0.23
0.4,-0.87,0.27
0.38,-0.92,0.32
0.34,-0.98,0.36
0.31,-1.04,0.41
0.28,-1.07,0.45
0.22,-1.11,0.49
0.17,-1.16,0.66
0.09,-1.26,0.75
0.1,-1.39,0.83
0.07,-1.46,0.88
-0.02,-1.46,0.9
-0.21,-1.44,0.87
-0.39,-1.44,0.84
-0.51,-1.45,0.83
-0.56,-1.51,0.83
-0.51,-1.52,0.87
-0.46,-1.53,0.9
-0.39,-1.6,0.92
-0.29,-1.65,0.96
-0.18,-1.68,1.01
-0.1,-1.71,1.02
-0.06,-1.74,1
-0.07,-1.77,0.99
-0.1,-1.78,0.95
-0.1,-1.78,0.9
-0.06,-1.76,0.87
-0.02,-1.79,0.85
-0.03,-1.84,0.84
-0.02,-1.85,0.8
0.04,-1.83,0.78
0.1,-1.8,0.8
0.15,-1.79,0.84
0.18,-1.79,0.8
0.21,-1.72,0.71
0.21,-1.62,0.6
0.24,-1.52,0.52
0.3,-1.4,0.47
0.37,-1.29,0.42
0.43,-1.19,0.39
0.48,-1.13,0.36
0.5,-1.03,0.32
0.53,-0.91,0.24
0.55,-0.79,0.14
0.55,-0.63,0.07
0.56,-0.48,0.04
0.62,-0.4,0.02
0.72,-0.34,0.01
0.73,-0.33,0.02
0.69,-0.35,0.04
0.64,-0.3,0.05
0.55,-0.19,0.01
0.46,-0.09,-0.02
0.38,-0.06,-0.02
0.34,-0.03,0.03
0.35,-0.03,0.09
0.34,-0.08,0.11
0.28,-0.09,0.1
0.22,-0.05,0.09
0.17,-0.01,0.23
0.07,0.08,0.34
0.08,0.09,0.45
0.11,0.05,0.55
0.11,-0.04,0.63
0.06,-0.11,0.68
-0.01,-0.12,0.73
-0.06,-0.07,0.8
-0.1,-0.03,0.87
-0.13,-0.01,0.93
-0.15,-0.01,0.98
-0.14,-0.03,1
-0.14,-0.05,1.04
-0.14,-0.07,1.07
-0.16,-0.08,1.09
-0.18,-0.06,1.11
-0.17,-0.04,1.11
-0.17,-0.03,1.12
-0.16,-0.04,1.12
-0.15,-0.06,1.1
-0.15,-0.05,1.09
-0.14,-0.05,1.09
-0.12,-0.05,1.09
-0.09,-0.05,1.08
-0.07,-0.05,1.07
-0.06,-0.06,1.05
-0.06,-0.05,1.02
-0.05,-0.04,1.01
-0.01,-0.04,1.01
0.02,-0.04,0.99
0.03,-0.04,0.98
0.04,-0.05,0.98
0.04,-0.06,0.97
0.04,-0.05,0.95
0.04,-0.06,0.93
0.03,-0.06,0.93
0.05,-0.06,0.93
0.07,-0.06,0.93
0.06,-0.06,0.93
0.05,-0.06,0.93
0.06,-0.06,0.92
0.04,-0.06,0.92
0.03,-0.07,0.9
0.04,-0.08,0.9
0.04,-0.08,0.89
0.05,-0.08,0.88
0.04,-0.07,0.85
0.04,-0.07,0.8
0.05,-0.06,0.74
0.05,-0.06,0.7
0.04,-0.07,0.66
0.05,-0.08,0.6
0.07,-0.1,0.53
0.12,-0.18,0.35
0.12,-0.25,0.31
0.13,-0.35,0.33
0.14,-0.39,0.37
0.16,-0.36,0.39
0.17,-0.34,0.36
0.18,-0.34,0.33
0.15,-0.34,0.32
0.12,-0.32,0.33
0.14,-0.3,0.36
0.15,-0.31,0.39
0.12,-0.36,0.41
0.09,-0.46,0.43
0.06,-0.55,0.45
0.04,-0.52,0.49
0.05,-0.52,0.5
0.09,-0.59,0.47
0.11,-0.62,0.45
0.16,-0.65,0.44
0.21,-0.71,0.51
0.28,-0.77,0.57
0.37,-0.79,0.58
0.46,-0.81,0.57
0.5,-0.86,0.53
0.59,-1.1,0.36
0.65,-1.12,0.65
0.18,-1.24,0.89
0.77,-1.28,0.75
0.91,-1.21,0.62
0.88,-1.27,0.55
0.87,-1.33,0.55
0.86,-1.41,0.57
0.86,-1.45,0.62
0.8,-1.42,0.7
0.7,-1.38,0.82
0.66,-1.31,0.94
0.64,-1.22,1.01
0.61,-1.14,1.01
0.6,-1.11,0.95
0.63,-1.1,0.9
0.66,-1.09,0.87
0.69,-1.07,0.88
0.73,-1.05,0.92
0.75,-1.06,0.91
0.76,-1.08,0.9
0.76,-1.12,0.88
0.76,-1.15,0.86
0.74,-1.17,0.82
0.71,-1.18,0.79
0.66,-1.18,0.77
0.63,-1.17,0.73
0.61,-1.17,0.68
0.59,-1.18,0.62
0.59,-1.16,0.61
0.64,-1.17,0.59
0.69,-1.14,0.58
0.69,-1.11,0.61
0.67,-1.18,0.68
0.56,-1.24,0.71
0.23,-1.16,0.67
0.01,-1.07,0.59
0.02,-1.09,0.49
0.02,-1.04,0.43
0.06,-0.99,0.36
0.11,-0.93,0.32
0.09,-0.86,0.34
0.15,-0.79,0.35
0.25,-0.74,0.33
0.33,-0.72,0.3
0.4,-0.69,0.28
0.44,-0.65,0.24
0.41,-0.62,0.17
0.46,-0.62,0.1
0.56,-0.6,0.08
0.55,-0.6,0.06
0.52,-0.62,0.06
0.52,-0.62,0.06
0.52,-0.64,0.08
0.51,-0.66,0.1
0.45,-0.67,0.12
0.43,-0.68,0.14
0.43,-0.71,0.15
0.43,-0.74,0.17
0.42,-0.77,0.2
0.4,-0.8,0.25
0.41,-0.83,0.27
0.42,-0.86,0.3
0.43,-0.9,0.33
0.44,-0.96,0.38
0.45,-1.04,0.44
0.44,-1.11,0.52
0.43,-1.15,0.6
0.43,-1.19,0.66
0.4,-1.25,0.69
0.32,-1.27,0.7
0.22,-1.23,0.76
0.16,-1.21,0.82
0.13,-1.26,0.89
0.14,-1.31,0.96
0.2,-1.36,1.02
0.23,-1.38,1.04
0.25,-1.39,1.04
0.27,-1.38,1.06
0.23,-1.4,1.1
0.2,-1.55,1.17
0.24,-1.62,1.19
0.24,-1.66,1.22
0.2,-1.7,1.25
0.17,-1.72,1.24
0.19,-1.74,1.21
0.2,-1.73,1.18
0.19,-1.7,1.16
0.21,-1.65,1.13
0.23,-1.62,1.1
0.24,-1.63,1.06
0.27,-1.65,1
0.29,-1.62,0.95
0.33,-1.54,0.92
0.38,-1.47,0.9
0.4,-1.41,0.89
0.39,-1.37,0.86
0.35,-1.34,0.82
0.3,-1.3,0.77
0.3,-1.22,0.67
0.32,-1.11,0.59
0.35,-1.01,0.53
0.39,-0.9,0.48
0.41,-0.82,0.43
0.42,-0.76,0.39
0.44,-0.71,0.35
0.44,-0.66,0.25
0.43,-0.47,0.19
0.42,-0.38,0.13
0.42,-0.32,0.1
0.39,-0.27,0.11
0.35,-0.23,0.14
0.31,-0.19,0.15
0.26,-0.12,0.16
0.2,-0.09,0.17
0.16,-0.05,0.13
0.16,0.01,0.08
0.15,0.03,0.08
0.1,0.05,0.13
0.08,0.04,0.18
0.06,0.04,0.23
0.03,0.05,0.29
-0.01,0.05,0.32
-0.06,0.07,0.37
-0.08,0.08,0.42
-0.08,0.08,0.49
-0.07,0.07,0.57
-0.07,0.07,0.63
-0.09,0.06,0.68
-0.11,0.04,0.71
-0.14,0.03,0.74
-0.18,0.04,0.79
-0.22,0.08,0.87
-0.27,0.1,0.9
-0.26,0.09,0.92
-0.26,0.08,0.94
-0.24,0.08,0.96
-0.19,0.08,0.95
-0.16,0.06,0.94
-0.16,0.03,0.93
-0.18,0.03,0.93
-0.18,0.04,0.94
-0.17,0.05,0.94
-0.17,0.06,0.93
-0.17,0.05,0.93
-0.18,0.04,0.92
-0.19,0.02,0.91
-0.19,0.01,0.9
-0.19,0.01,0.89
-0.18,0.01,0.88
-0.17,0.01,0.86
-0.15,0.02,0.82
-0.13,0.03,0.79
-0.12,0.02,0.75
-0.11,0,0.73
-0.09,-0.02,0.71
-0.07,-0.03,0.68
-0.06,-0.04,0.64
-0.05,-0.06,0.59
-0.03,-0.08,0.49
-0.01,-0.06,0.46
0.02,-0.05,0.46
0.06,-0.07,0.45
0.09,-0.12,0.43
0.12,-0.17,0.4
0.12,-0.24,0.39
0.13,-0.32,0.4
0.15,-0.34,0.39
0.17,-0.3,0.37
0.18,-0.27,0.38
0.19,-0.27,0.37
0.19,-0.3,0.36
0.2,-0.39,0.34
0.19,-0.53,0.36
0.19,-0.66,0.45
0.24,-0.73,0.53
0.28,-0.75,0.56
0.28,-0.74,0.55
0.28,-0.73,0.52
0.31,-0.75,0.49
0.33,-0.82,0.5
0.37,-0.89,0.57
0.42,-0.93,0.64
0.48,-1.01,0.69
0.53,-1.1,0.72
0.54,-1.2,0.67
0.54,-1.23,0.63
0.52,-1.27,0.65
0.53,-1.29,0.78
0.59,-1.26,0.91
0.66,-1.23,0.94
0.67,-1.24,0.9
0.66,-1.28,0.83
0.66,-1.31,0.77
0.68,-1.34,0.75
0.71,-1.34,0.82
0.77,-1.34,0.95
0.81,-1.32,1.03
0.82,-1.31,1.04
0.8,-1.32,1.01
0.75,-1.34,0.98
0.7,-1.37,0.96
0.65,-1.37,0.96
0.6,-1.36,0.97
0.57,-1.33,0.98
0.56,-1.31,0.97
0.57,-1.29,0.94
0.58,-1.29,0.9
0.59,-1.3,0.86
0.59,-1.3,0.81
0.58,-1.29,0.76
0.57,-1.33,0.64
0.5,-1.31,0.59
0.45,-1.28,0.56
0.5,-1.28,0.51
0.57,-1.23,0.44
0.52,-1.13,0.45
0.41,-1.08,0.49
0.42,-1.13,0.47
0.41,-1.13,0.41
0.32,-1.04,0.33
0.22,-0.93,0.29
0.2,-0.85,0.25
0.25,-0.82,0.21
0.25,-0.77,0.23
0.22,-0.71,0.25
0.26,-0.67,0.24
0.32,-0.63,0.23
0.32,-0.59,0.24
0.32,-0.56,0.22
0.33,-0.55,0.2
0.33,-0.55,0.18
0.31,-0.54,0.16
0.29,-0.53,0.16
0.29,-0.53,0.17
0.3,-0.54,0.18
0.33,-0.57,0.18
0.36,-0.62,0.2
0.41,-0.65,0.23
0.44,-0.7,0.27
0.48,-0.75,0.33
0.51,-0.79,0.33
0.51,-0.81,0.34
0.47,-0.83,0.35
0.4,-0.86,0.35
0.37,-0.92,0.38
0.39,-1,0.4
0.41,-1.08,0.44
0.48,-1.14,0.47
0.57,-1.18,0.5
0.58,-1.19,0.57
0.52,-1.19,0.64
0.45,-1.2,0.69
0.35,-1.26,0.74
0.29,-1.33,0.81
0.27,-1.41,0.83
0.27,-1.47,0.84
0.37,-1.49,0.91
0.45,-1.49,0.98
0.45,-1.5,1.04
0.46,-1.51,1.06
0.43,-1.5,1.07
0.37,-1.52,1.05
0.32,-1.64,1.13
0.27,-1.67,1.21
0.32,-1.71,1.28
0.33,-1.72,1.35
0.32,-1.75,1.37
0.34,-1.76,1.31
0.35,-1.74,1.23
0.33,-1.73,1.19
0.34,-1.75,1.15
0.36,-1.76,1.11
0.37,-1.74,1.09
0.39,-1.69,1.07
0.43,-1.63,1.02
0.46,-1.58,0.93
0.49,-1.55,0.84
0.51,-1.52,0.76
0.49,-1.5,0.69
0.46,-1.45,0.63
0.46,-1.35,0.57
0.47,-1.23,0.51
0.47,-1.12,0.46
0.48,-1.01,0.42
0.47,-0.89,0.4
0.45,-0.81,0.38
0.44,-0.78,0.33
0.42,-0.72,0.28
0.41,-0.64,0.17
0.39,-0.49,0.13
0.38,-0.38,0.11
0.37,-0.33,0.09
0.35,-0.27,0.1
0.32,-0.21,0.11
0.3,-0.15,0.09
0.28,-0.09,0.06
0.26,-0.07,0.07
0.23,-0.02,0.09
0.2,0.06,0.1
0.2,0.12,0.13
0.2,0.14,0.18
0.18,0.11,0.21
0.13,0.1,0.24
0.07,0.09,0.28
0.03,0.12,0.3
0.01,0.17,0.32
0.01,0.17,0.35
0.01,0.17,0.4
-0.01,0.17,0.44
-0.02,0.17,0.49
-0.05,0.17,0.55
-0.07,0.16,0.61
-0.1,0.15,0.65
-0.13,0.16,0.69
-0.15,0.16,0.79
-0.18,0.18,0.84
-0.19,0.18,0.87
-0.2,0.18,0.89
-0.21,0.17,0.91
-0.22,0.15,0.93
-0.23,0.14,0.94
-0.23,0.15,0.96
-0.23,0.16,0.99
-0.24,0.16,1.02
-0.25,0.16,1.03
-0.25,0.16,1.02
-0.25,0.16,1.01
-0.25,0.15,0.99
-0.24,0.14,0.96
-0.24,0.15,0.95
-0.23,0.16,0.94
-0.2,0.15,0.93
-0.18,0.14,0.92
-0.17,0.14,0.91
-0.16,0.14,0.91
-0.15,0.13,0.91
-0.14,0.12,0.9
-0.14,0.12,0.89
-0.15,0.12,0.86
-0.16,0.13,0.85
-0.16,0.14,0.84
-0.14,0.15,0.84
-0.12,0.14,0.84
-0.12,0.13,0.83
-0.11,0.12,0.81
-0.1,0.11,0.78
-0.09,0.1,0.76
-0.08,0.09,0.73
-0.07,0.06,0.7
-0.06,0.02,0.66
-0.05,0.01,0.62
-0.03,0.01,0.57
-0.02,-0.01,0.5
0,-0.02,0.45
0.03,-0.05,0.4
0.06,-0.12,0.38
0.08,-0.19,0.39
0.1,-0.22,0.43
0.13,-0.22,0.45
0.16,-0.22,0.45
0.16,-0.24,0.43
0.16,-0.28,0.4
0.19,-0.34,0.38
0.21,-0.41,0.38
0.21,-0.46,0.39
0.22,-0.5,0.4
0.24,-0.55,0.37
0.21,-0.54,0.32
0.22,-0.59,0.31
0.24,-0.64,0.33
0.27,-0.72,0.36
0.31,-0.81,0.4
0.33,-0.86,0.45
0.32,-0.88,0.45
0.31,-0.89,0.42
0.34,-0.97,0.4
0.37,-1.08,0.4
0.38,-1.15,0.44
0.42,-1.2,0.5
0.49,-1.18,0.55
0.57,-1.16,0.56
0.64,-1.19,0.55
0.68,-1.27,0.53
0.7,-1.39,0.51
0.71,-1.54,0.54
0.72,-1.68,0.62
0.75,-1.72,0.69
0.79,-1.71,0.72
0.82,-1.73,0.74
0.81,-1.75,0.77
0.77,-1.76,0.83
0.76,-1.78,0.9
0.75,-1.77,0.95
0.73,-1.72,0.97
0.69,-1.71,0.97
0.68,-1.71,0.96
0.66,-1.71,0.95
0.63,-1.69,0.94
0.6,-1.68,0.92
0.57,-1.65,0.89
0.56,-1.61,0.83
0.53,-1.63,0.75
0.45,-1.64,0.75
0.45,-1.58,0.74
0.53,-1.61,0.67
0.59,-1.52,0.64
0.54,-1.39,0.68
0.42,-1.47,0.63
0.14,-1.41,0.54
-0.11,-1.25,0.45
0.01,-1.23,0.34
0.21,-1.22,0.25
0.25,-1.12,0.22
0.25,-1.04,0.23
0.31,-0.99,0.25
0.3,-0.92,0.25
0.31,-0.85,0.26
0.37,-0.78,0.25
0.42,-0.74,0.2
0.42,-0.63,0.12
0.36,-0.57,0.09
0.36,-0.54,0.07
0.35,-0.53,0.06
0.36,-0.51,0.05
0.37,-0.48,0.05
0.38,-0.46,0.03
0.37,-0.45,0.02
0.37,-0.44,0.02
0.38,-0.44,0.02
0.39,-0.45,0.01
0.4,-0.46,0.01
0.42,-0.47,0.01
0.43,-0.48,0
0.44,-0.51,-0.01
0.44,-0.55,0
0.44,-0.59,0.02
0.44,-0.63,0.04
0.45,-0.67,0.06
0.46,-0.73,0.08
0.46,-0.8,0.1
0.47,-0.87,0.13
0.46,-0.95,0.18
0.44,-0.97,0.23
0.42,-1.03,0.26
0.39,-1.13,0.29
0.35,-1.18,0.42
0.3,-1.28,0.52
0.32,-1.36,0.6
0.36,-1.47,0.69
0.35,-1.56,0.78
0.34,-1.6,0.83
0.37,-1.62,0.85
0.39,-1.65,0.89
0.37,-1.67,0.95
0.35,-1.7,0.99
0.33,-1.69,1.08
0.27,-1.69,1.19
0.2,-1.74,1.23
0.15,-1.8,1.23
0.14,-1.84,1.23
0.14,-1.92,1.2
0.1,-1.96,1.18
0.04,-1.98,1.17
-0.02,-2.01,1.15
-0.08,-2.04,1.13
-0.11,-2.06,1.09
-0.08,-2.05,1.05
-0.02,-2.02,1
0.06,-2,0.96
0.16,-1.99,0.91
0.25,-1.95,0.88
0.29,-1.88,0.79
0.38,-1.73,0.69
0.42,-1.65,0.61
0.45,-1.55,0.54
0.47,-1.47,0.48
0.48,-1.37,0.4
0.49,-1.26,0.33
0.49,-1.14,0.27
0.46,-1.03,0.2
0.47,-0.96,0.12
0.49,-0.9,0.06
0.56,-0.83,0
0.6,-0.77,-0.07
0.6,-0.7,-0.1
0.55,-0.6,-0.09
0.49,-0.48,-0.1
0.46,-0.37,-0.13
0.47,-0.28,-0.14
0.45,-0.23,-0.08
0.43,-0.19,0.01
0.41,-0.18,0.1
0.31,-0.15,0.17
0.22,-0.09,0.22
0.17,-0.04,0.25
0.15,0.01,0.27
0.14,0.04,0.29
0.14,0.06,0.36
0.05,0.08,0.4
0,0.1,0.44
-0.01,0.15,0.49
0.03,0.19,0.55
0.09,0.18,0.61
0.13,0.15,0.66
0.14,0.1,0.69
0.13,0.08,0.73
0.14,0.09,0.78
0.18,0.1,0.83
0.23,0.11,0.87
0.26,0.12,0.89
0.28,0.11,0.9
0.28,0.12,0.89
0.27,0.13,0.87
0.27,0.14,0.86
0.27,0.15,0.9
0.28,0.15,0.93
0.27,0.14,0.95
0.26,0.11,0.96
0.24,0.09,0.95
0.22,0.09,0.94
0.2,0.1,0.9
0.19,0.12,0.87
0.18,0.12,0.84
0.18,0.12,0.82
0.16,0.12,0.8
0.15,0.12,0.77
0.12,0.12,0.73
0.1,0.13,0.69
0.09,0.12,0.65
0.08,0.11,0.61
0.06,0.1,0.57
0.06,0.09,0.52
0.05,0.07,0.48
0.03,0.04,0.44
0.02,0.03,0.4
0.02,0.02,0.37
0.03,0,0.34
0.03,-0.03,0.31
0.01,-0.07,0.27
0.01,-0.11,0.23
0.01,-0.14,0.22
0,-0.17,0.25
0.02,-0.21,0.31
0.05,-0.24,0.35
0.09,-0.28,0.37
0.11,-0.34,0.34
0.12,-0.36,0.27
0.12,-0.39,0.19
0.14,-0.43,0.16
0.19,-0.49,0.21
0.34,-0.62,0.39
0.36,-0.7,0.44
0.39,-0.75,0.44
0.42,-0.87,0.41
0.41,-0.95,0.41
0.4,-0.99,0.42
0.42,-1.02,0.43
0.47,-1.09,0.48
0.54,-1.18,0.6
0.66,-1.16,0.7
0.79,-1.13,0.71
0.85,-1.18,0.69
0.85,-1.27,0.66
0.81,-1.33,0.62
0.76,-1.38,0.62
0.75,-1.44,0.71
0.74,-1.48,0.84
0.74,-1.47,0.9
0.77,-1.45,0.9
0.81,-1.44,0.88
0.84,-1.45,0.87
0.84,-1.45,0.89
0.82,-1.43,0.95
0.82,-1.4,1.01
0.81,-1.37,1.04
0.79,-1.35,1.04
0.77,-1.34,1.02
0.74,-1.35,0.98
0.72,-1.35,0.94
0.7,-1.34,0.92
0.68,-1.31,0.9
0.65,-1.29,0.85
0.62,-1.27,0.81
0.61,-1.27,0.78
0.6,-1.26,0.75
0.59,-1.24,0.73
0.58,-1.25,0.69
0.55,-1.26,0.64
0.52,-1.22,0.59
0.58,-1.23,0.53
0.67,-1.21,0.48
0.69,-1.13,0.5
0.71,-1.13,0.6
0.77,-1.22,0.57
0.5,-1.25,0.54
0.2,-1.16,0.49
0.2,-1.1,0.4
0.19,-1.05,0.34
0.18,-0.96,0.24
0.2,-0.91,0.22
0.27,-0.86,0.21
0.37,-0.8,0.22
0.44,-0.69,0.21
0.55,-0.66,0.15
0.6,-0.62,0.1
0.62,-0.59,0.02
0.6,-0.59,-0.04
0.65,-0.59,-0.05
0.65,-0.59,-0.05
0.6,-0.58,-0.02
0.62,-0.55,-0.01
0.64,-0.53,0
0.64,-0.52,-0.01
0.63,-0.51,-0.02
0.62,-0.51,-0.05
0.61,-0.5,-0.08
0.61,-0.49,-0.1
0.61,-0.48,-0.12
0.62,-0.48,-0.12
0.63,-0.48,-0.13
0.65,-0.49,-0.14
0.65,-0.49,-0.15
0.66,-0.48,-0.14
0.66,-0.48,-0.14
0.67,-0.49,-0.13
0.67,-0.5,-0.11
0.67,-0.52,-0.09
0.67,-0.53,-0.07
0.66,-0.55,-0.01
0.64,-0.58,0.05
0.64,-0.63,0.11
0.62,-0.68,0.17
0.61,-0.73,0.22
0.62,-0.76,0.25
0.6,-0.78,0.27
0.58,-0.81,0.3
0.56,-0.83,0.33
0.54,-0.88,0.37
0.55,-0.94,0.41
0.53,-1.01,0.49
0.47,-1.06,0.6
0.43,-1.11,0.7
0.45,-1.19,0.75
0.49,-1.31,0.81
0.51,-1.38,0.84
0.49,-1.42,0.84
0.41,-1.45,0.88
0.35,-1.52,0.91
0.37,-1.55,0.94
0.46,-1.52,1.04
0.49,-1.52,1.17
0.42,-1.53,1.23
0.38,-1.55,1.24
0.34,-1.57,1.24
0.31,-1.57,1.3
0.3,-1.64,1.35
0.27,-1.73,1.4
0.18,-1.79,1.41
0.08,-1.84,1.37
0.07,-1.85,1.33
0.08,-1.82,1.28
0.11,-1.77,1.24
0.18,-1.77,1.19
0.28,-1.78,1.1
0.36,-1.76,1.01
0.41,-1.72,0.95
0.42,-1.69,0.89
0.4,-1.63,0.82
0.4,-1.56,0.73
0.38,-1.5,0.65
0.38,-1.44,0.58
0.4,-1.35,0.54
0.4,-1.22,0.52
0.45,-1.12,0.46
0.51,-1.02,0.38
0.49,-0.91,0.29
0.45,-0.85,0.2
0.49,-0.8,0.13
0.55,-0.72,0.07
0.59,-0.62,0.03
0.55,-0.54,0.01
0.43,-0.4,0
0.36,-0.33,-0.01
0.32,-0.26,-0.01
0.3,-0.21,-0.02
0.27,-0.15,-0.02
0.23,-0.09,0.03
0.23,-0.05,0.12
0.22,0,0.22
0.18,0.06,0.26
0.12,0.08,0.25
0.02,0.09,0.25
-0.04,0.11,0.28
-0.08,0.12,0.32
-0.09,0.13,0.39
-0.11,0.13,0.45
-0.14,0.12,0.49
-0.18,0.11,0.52
-0.18,0.11,0.54
-0.17,0.11,0.56
-0.15,0.09,0.61
-0.13,0.08,0.68
-0.13,0.08,0.77
-0.14,0.08,0.85
-0.17,0.08,0.89
-0.19,0.08,0.92
-0.18,0.08,0.93
-0.12,0.09,0.93
-0.1,0.09,0.95
-0.09,0.09,0.97
-0.07,0.1,0.99
-0.06,0.09,0.99
-0.08,0.09,0.97
-0.11,0.09,0.93
-0.1,0.1,0.89
-0.09,0.1,0.86
-0.09,0.1,0.81
-0.08,0.1,0.77
-0.06,0.1,0.71
-0.04,0.1,0.64
-0.02,0.1,0.58
-0.01,0.09,0.52
0,0.07,0.46
0.01,0.04,0.43
0.02,0.03,0.41
0.04,0.01,0.39
0.06,-0.02,0.36
0.07,-0.04,0.33
0.09,-0.07,0.29
0.1,-0.1,0.26
0.09,-0.13,0.27
0.1,-0.15,0.29
0.13,-0.16,0.32
0.13,-0.29,0.31
0.12,-0.37,0.3
0.12,-0.43,0.3
0.13,-0.47,0.32
0.13,-0.51,0.36
0.14,-0.52,0.41
0.21,-0.55,0.45
0.25,-0.6,0.47
0.26,-0.67,0.5
0.27,-0.78,0.5
0.28,-0.85,0.47
0.3,-0.86,0.47
0.31,-0.89,0.5
0.33,-0.88,0.58
0.39,-0.87,0.63
0.49,-0.95,0.64
0.55,-1.08,0.66
0.6,-1.19,0.7
0.66,-1.23,0.73
0.69,-1.24,0.7
0.73,-1.26,0.66
0.78,-1.3,0.68
0.82,-1.35,0.76
0.86,-1.36,0.86
0.89,-1.31,0.9
0.9,-1.25,0.91
0.89,-1.24,0.91
0.84,-1.27,0.89
0.79,-1.3,0.88
0.78,-1.33,0.94
0.8,-1.32,1
0.83,-1.29,1.01
0.85,-1.27,1.02
0.88,-1.27,1.02
0.9,-1.26,1.01
0.87,-1.26,0.97
0.81,-1.26,0.93
0.76,-1.27,0.89
0.73,-1.27,0.86
0.71,-1.26,0.84
0.69,-1.25,0.83
0.68,-1.23,0.84
0.68,-1.19,0.83
0.68,-1.14,0.84
0.67,-1.11,0.83
0.63,-1.13,0.77
0.56,-1.14,0.72
0.52,-1.14,0.66
0.57,-1.19,0.58
0.62,-1.18,0.56
0.57,-1.09,0.6
0.46,-1.12,0.6
0.43,-1.17,0.49
0.32,-1.1,0.41
0.3,-1.01,0.34
0.26,-0.98,0.29
0.29,-0.93,0.25
0.36,-0.86,0.24
0.38,-0.79,0.25
0.39,-0.75,0.25
0.42,-0.71,0.22
0.44,-0.67,0.19
0.44,-0.63,0.16
0.43,-0.6,0.14
0.42,-0.58,0.11
0.41,-0.56,0.09
0.4,-0.53,0.08
0.38,-0.52,0.08
0.35,-0.51,0.08
0.34,-0.5,0.09
0.33,-0.5,0.09
0.34,-0.51,0.1
0.36,-0.52,0.11
0.39,-0.55,0.12
0.41,-0.58,0.13
0.42,-0.6,0.15
0.42,-0.62,0.17
0.42,-0.64,0.18
0.41,-0.71,0.22
0.41,-0.75,0.26
0.39,-0.78,0.32
0.35,-0.82,0.39
0.34,-0.89,0.45
0.38,-0.96,0.48
0.45,-1.01,0.48
0.54,-1.05,0.49
0.56,-1.07,0.51
0.56,-1.1,0.55
0.55,-1.14,0.57
0.53,-1.16,0.64
0.54,-1.18,0.7
0.48,-1.21,0.72
0.42,-1.26,0.77
0.35,-1.31,0.83
0.3,-1.37,0.87
0.33,-1.38,0.9
0.33,-1.38,0.92
0.32,-1.4,0.94
0.27,-1.43,0.99
0.2,-1.44,1.03
0.17,-1.44,1.06
0.16,-1.46,1.09
0.17,-1.49,1.19
0.22,-1.53,1.31
0.25,-1.61,1.28
0.24,-1.67,1.2
0.05,-1.64,1.16
0.04,-1.59,1.13
0.05,-1.57,1.13
0.07,-1.58,1.13
0.12,-1.58,1.12
0.19,-1.58,1.08
0.23,-1.58,1.04
0.28,-1.58,0.98
0.33,-1.55,0.92
0.38,-1.5,0.86
0.41,-1.4,0.79
0.42,-1.32,0.74
0.41,-1.28,0.71
0.4,-1.27,0.69
0.4,-1.22,0.67
0.42,-1.16,0.64
0.45,-1.08,0.6
0.48,-0.98,0.53
0.51,-0.87,0.47
0.54,-0.78,0.45
0.53,-0.71,0.41
0.48,-0.67,0.36
0.41,-0.65,0.34
0.39,-0.64,0.35
0.37,-0.59,0.34
0.24,-0.41,0.3
0.23,-0.32,0.25
0.23,-0.23,0.2
0.27,-0.17,0.15
0.3,-0.15,0.11
0.32,-0.15,0.12
0.3,-0.15,0.13
0.23,-0.14,0.16
0.21,-0.06,0.17
0.2,0.04,0.18
0.2,0.1,0.21
0.18,0.12,0.24
0.16,0.1,0.27
0.15,0.07,0.29
0.11,0.07,0.29
0.08,0.1,0.3
0.08,0.15,0.32
0.09,0.17,0.36
0.08,0.17,0.43
0.04,0.16,0.53
-0.02,0.16,0.63
-0.07,0.14,0.68
-0.1,0.12,0.68
-0.1,0.12,0.67
-0.1,0.11,0.68
-0.12,0.1,0.77
-0.18,0.11,0.82
-0.2,0.12,0.87
-0.22,0.11,0.91
-0.24,0.09,0.92
-0.24,0.08,0.93
-0.23,0.08,0.93
-0.23,0.09,0.92
-0.22,0.09,0.9
-0.21,0.08,0.87
-0.18,0.07,0.84
-0.14,0.06,0.8
-0.1,0.05,0.76
-0.08,0.04,0.71
-0.08,0.05,0.67
-0.07,0.04,0.63
-0.05,0.01,0.59
-0.04,-0.02,0.57
-0.04,-0.04,0.55
-0.03,-0.06,0.54
0,-0.08,0.51
0.02,-0.09,0.47
0.04,-0.09,0.44
0.06,-0.1,0.41
0.1,-0.15,0.39
0.11,-0.2,0.41
0.11,-0.24,0.5
0.16,-0.33,0.5
0.19,-0.35,0.5
0.2,-0.36,0.48
0.2,-0.39,0.43
0.19,-0.46,0.36
0.16,-0.53,0.35
0.17,-0.62,0.41
0.19,-0.65,0.51
0.24,-0.64,0.57
0.28,-0.68,0.59
0.31,-0.79,0.57
0.32,-0.92,0.51
0.31,-0.97,0.48
0.32,-0.98,0.48
0.33,-1,0.54
0.35,-1.02,0.64
0.4,-1.02,0.72
0.45,-1.08,0.76
0.49,-1.16,0.73
0.53,-1.21,0.66
0.56,-1.21,0.62
0.57,-1.21,0.62
0.58,-1.26,0.66
0.58,-1.35,0.77
0.6,-1.4,0.92
0.66,-1.4,1.01
0.71,-1.41,1.05
0.68,-1.44,1.02
0.63,-1.44,0.99
0.58,-1.43,0.98
0.55,-1.41,0.98
0.54,-1.4,1.02
0.57,-1.4,1.08
0.59,-1.39,1.13
0.6,-1.39,1.15
0.6,-1.39,1.15
0.6,-1.38,1.11
0.6,-1.37,1.07
0.59,-1.37,1.03
0.57,-1.38,0.99
0.55,-1.39,0.96
0.56,-1.4,0.91
0.6,-1.44,0.86
0.57,-1.46,0.84
0.52,-1.44,0.81
0.62,-1.44,0.69
0.75,-1.36,0.69
0.62,-1.28,0.82
0.48,-1.4,0.85
0.49,-1.49,0.76
0.32,-1.4,0.66
0.15,-1.28,0.55
0.17,-1.1,0.3
0.22,-1.03,0.26
0.2,-0.91,0.31
0.25,-0.77,0.36
0.39,-0.71,0.38
0.57,-0.68,0.36
0.59,-0.62,0.31
0.55,-0.55,0.25
0.52,-0.48,0.17
0.47,-0.44,0.11
0.43,-0.43,0.06
0.4,-0.4,0.05
0.38,-0.36,0.06
0.37,-0.33,0.08
0.36,-0.31,0.1
0.34,-0.3,0.11
0.32,-0.29,0.12
0.31,-0.28,0.12
0.31,-0.28,0.12
0.33,-0.29,0.12
0.34,-0.32,0.12
0.34,-0.35,0.12
0.35,-0.38,0.14
0.35,-0.43,0.15
0.35,-0.47,0.16
0.37,-0.5,0.17
0.39,-0.58,0.24
0.4,-0.62,0.28
0.41,-0.68,0.32
0.42,-0.76,0.37
0.42,-0.83,0.44
0.41,-0.9,0.54
0.42,-1.02,0.61
0.52,-1.16,0.62
0.61,-1.2,0.6
0.52,-1.2,0.61
0.37,-1.25,0.65
0.43,-1.36,0.68
0.54,-1.37,0.75
0.51,-1.36,0.87
0.47,-1.44,0.95
0.53,-1.54,0.96
0.57,-1.58,0.99
0.55,-1.6,1.03
0.49,-1.58,1.06
0.41,-1.54,1.07
0.35,-1.55,1.09
0.31,-1.58,1.14
0.28,-1.64,1.18
0.27,-1.7,1.19
0.27,-1.73,1.2
0.25,-1.74,1.21
0.22,-1.71,1.2
0.23,-1.73,1.16
0.26,-1.73,1.14
0.3,-1.72,1.14
0.34,-1.72,1.13
0.38,-1.69,1.12
0.43,-1.68,1.1
0.46,-1.67,1.09
0.48,-1.64,1.05
0.48,-1.61,1
0.48,-1.56,0.92
0.47,-1.53,0.85
0.45,-1.51,0.79
0.45,-1.48,0.75
0.47,-1.43,0.7
0.5,-1.36,0.62
0.53,-1.28,0.55
0.53,-1.19,0.47
0.5,-1.09,0.38
0.47,-0.98,0.26
0.46,-0.87,0.19
0.46,-0.81,0.16
0.48,-0.78,0.15
0.49,-0.7,0.15
0.5,-0.62,0.13
0.54,-0.5,0.09
0.59,-0.36,-0.06
0.63,-0.28,-0.09
0.58,-0.25,-0.1
0.47,-0.16,-0.08
0.35,-0.03,-0.05
0.27,0.07,0
0.26,0.11,0.07
0.26,0.11,0.12
0.24,0.05,0.19
0.22,0.01,0.26
0.17,0.05,0.28
0.12,0.09,0.27
0.06,0.11,0.26
0.03,0.15,0.3
0.03,0.19,0.37
0.06,0.16,0.43
0.07,0.1,0.49
0.06,0.05,0.52
0.04,0.04,0.54
0.03,0.07,0.56
-0.01,0.1,0.57
-0.04,0.1,0.58
-0.06,0.09,0.62
-0.04,0.09,0.66
-0.02,0.08,0.69
-0.03,0.07,0.69
-0.05,0.07,0.65
-0.05,0.06,0.65
-0.05,0.04,0.63
-0.04,0.02,0.59
-0.03,0.01,0.55
-0.01,0.01,0.5
0,0,0.47
0.01,-0.01,0.43
0.02,-0.02,0.39
0.03,-0.04,0.35
0.04,-0.08,0.31
0.05,-0.11,0.27
0.06,-0.13,0.23
0.06,-0.17,0.23
0.08,-0.24,0.25
0.12,-0.28,0.27
0.17,-0.27,0.28
0.22,-0.3,0.25
0.26,-0.36,0.21
0.27,-0.42,0.17
0.27,-0.49,0.14
0.27,-0.58,0.16
0.28,-0.69,0.25
0.34,-0.79,0.35
0.4,-0.82,0.4
0.42,-0.82,0.41
0.44,-0.83,0.37
0.42,-0.95,0.35
0.4,-1.06,0.41
0.45,-1.17,0.54
0.59,-1.24,0.65
0.69,-1.28,0.66
0.71,-1.27,0.62
0.7,-1.29,0.59
0.7,-1.36,0.57
0.69,-1.43,0.56
0.67,-1.54,0.58
0.66,-1.61,0.73
0.72,-1.58,0.89
0.83,-1.51,0.94
0.89,-1.48,0.95
0.9,-1.52,0.97
0.86,-1.58,0.99
0.8,-1.59,1.03
0.77,-1.58,1.08
0.75,-1.57,1.11
0.77,-1.55,1.14
0.79,-1.52,1.2
0.81,-1.47,1.24
0.81,-1.43,1.24
0.81,-1.43,1.21
0.8,-1.43,1.16
0.77,-1.44,1.08
0.66,-1.46,0.96
0.65,-1.48,0.87
0.63,-1.52,0.8
0.53,-1.55,0.79
0.48,-1.52,0.78
0.56,-1.55,0.77
0.62,-1.55,0.79
0.65,-1.47,0.74
0.48,-1.42,0.77
0.26,-1.39,0.71
0.18,-1.37,0.5
0.08,-1.28,0.38
0.05,-1.18,0.34
0.11,-1.09,0.34
0.16,-0.97,0.32
0.18,-0.86,0.3
0.2,-0.78,0.3
0.21,-0.71,0.31
0.25,-0.63,0.29
0.26,-0.57,0.28
0.28,-0.51,0.24
0.36,-0.48,0.19
0.37,-0.46,0.16
0.33,-0.42,0.15
0.3,-0.41,0.13
0.31,-0.41,0.15
0.36,-0.38,0.18
0.43,-0.36,0.18
0.41,-0.36,0.17
0.41,-0.37,0.16
0.44,-0.38,0.15
0.47,-0.38,0.15
0.49,-0.38,0.17
0.57,-0.4,0.21
0.68,-0.4,0.27
0.77,-0.4,0.34
0.82,-0.46,0.35
0.91,-0.5,0.32
1.03,-0.56,0.33
1.09,-0.62,0.27
1.11,-0.61,0.17
1.07,-0.57,0.14
0.9,-0.58,0.14
0.75,-0.58,0.15
0.74,-0.58,0.14
0.77,-0.59,0.13
0.71,-0.61,0.13
0.66,-0.62,0.17
0.63,-0.64,0.19
0.6,-0.65,0.21
0.58,-0.68,0.22
0.53,-0.74,0.25
0.5,-0.89,0.29
0.48,-0.94,0.27
0.44,-0.96,0.26
0.42,-0.96,0.29
0.4,-0.98,0.37
0.42,-1.03,0.43
0.5,-1.14,0.51
0.5,-1.19,0.65
0.45,-1.18,0.75
0.41,-1.22,0.76
0.35,-1.27,0.74
0.31,-1.3,0.73
0.33,-1.28,0.8
0.22,-1.24,0.88
0.11,-1.25,1
0.1,-1.3,1.08
0.07,-1.32,1.05
-0.01,-1.29,1.03
-0.13,-1.24,1.02
-0.2,-1.25,0.98
-0.19,-1.29,0.91
-0.14,-1.31,0.9
-0.07,-1.32,0.94
0,-1.31,1.01
0.06,-1.3,1.08
0.11,-1.29,1.13
0.16,-1.29,1.13
0.22,-1.29,1.13
0.23,-1.3,1.12
0.21,-1.32,1.09
0.17,-1.33,1.05
0.13,-1.34,1.02
0.11,-1.35,1.02
0.09,-1.35,1.03
0.11,-1.32,1.04
0.15,-1.3,1.05
0.18,-1.28,1.07
0.19,-1.28,1.06
0.16,-1.29,1.03
0.12,-1.29,0.98
0.11,-1.28,0.92
0.12,-1.28,0.85
0.14,-1.27,0.79
0.17,-1.24,0.77
0.23,-1.2,0.73
0.29,-1.15,0.68
0.3,-1.07,0.65
0.24,-0.96,0.64
0.28,-0.87,0.6
0.4,-0.78,0.54
0.46,-0.69,0.47
0.42,-0.64,0.43
0.34,-0.61,0.38
0.36,-0.51,0.38
0.36,-0.44,0.38
0.32,-0.36,0.38
0.31,-0.31,0.37
0.33,-0.28,0.32
0.35,-0.23,0.26
0.34,-0.21,0.24
0.29,-0.2,0.2
0.25,-0.18,0.19
0.22,-0.14,0.2
0.19,-0.1,0.19
0.18,-0.07,0.2
0.16,-0.08,0.23
0.15,-0.04,0.26
0.15,-0.01,0.31
0.13,0,0.34
0.12,0.03,0.35
0.1,0.07,0.37
0.08,0.08,0.41
0.07,0.09,0.45
0.07,0.11,0.48
0.06,0.1,0.51
0.05,0.09,0.54
0.01,0.1,0.57
-0.01,0.1,0.6
-0.01,0.1,0.63
-0.05,0.07,0.63
-0.06,0.04,0.62
-0.06,0.02,0.61
-0.08,0,0.62
-0.09,0,0.61
-0.08,0.02,0.6
-0.06,0.03,0.58
-0.05,0.04,0.54
-0.04,0.03,0.5
-0.03,0.01,0.48
0,-0.02,0.46
0.01,-0.07,0.44
0.01,-0.11,0.43
0,-0.14,0.44
0.01,-0.15,0.45
0.02,-0.17,0.44
0.03,-0.17,0.42
0.03,-0.16,0.39
0.04,-0.17,0.37
0.06,-0.21,0.38
0.09,-0.28,0.42
0.14,-0.36,0.45
0.18,-0.4,0.46
0.2,-0.46,0.45
0.2,-0.5,0.43
0.18,-0.53,0.4
0.17,-0.6,0.42
0.21,-0.65,0.46
0.26,-0.75,0.52
0.31,-0.84,0.58
0.32,-0.89,0.59
0.35,-0.92,0.58
0.4,-0.98,0.55
0.42,-1.02,0.53
0.41,-1.03,0.51
0.41,-1.09,0.53
0.42,-1.19,0.65
0.48,-1.29,0.8
0.58,-1.29,0.87
0.64,-1.27,0.86
0.68,-1.31,0.79
0.69,-1.34,0.71
0.66,-1.39,0.67
0.61,-1.42,0.73
0.57,-1.42,0.87
0.6,-1.44,0.98
0.64,-1.47,1.03
0.65,-1.48,1.05
0.65,-1.48,1.04
0.66,-1.48,1.02
0.64,-1.46,1.02
0.61,-1.43,1.11
0.59,-1.39,1.12
0.59,-1.38,1.1
0.6,-1.39,1.07
0.6,-1.42,1.03
0.6,-1.45,0.98
0.62,-1.47,0.92
0.62,-1.48,0.85
0.61,-1.48,0.8
0.59,-1.48,0.76
0.58,-1.47,0.74
0.56,-1.47,0.72
0.5,-1.5,0.71
0.39,-1.49,0.65
0.47,-1.52,0.57
0.56,-1.46,0.5
0.42,-1.28,0.51
0.32,-1.25,0.52
0.37,-1.33,0.45
0.39,-1.32,0.39
0.37,-1.2,0.36
0.35,-1.1,0.34
0.32,-1.03,0.33
0.3,-0.98,0.33
0.32,-0.91,0.31
0.33,-0.82,0.3
0.31,-0.75,0.29
0.28,-0.7,0.32
0.36,-0.66,0.32
0.25,-0.59,0.27
0.26,-0.55,0.28
0.25,-0.5,0.27
0.23,-0.47,0.26
0.25,-0.45,0.25
0.27,-0.43,0.24
0.26,-0.41,0.24
0.25,-0.39,0.22
0.26,-0.38,0.19
0.27,-0.38,0.16
0.28,-0.38,0.15
0.32,-0.39,0.13
0.36,-0.4,0.11
0.4,-0.42,0.1
0.44,-0.44,0.11
0.44,-0.46,0.11
0.43,-0.48,0.11
0.43,-0.5,0.11
0.45,-0.53,0.11
0.48,-0.57,0.11
0.49,-0.62,0.12
0.48,-0.67,0.14
0.46,-0.73,0.16
0.45,-0.81,0.18
0.44,-0.95,0.2
0.42,-1.02,0.22
0.39,-1.08,0.26
0.38,-1.15,0.31
0.37,-1.2,0.34
0.37,-1.3,0.37
0.34,-1.34,0.4
0.32,-1.4,0.44
0.3,-1.46,0.5
0.27,-1.53,0.55
0.29,-1.57,0.58
0.34,-1.57,0.61
0.33,-1.57,0.63
0.3,-1.57,0.61
0.29,-1.56,0.59
0.31,-1.53,0.66
0.36,-1.52,0.82
0.41,-1.53,0.99
0.45,-1.52,1.1
0.47,-1.5,1.13
0.45,-1.49,1.12
0.39,-1.5,1.13
0.33,-1.52,1.16
0.26,-1.55,1.18
0.17,-1.57,1.19
0.1,-1.57,1.22
0.05,-1.5,1.3
-0.04,-1.49,1.32
-0.05,-1.49,1.33
-0.05,-1.51,1.33
-0.02,-1.52,1.3
0.04,-1.52,1.25
0.11,-1.54,1.18
0.19,-1.54,1.12
0.27,-1.53,1.05
0.35,-1.5,0.98
0.39,-1.45,0.9
0.4,-1.41,0.83
0.38,-1.38,0.76
0.36,-1.33,0.69
0.35,-1.24,0.61
0.33,-1.14,0.56
0.34,-1.05,0.51
0.37,-0.98,0.46
0.42,-0.94,0.44
0.45,-0.91,0.42
0.42,-0.84,0.38
0.4,-0.73,0.31
0.37,-0.61,0.26
0.34,-0.48,0.22
0.36,-0.39,0.2
0.39,-0.33,0.17
0.43,-0.33,0.06
0.39,-0.32,0.05
0.35,-0.33,0.04
0.35,-0.29,0.03
0.36,-0.23,0.05
0.34,-0.16,0.07
0.31,-0.09,0.09
0.27,-0.04,0.1
0.21,-0.01,0.1
0.14,0,0.12
0.08,0.02,0.16
0.01,0.06,0.21
-0.03,0.12,0.26
-0.06,0.14,0.32
-0.12,0.15,0.36
-0.18,0.16,0.39
-0.22,0.18,0.42
-0.22,0.2,0.47
-0.24,0.21,0.52
-0.26,0.21,0.57
-0.27,0.22,0.61
-0.25,0.21,0.63
-0.25,0.19,0.64
-0.26,0.17,0.63
-0.26,0.16,0.6
-0.24,0.16,0.58
-0.23,0.15,0.56
-0.18,0.13,0.56
-0.14,0.12,0.54
-0.12,0.11,0.5
-0.09,0.09,0.46
-0.09,0.06,0.43
-0.08,0.05,0.4
-0.06,0.03,0.38
-0.04,0,0.37
-0.03,-0.04,0.37
-0.04,-0.07,0.37
-0.02,-0.08,0.36
0.01,-0.1,0.34
0.02,-0.13,0.34
0.04,-0.16,0.35
0.08,-0.19,0.38
0.12,-0.24,0.4
0.16,-0.3,0.42
0.19,-0.36,0.42
0.21,-0.41,0.39
0.25,-0.45,0.35
0.29,-0.5,0.35
0.31,-0.54,0.41
0.35,-0.58,0.5
0.41,-0.63,0.55
0.47,-0.71,0.56
0.51,-0.84,0.55
0.56,-1.04,0.51
0.57,-1.08,0.51
0.6,-1.06,0.56
0.66,-1.04,0.68
0.73,-1.02,0.83
0.77,-1,0.89
0.81,-1.1,0.86
0.85,-1.28,0.8
0.85,-1.43,0.74
0.82,-1.53,0.72
0.77,-1.53,0.78
0.77,-1.45,0.92
0.81,-1.35,1.09
0.86,-1.27,1.2
0.91,-1.25,1.19
0.9,-1.26,1.13
0.85,-1.3,1.07
0.8,-1.33,1.07
0.77,-1.32,1.13
0.74,-1.27,1.2
0.73,-1.23,1.27
0.72,-1.22,1.31
0.72,-1.25,1.28
0.74,-1.3,1.24
0.77,-1.36,1.19
0.81,-1.39,1.07
0.88,-1.38,1.09
0.93,-1.31,1.14
0.97,-1.27,1.1
0.92,-1.33,1.01
0.81,-1.32,0.96
0.73,-1.21,0.86
0.77,-1.23,0.74
0.67,-1.24,0.72
0.47,-1.21,0.7
0.41,-1.22,0.65
0.36,-1.19,0.6
0.37,-1.15,0.52
0.44,-1.1,0.49
0.45,-1.01,0.46
0.43,-0.94,0.42
0.42,-0.88,0.38
0.42,-0.81,0.32
0.42,-0.75,0.27
0.43,-0.69,0.26
0.37,-0.64,0.18
0.38,-0.61,0.23
0.34,-0.56,0.33
0.27,-0.5,0.34
0.25,-0.45,0.4
0.13,-0.42,0.44
0.08,-0.37,0.46
0.21,-0.32,0.35
0.24,-0.31,0.24
0.26,-0.31,0.15
0.31,-0.32,0.09
0.36,-0.33,0.05
0.38,-0.34,0.03
0.36,-0.36,0.03
0.34,-0.38,0.06
0.34,-0.4,0.09
0.36,-0.43,0.12
0.39,-0.47,0.14
0.41,-0.51,0.14
0.42,-0.55,0.16
0.42,-0.59,0.2
0.44,-0.64,0.23
0.41,-0.68,0.25
0.36,-0.73,0.28
0.36,-0.8,0.31
0.35,-0.9,0.36
0.31,-0.99,0.4
0.27,-1.06,0.47
0.23,-1.14,0.6
0.26,-1.18,0.76
0.36,-1.29,0.81
0.48,-1.43,0.78
0.51,-1.45,0.74
0.48,-1.37,0.69
0.31,-1.4,0.74
0.28,-1.45,0.81
0.23,-1.5,0.92
0.21,-1.52,1.03
0.24,-1.49,1.09
0.28,-1.46,1.12
0.27,-1.45,1.14
0.23,-1.45,1.13
0.21,-1.44,1.13
0.22,-1.45,1.14
0.25,-1.47,1.12
0.26,-1.47,1.12
0.27,-1.45,1.12
0.26,-1.46,1.11
0.25,-1.48,1.12
0.24,-1.5,1.13
0.23,-1.51,1.14
0.22,-1.49,1.15
0.22,-1.48,1.16
0.23,-1.46,1.14
0.25,-1.4,1.11
0.25,-1.39,1.08
0.24,-1.4,1.04
0.23,-1.41,1.01
0.22,-1.4,1
0.22,-1.37,1
0.21,-1.32,0.96
0.23,-1.27,0.9
0.23,-1.22,0.84
0.25,-1.18,0.77
0.27,-1.13,0.69
0.29,-1.1,0.63
0.31,-1.08,0.61
0.32,-1.04,0.61
0.34,-0.98,0.6
0.37,-0.89,0.56
0.4,-0.77,0.52
0.44,-0.65,0.49
0.47,-0.56,0.45
0.47,-0.53,0.38
0.44,-0.54,0.34
0.39,-0.53,0.3
0.34,-0.51,0.25
0.3,-0.46,0.22
0.28,-0.41,0.2
0.25,-0.35,0.2
0.23,-0.28,0.2
0.2,-0.2,0.2
0.21,-0.15,0.2
0.23,-0.13,0.2
0.23,-0.07,0.21
0.21,-0.04,0.22
0.13,-0.01,0.24
0.1,0.04,0.27
0.08,0.07,0.31
0.06,0.08,0.34
0.06,0.11,0.37
0.03,0.11,0.4
-0.01,0.11,0.42
-0.01,0.12,0.45
-0.03,0.11,0.48
-0.06,0.1,0.48
-0.09,0.09,0.48
-0.08,0.1,0.51
-0.06,0.1,0.55
-0.05,0.09,0.6
-0.06,0.11,0.65
-0.07,0.13,0.66
-0.09,0.12,0.63
-0.11,0.12,0.6
-0.1,0.12,0.57
-0.08,0.11,0.56
-0.06,0.09,0.54
-0.05,0.06,0.51
-0.04,0.01,0.49
-0.05,-0.05,0.48
-0.05,-0.1,0.48
-0.06,-0.11,0.45
-0.02,-0.1,0.45
0.01,-0.12,0.47
0.03,-0.14,0.47
0.03,-0.17,0.47
0.04,-0.23,0.46
0.05,-0.3,0.45
0.06,-0.35,0.48
0.06,-0.39,0.52
0.06,-0.4,0.54
0.08,-0.4,0.54
0.08,-0.41,0.51
0.11,-0.4,0.46
0.16,-0.43,0.42
0.21,-0.53,0.42
0.24,-0.65,0.48
0.28,-0.72,0.56
0.32,-0.75,0.58
0.37,-0.77,0.57
0.39,-0.77,0.55
0.38,-0.81,0.52
0.38,-0.86,0.54
0.38,-0.92,0.61
0.43,-0.98,0.69
0.51,-1.04,0.75
0.55,-1.12,0.78
0.52,-1.17,0.77
0.4,-1.19,0.73
0.37,-1.21,0.71
0.38,-1.26,0.76
0.42,-1.27,0.85
0.48,-1.26,0.91
0.54,-1.27,0.92
0.59,-1.31,0.91
0.6,-1.36,0.9
0.58,-1.41,0.89
0.55,-1.43,0.88
0.53,-1.41,0.91
0.54,-1.37,0.98
0.58,-1.34,1.04
0.61,-1.33,1.04
0.61,-1.35,1.01
0.59,-1.37,0.98
0.58,-1.39,0.95
0.55,-1.4,0.93
0.53,-1.41,0.96
0.53,-1.42,0.99
0.53,-1.43,1
0.53,-1.43,0.97
0.54,-1.39,0.94
0.56,-1.43,0.85
0.52,-1.48,0.82
0.4,-1.42,0.75
0.72,-1.39,0.74
0.57,-1.28,0.78
0.32,-1.3,0.78
0.31,-1.44,0.73
0.32,-1.49,0.65
0.21,-1.39,0.63
0.04,-1.26,0.59
0,-1.18,0.52
0.03,-1.1,0.48
0.05,-1.01,0.46
0.1,-0.89,0.43
0.15,-0.78,0.42
0.2,-0.71,0.43
0.21,-0.67,0.42
0.23,-0.63,0.38
0.32,-0.59,0.39
0.18,-0.54,0.51
-0.02,-0.48,0.56
0.14,-0.46,0.47
0.38,-0.42,0.36
0.38,-0.42,0.3
0.35,-0.43,0.26
0.39,-0.4,0.21
0.43,-0.39,0.19
0.48,-0.4,0.18
0.54,-0.41,0.18
0.61,-0.42,0.2
0.63,-0.44,0.2
0.66,-0.46,0.2
0.71,-0.46,0.21
0.77,-0.46,0.21
0.82,-0.46,0.22
0.89,-0.48,0.22
0.98,-0.52,0.23
0.95,-0.56,0.3
0.94,-0.55,0.37
1.09,-0.56,0.39
1.13,-0.61,0.37
1.11,-0.62,0.35
1.09,-0.61,0.32
1.05,-0.57,0.28
1.02,-0.53,0.25
0.94,-0.5,0.23
0.93,-0.48,0.23
0.92,-0.47,0.24
0.91,-0.45,0.24
0.91,-0.45,0.23
0.93,-0.46,0.22
0.94,-0.49,0.21
0.96,-0.52,0.21
0.98,-0.54,0.18
0.99,-0.55,0.15
1.01,-0.56,0.09
1.02,-0.56,0.07
0.99,-0.54,0.05
0.95,-0.51,0.03
0.89,-0.47,0.03
0.83,-0.45,0.03
0.81,-0.44,0.03
0.84,-0.44,0.03
0.81,-0.43,0.05
0.75,-0.43,0.07
0.79,-0.44,0.08
0.81,-0.48,0.09
0.82,-0.52,0.09
0.8,-0.55,0.09
0.79,-0.57,0.1
0.76,-0.57,0.1
0.73,-0.56,0.09
0.71,-0.56,0.09
0.68,-0.56,0.09
0.65,-0.55,0.1
0.63,-0.56,0.11
0.62,-0.57,0.12
0.6,-0.58,0.13
0.6,-0.59,0.13
0.61,-0.6,0.13
0.62,-0.61,0.14
0.61,-0.64,0.18
0.53,-0.66,0.17
0.53,-0.68,0.18
0.52,-0.7,0.18
0.51,-0.71,0.17
0.51,-0.73,0.19
0.49,-0.75,0.2
0.5,-0.81,0.21
0.55,-0.86,0.23
0.61,-0.9,0.26
0.62,-0.95,0.31
0.65,-0.97,0.39
0.81,-0.95,0.41
0.96,-0.95,0.35
0.92,-0.95,0.31
0.93,-0.96,0.28
0.97,-0.95,0.2
0.91,-0.91,0.16
0.89,-0.94,0.15
0.83,-0.98,0.15
0.73,-0.98,0.17
0.74,-1.02,0.17
0.78,-1.07,0.16
0.76,-1.09,0.16
0.69,-1.1,0.16
0.63,-1.11,0.15
0.61,-1.05,0.16
0.55,-1.01,0.17
0.54,-0.97,0.17
0.52,-0.93,0.17
0.51,-0.9,0.19
0.52,-0.88,0.22
0.52,-0.85,0.23
0.51,-0.84,0.23
0.51,-0.84,0.23
0.52,-0.84,0.21
0.53,-0.85,0.19
0.52,-0.85,0.16
0.5,-0.86,0.12
0.48,-0.88,0.09
0.45,-0.9,0.05
0.44,-0.92,0.01
0.45,-0.93,-0.02
0.45,-0.94,-0.04
0.44,-0.94,-0.05
0.43,-0.94,-0.04
0.42,-0.93,-0.03
0.42,-0.91,-0.02
0.44,-0.89,-0.02
0.44,-0.87,-0.03
0.44,-0.85,-0.02
0.44,-0.83,-0.03
0.45,-0.83,-0.04
0.45,-0.83,-0.04
0.46,-0.83,-0.03
0.47,-0.83,-0.02
0.46,-0.84,-0.01
0.45,-0.85,0
0.44,-0.86,0.01
0.41,-0.87,0.02
0.4,-0.88,0.03
0.38,-0.88,0.06
0.38,-0.89,0.09
0.37,-0.9,0.13
0.37,-0.91,0.19
0.37,-0.93,0.25
0.36,-0.96,0.31
0.38,-0.97,0.36
0.37,-0.97,0.43
0.35,-0.96,0.47
0.32,-0.98,0.52
0.31,-1.03,0.59
0.29,-1.09,0.69
0.26,-1.1,0.79
0.24,-1.11,0.86
0.23,-1.12,0.94
0.18,-1.11,1.04
0.1,-1.12,1.09
0.02,-1.14,1.23
-0.07,-1.22,1.25
-0.08,-1.26,1.26
-0.07,-1.3,1.28
-0.06,-1.33,1.29
-0.04,-1.37,1.3
-0.02,-1.4,1.32
-0.01,-1.41,1.35
-0.02,-1.41,1.36
-0.01,-1.38,1.34
0.01,-1.36,1.31
0.03,-1.35,1.28
0.05,-1.36,1.24
0.06,-1.39,1.2
0.07,-1.42,1.16
0.08,-1.46,1.13
0.11,-1.49,1.12
0.14,-1.51,1.09
0.15,-1.49,1.07
0.18,-1.45,1.02
0.18,-1.4,0.97
0.14,-1.35,0.94
0.11,-1.3,0.89
0.12,-1.27,0.84
0.14,-1.27,0.79
0.18,-1.28,0.73
0.22,-1.24,0.68
0.25,-1.1,0.69
0.27,-1.06,0.67
0.28,-0.96,0.63
0.29,-0.85,0.56
0.27,-0.77,0.49
0.25,-0.71,0.45
0.31,-0.63,0.39
0.38,-0.56,0.36
0.39,-0.5,0.32
0.36,-0.46,0.28
0.34,-0.41,0.26
0.34,-0.31,0.21
0.35,-0.19,0.2
0.33,-0.1,0.22
0.3,-0.1,0.21
0.28,-0.11,0.19
0.28,-0.03,0.16
0.29,0.1,0.14
0.27,0.16,0.17
0.27,0.14,0.21
0.26,0.15,0.28
0.2,0.15,0.35
0.12,0.12,0.37
0.07,0.15,0.36
0.05,0.2,0.37
0.04,0.23,0.45
0.02,0.21,0.49
0,0.2,0.5
-0.03,0.19,0.5
-0.05,0.16,0.51
-0.07,0.16,0.53
-0.09,0.16,0.57
-0.1,0.15,0.6
-0.1,0.15,0.62
-0.1,0.15,0.63
-0.1,0.14,0.63
-0.11,0.13,0.62
-0.13,0.12,0.61
-0.14,0.1,0.6
-0.16,0.09,0.61
-0.15,0.09,0.64
-0.14,0.07,0.66
-0.13,0.05,0.67
-0.13,0.03,0.67
-0.12,0.02,0.65
-0.11,0,0.63
-0.1,-0.03,0.59
-0.09,-0.07,0.57
-0.08,-0.09,0.55
-0.06,-0.12,0.55
-0.03,-0.14,0.57
0,-0.15,0.58
0.02,-0.19,0.54
0.03,-0.23,0.5
0.04,-0.28,0.48
0.04,-0.33,0.51
0.05,-0.36,0.57
0.1,-0.37,0.63
0.16,-0.39,0.65
0.18,-0.43,0.63
0.21,-0.46,0.58
0.22,-0.46,0.52
0.22,-0.47,0.49
0.23,-0.5,0.53
0.25,-0.54,0.58
0.3,-0.58,0.62
0.34,-0.65,0.63
0.36,-0.76,0.63
0.36,-0.85,0.62
0.36,-0.91,0.6
0.32,-1.17,0.58
0.27,-1.09,0.67
0.43,-0.86,0.71
0.63,-0.98,0.66
0.7,-1.08,0.67
0.76,-1.14,0.63
0.79,-1.23,0.6
0.79,-1.31,0.59
0.77,-1.29,0.76
0.73,-1.24,0.84
0.72,-1.22,0.86
0.72,-1.22,0.86
0.72,-1.23,0.84
0.71,-1.24,0.84
0.71,-1.24,0.88
0.72,-1.24,0.93
0.73,-1.22,0.96
0.74,-1.18,0.99
0.74,-1.16,1.04
0.74,-1.16,1.06
0.73,-1.15,1.06
0.7,-1.13,1.05
0.67,-1.11,1.04
0.66,-1.1,1.05
0.68,-1.07,1.06
0.69,-1.06,1.05
0.69,-1.04,1.03
0.7,-1.03,0.98
0.64,-1.03,0.92
0.88,-1.07,1.11
0.8,-1.21,2.54
-0.06,-1.17,3.4
-0.77,-1.15,2.24
-0.55,-1.11,1.38
-0.01,-0.8,0.84
0.26,-0.91,0.58
0.48,-0.98,0.55
0.72,-1.01,0.57
0.92,-1.02,0.49
0.86,-0.98,0.34
0.71,-0.88,0.21
0.59,-0.81,0.1
0.51,-0.77,0.03
0.47,-0.78,0.01
0.44,-0.78,0.02
0.39,-0.76,0.08
0.38,-0.74,0.13
0.43,-0.71,0.14
0.46,-0.67,0.14
0.48,-0.65,0.14
0.51,-0.63,0.13
0.53,-0.6,0.13
0.53,-0.58,0.12
0.54,-0.57,0.1
0.55,-0.57,0.09
0.58,-0.57,0.09
0.6,-0.56,0.1
0.61,-0.58,0.12
0.62,-0.61,0.15
0.62,-0.64,0.19
0.62,-0.66,0.26
0.64,-0.67,0.29
0.66,-0.71,0.34
0.68,-0.75,0.37
0.72,-0.79,0.41
0.73,-0.82,0.41
0.71,-0.83,0.44
0.65,-0.82,0.56
0.59,-0.81,0.65
0.58,-0.82,0.66
0.56,-0.83,0.65
0.53,-0.8,0.65
0.56,-0.76,0.65
0.59,-0.73,0.63
0.6,-0.71,0.6
0.55,-0.66,0.59
0.47,-0.6,0.6
0.46,-0.56,0.6
0.48,-0.56,0.58
0.49,-0.56,0.56
0.47,-0.54,0.53
0.43,-0.53,0.49
0.43,-0.54,0.47
0.48,-0.58,0.44
0.55,-0.62,0.4
0.62,-0.66,0.33
0.68,-0.67,0.2
0.64,-0.64,0.18
0.61,-0.65,0.19
0.6,-0.69,0.19
0.61,-0.73,0.17
0.61,-0.74,0.13
0.61,-0.76,0.1
0.66,-0.78,0.09
0.73,-0.79,0.11
0.78,-0.78,0.1
0.77,-0.77,0.09
0.7,-0.76,0.08
0.69,-0.73,0.05
0.66,-0.7,0.06
0.59,-0.66,0.07
0.61,-0.62,0.03
0.62,-0.62,0.02
0.61,-0.63,0.02
0.62,-0.64,0.03
0.6,-0.65,0.07
0.62,-0.69,0.08
0.71,-0.69,0.06
0.72,-0.67,0.03
0.67,-0.65,0.02
0.65,-0.64,0.03
0.68,-0.62,0.06
0.71,-0.6,0.17
0.72,-0.6,0.22
0.72,-0.6,0.25
0.72,-0.59,0.27
0.73,-0.6,0.27
0.73,-0.61,0.28
0.7,-0.61,0.3
0.66,-0.6,0.33
0.66,-0.59,0.34
0.69,-0.57,0.33
0.7,-0.57,0.31
0.7,-0.58,0.31
0.68,-0.58,0.35
0.66,-0.6,0.41
0.67,-0.61,0.43
0.72,-0.62,0.45
0.7,-0.64,0.45
0.63,-0.65,0.45
0.62,-0.64,0.46
0.63,-0.64,0.46
0.59,-0.65,0.48
0.59,-0.67,0.48
0.6,-0.69,0.47
0.58,-0.71,0.45
0.54,-0.72,0.45
0.56,-0.73,0.48
0.61,-0.74,0.53
0.81,-0.83,0.58
1.1,-1.08,0.86
1.18,-1.34,1.33
1.01,-1.34,1.62
0.86,-1.26,1.6
0.71,-1.18,1.4
0.59,-1.01,1.16
0.52,-0.89,0.93
0.48,-0.81,0.75
0.48,-0.74,0.63
0.49,-0.69,0.54
0.48,-0.64,0.52
0.43,-0.59,0.55
0.39,-0.52,0.57
0.38,-0.45,0.58
0.4,-0.39,0.59
0.43,-0.35,0.62
0.47,-0.33,0.65
0.51,-0.32,0.7
0.55,-0.31,0.74
0.6,-0.31,0.77
0.64,-0.31,0.8
0.69,-0.31,0.83
0.74,-0.33,0.84
0.78,-0.35,0.85
0.81,-0.36,0.84
0.82,-0.43,0.74
0.82,-0.48,0.71
0.83,-0.53,0.72
0.83,-0.57,0.73
0.84,-0.6,0.72
0.84,-0.64,0.7
0.78,-0.65,0.68
0.65,-0.62,0.69
0.54,-0.57,0.69
0.45,-0.5,0.67
0.35,-0.42,0.65
0.26,-0.35,0.63
0.19,-0.32,0.62
