Acc_x,Acc_y,Acc_z
0,0,0
0,0,0
0,0,0
0,0,0
0,0,0
0,0,0
0,0,0
0,0,0
0,0,0
0,0,0
0,0,0
0,0,0
0,0,0
0,0,0
0,0,0
0,0,0
0,0,0
0,0,0
0,0,0
0,0,0
0,0,0
0,0,0
0,0,0
0.22,0.91,0.29
0.23,0.9,0.29
0.23,0.9,0.3
0.23,0.9,0.3
0.23,0.91,0.29
0.23,0.91,0.28
0.23,0.91,0.27
0.22,0.92,0.27
0.22,0.92,0.27
0.2,0.94,0.29
0.23,0.93,0.27
0.26,0.93,0.24
0.26,0.91,0.25
0.25,0.91,0.25
0.25,0.91,0.25
0.25,0.91,0.25
0.25,0.92,0.25
0.24,0.92,0.26
0.23,0.91,0.28
0.23,0.9,0.29
0.23,0.9,0.29
0.23,0.9,0.28
0.23,0.91,0.27
0.23,0.92,0.26
0.23,0.93,0.26
0.24,0.93,0.26
0.24,0.93,0.25
0.26,0.93,0.24
0.25,0.93,0.25
0.24,0.93,0.25
0.24,0.94,0.25
0.25,0.94,0.25
0.24,0.93,0.25
0.24,0.93,0.25
0.23,0.93,0.25
0.23,0.93,0.26
0.23,0.93,0.28
0.21,0.93,0.27
0.25,0.93,0.26
0.23,0.92,0.26
0.22,0.91,0.27
0.25,0.93,0.23
0.28,0.92,0.21
0.28,0.91,0.25
0.25,0.91,0.27
0.25,0.9,0.25
0.26,0.91,0.23
0.26,0.93,0.24
0.27,0.93,0.24
0.28,0.92,0.24
0.27,0.91,0.24
0.26,0.89,0.25
0.3,0.9,0.25
0.3,0.92,0.24
0.27,0.91,0.23
0.27,0.9,0.24
0.26,0.91,0.23
0.27,0.92,0.23
0.27,0.92,0.24
0.27,0.91,0.24
0.27,0.91,0.23
0.27,0.91,0.23
0.28,0.91,0.22
0.27,0.92,0.26
0.29,0.91,0.22
0.28,0.91,0.19
0.3,0.91,0.2
0.29,0.91,0.21
0.29,0.91,0.2
0.3,0.91,0.2
0.3,0.91,0.2
0.29,0.9,0.21
0.29,0.9,0.21
0.28,0.92,0.21
0.27,0.92,0.21
0.3,0.91,0.19
0.31,0.92,0.19
0.3,0.92,0.2
0.31,0.91,0.2
0.31,0.91,0.2
0.31,0.91,0.19
0.32,0.92,0.19
0.32,0.91,0.19
0.3,0.91,0.18
0.3,0.91,0.17
0.32,0.92,0.17
0.33,0.92,0.16
0.33,0.93,0.16
0.33,0.92,0.17
0.31,0.91,0.18
0.32,0.92,0.17
0.32,0.92,0.17
0.32,0.91,0.17
0.32,0.92,0.17
0.32,0.92,0.17
0.31,0.91,0.17
0.32,0.91,0.16
0.32,0.91,0.17
0.32,0.9,0.17
0.32,0.91,0.16
0.34,0.91,0.13
0.37,0.93,0.13
0.35,0.92,0.15
0.32,0.89,0.14
0.34,0.9,0.13
0.35,0.91,0.13
0.33,0.91,0.13
0.34,0.91,0.13
0.34,0.91,0.13
0.34,0.92,0.12
0.34,0.92,0.12
0.34,0.92,0.12
0.34,0.91,0.13
0.34,0.91,0.13
0.34,0.91,0.13
0.34,0.9,0.13
0.33,0.91,0.14
0.33,0.91,0.14
0.34,0.91,0.14
0.34,0.91,0.14
0.34,0.91,0.14
0.34,0.91,0.14
0.33,0.91,0.13
0.33,0.92,0.12
0.33,0.92,0.12
0.33,0.92,0.13
0.33,0.91,0.13
0.34,0.91,0.12
0.34,0.9,0.12
0.34,0.91,0.12
0.33,0.91,0.12
0.32,0.91,0.11
0.31,0.91,0.11
0.32,0.91,0.11
0.33,0.91,0.1
0.32,0.9,0.11
0.31,0.9,0.12
0.31,0.9,0.11
0.32,0.9,0.1
0.34,0.9,0.09
0.35,0.9,0.08
0.36,0.91,0.07
0.39,0.93,0.08
0.4,0.93,0.07
0.41,0.94,0.07
0.42,0.94,0.07
0.43,0.93,0.09
0.43,0.92,0.09
0.42,0.92,0.08
0.41,0.92,0.07
0.4,0.91,0.06
0.4,0.91,0.05
0.39,0.9,0.05
0.38,0.9,0.05
0.37,0.9,0.04
0.37,0.91,0.04
0.37,0.91,0.04
0.38,0.91,0.05
0.38,0.9,0.05
0.38,0.89,0.05
0.38,0.89,0.05
0.37,0.88,0.04
0.36,0.89,0.02
0.37,0.89,0.02
0.36,0.89,0.02
0.36,0.88,0.02
0.37,0.87,0.02
0.37,0.86,-0.01
0.39,0.85,0
0.39,0.83,0
0.37,0.83,-0.01
0.38,0.83,-0.01
0.37,0.82,0.01
0.36,0.79,0.01
0.36,0.78,0
0.35,0.77,0
0.35,0.76,-0.01
0.34,0.75,-0.02
0.33,0.76,-0.03
0.34,0.75,-0.04
0.35,0.74,-0.06
0.35,0.73,-0.07
0.34,0.73,-0.07
0.33,0.72,-0.07
0.31,0.71,-0.09
0.31,0.72,-0.11
0.33,0.74,-0.15
0.33,0.74,-0.18
0.33,0.73,-0.19
0.33,0.72,-0.2
0.36,0.68,-0.2
0.33,0.62,-0.19
0.3,0.6,-0.19
0.37,0.59,-0.21
0.39,0.62,-0.28
0.4,0.66,-0.32
0.5,0.67,-0.35
0.52,0.66,-0.37
0.46,0.63,-0.43
0.46,0.62,-0.46
0.45,0.62,-0.46
0.49,0.63,-0.45
0.41,0.59,-0.39
0.4,0.55,-0.39
0.46,0.56,-0.45
0.46,0.56,-0.46
0.54,0.55,-0.47
0.61,0.56,-0.53
0.65,0.57,-0.55
0.66,0.57,-0.56
0.67,0.54,-0.6
0.72,0.52,-0.65
0.82,0.54,-0.67
0.81,0.56,-0.68
0.76,0.53,-0.66
0.8,0.5,-0.67
0.83,0.54,-0.72
0.8,0.56,-0.73
0.79,0.52,-0.73
0.83,0.52,-0.75
0.84,0.52,-0.75
0.93,0.51,-0.74
0.94,0.48,-0.76
1.02,0.49,-0.79
1.06,0.49,-0.81
1.06,0.49,-0.81
1.07,0.5,-0.81
1.01,0.51,-0.84
0.95,0.51,-0.79
1.02,0.47,-0.75
1.05,0.46,-0.75
0.98,0.49,-0.66
1.05,0.43,-0.61
1.12,0.4,-0.62
0.97,0.4,-0.57
0.87,0.34,-0.5
1.02,0.33,-0.49
0.99,0.3,-0.43
0.9,0.22,-0.31
0.97,0.16,-0.26
1.12,0.08,-0.27
1.05,0.01,-0.21
0.81,0.04,-0.13
0.88,0.04,-0.08
0.87,-0.06,-0.08
0.91,-0.11,-0.01
1.12,-0.04,0.14
0.9,-0.08,0.19
0.92,-0.2,0.22
1.34,-0.27,0.25
1.22,-0.17,0.22
0.84,-0.2,0.33
0.93,-0.31,0.46
1.13,-0.26,0.47
1.15,-0.12,0.49
0.99,-0.14,0.53
0.91,-0.22,0.57
1.11,-0.22,0.6
1.17,-0.14,0.61
1.02,-0.16,0.61
0.99,-0.19,0.58
1.01,-0.14,0.48
0.94,-0.11,0.45
0.9,-0.13,0.51
0.9,-0.13,0.53
0.9,-0.11,0.52
0.92,-0.1,0.49
0.93,-0.11,0.46
0.94,-0.13,0.44
0.91,-0.17,0.43
0.81,-0.21,0.44
0.71,-0.27,0.47
0.71,-0.32,0.51
0.54,-0.42,0.54
0.52,-0.49,0.56
0.5,-0.49,0.58
0.54,-0.52,0.6
0.61,-0.58,0.58
0.6,-0.62,0.61
0.58,-0.64,0.64
0.52,-0.68,0.61
0.48,-0.7,0.56
0.44,-0.69,0.56
0.39,-0.7,0.58
0.41,-0.72,0.58
0.43,-0.76,0.59
0.43,-0.76,0.61
0.34,-0.72,0.6
0.35,-0.72,0.55
0.41,-0.74,0.52
0.4,-0.74,0.52
0.44,-0.74,0.51
0.47,-0.75,0.49
0.49,-0.7,0.5
0.52,-0.61,0.55
0.62,-0.58,0.6
0.76,-0.58,0.7
0.89,-0.65,0.79
0.93,-0.67,0.78
0.74,-0.61,0.72
0.62,-0.65,0.64
0.44,-0.69,0.56
0.27,-0.73,0.49
0.17,-0.75,0.45
0.16,-0.81,0.39
0.17,-0.89,0.35
0.18,-0.97,0.37
0.23,-1.02,0.39
0.33,-1.05,0.36
0.41,-1.05,0.31
0.39,-1.02,0.28
0.37,-0.98,0.28
0.41,-0.95,0.28
0.43,-0.91,0.28
0.43,-0.85,0.29
0.46,-0.81,0.29
0.47,-0.81,0.24
0.48,-0.82,0.19
0.53,-0.85,0.18
0.52,-0.92,0.17
0.46,-0.93,0.19
0.43,-0.9,0.24
0.43,-0.88,0.26
0.43,-0.88,0.25
0.44,-0.87,0.24
0.47,-0.9,0.22
0.45,-0.93,0.21
0.43,-0.93,0.21
0.4,-0.91,0.2
0.39,-0.88,0.23
0.39,-0.89,0.24
0.37,-0.92,0.22
0.35,-0.9,0.25
0.37,-0.9,0.27
0.39,-0.93,0.3
0.41,-0.94,0.32
0.42,-0.91,0.31
0.46,-0.87,0.25
0.46,-0.85,0.19
0.44,-0.89,0.2
0.46,-0.92,0.2
0.47,-0.9,0.2
0.49,-0.91,0.19
0.53,-0.92,0.17
0.55,-0.9,0.14
0.55,-0.89,0.13
0.5,-0.89,0.14
0.4,-0.92,0.16
0.3,-0.95,0.17
0.29,-0.96,0.19
0.34,-0.96,0.19
0.43,-0.91,0.2
0.43,-0.9,0.22
0.39,-0.92,0.2
0.35,-0.95,0.2
0.34,-0.94,0.21
0.35,-0.93,0.21
0.35,-0.93,0.2
0.31,-0.94,0.18
0.3,-0.95,0.19
0.3,-0.96,0.19
0.32,-0.94,0.19
0.34,-0.94,0.18
0.32,-0.95,0.14
0.34,-0.96,0.13
0.34,-0.97,0.12
0.33,-0.96,0.12
0.31,-0.97,0.12
0.27,-0.97,0.13
0.27,-0.97,0.17
0.26,-0.98,0.16
0.26,-0.98,0.15
0.25,-0.99,0.12
0.24,-0.98,0.1
0.27,-0.99,0.12
0.26,-0.97,0.08
0.29,-0.97,0.07
0.3,-0.99,0.09
0.22,-0.99,0.1
0.2,-0.98,0.11
0.19,-0.99,0.09
0.18,-0.98,0.1
0.17,-0.98,0.14
0.15,-1,0.13
0.16,-1,0.13
0.18,-1,0.11
0.13,-1,0.09
0.12,-1.01,0.07
0.14,-1.01,0.06
0.1,-1.01,0.07
0.08,-1.01,0.07
0.07,-1,0.1
0.08,-0.99,0.13
0.09,-1.01,0.12
0.06,-1.01,0.08
0.04,-1.02,0.01
0.01,-1.02,0.01
0.03,-1.02,0.07
0.04,-1.02,0.09
0.02,-1.02,0.08
0.02,-1.02,0.07
0,-1.02,0.03
-0.01,-1.03,0.03
-0.01,-1.01,0.06
0.12,-1,0.08
0.15,-1,0.1
0.13,-1.02,0.08
0.07,-1.02,0.04
0.02,-1.02,0.01
-0.01,-1.03,0
-0.01,-1.02,0.02
0.01,-1.02,0.04
0.04,-1.01,0.06
0.07,-1.01,0.09
0.06,-1.02,0.11
0.02,-1.02,0.09
-0.02,-1.01,0.07
-0.02,-1.02,0.06
0.02,-1.02,0.06
0.06,-1.01,0.08
0.06,-1.01,0.09
0.05,-1.02,0.07
0.02,-1.02,0.06
0.02,-1.02,0.07
0.03,-1.01,0.08
0.03,-1,0.09
0.06,-1,0.1
0.1,-1.01,0.08
0.1,-1.01,0.08
0.07,-1.01,0.06
-0.02,-1.02,0.05
-0.01,-1.02,0.07
0.04,-1.03,0.08
0.08,-1.02,0.07
0.1,-1.01,0.08
0.08,-1.01,0.07
0.05,-1.01,0.06
0.03,-1.01,0.06
0.03,-1.01,0.08
0.04,-1.01,0.09
0.04,-1.01,0.09
0.03,-1,0.09
0.04,-1.01,0.09
0.04,-1.01,0.09
0.04,-1,0.1
0.07,-0.99,0.12
0.07,-0.99,0.13
0.07,-1.01,0.12
0.07,-1.01,0.1
0.07,-1.01,0.1
0.06,-1.02,0.12
0.05,-1.01,0.12
0.04,-1,0.12
0.06,-1,0.12
0.09,-1,0.12
0.1,-1,0.07
0.08,-1.03,0.06
0.08,-1.01,0.07
0.07,-1.01,0.09
0.06,-1.01,0.1
0.04,-1.01,0.1
0.04,-1.01,0.1
0.05,-1.02,0.09
0.06,-1.02,0.07
0.07,-1.02,0.06
0.07,-1.02,0.06
0.06,-1.01,0.08
0.06,-1.01,0.1
0.05,-1.01,0.09
0.04,-1.01,0.07
0.06,-1.02,0.07
0.07,-1.01,0.07
0.06,-1.01,0.08
0.05,-1.01,0.09
0.03,-1.01,0.1
0.02,-1.02,0.09
0.03,-1.02,0.08
0.05,-1.02,0.07
0.05,-1.02,0.06
0.05,-1.02,0.05
0.06,-1.02,0.07
0.05,-1.01,0.1
0.07,-1.01,0.11
0.09,-1,0.12
0.08,-1.01,0.11
0.06,-1.02,0.09
0.05,-1.02,0.08
0.05,-1.02,0.08
0.05,-1.01,0.08
0.05,-1.01,0.1
0.05,-1.01,0.11
0.05,-1.01,0.11
0.04,-1.01,0.1
0.04,-1.01,0.1
0.06,-1.02,0.1
0.07,-1.01,0.1
0.08,-1,0.12
0.1,-1.01,0.13
0.1,-1.01,0.12
0.1,-1.01,0.11
0.1,-1.01,0.11
0.08,-1.01,0.1
0.08,-1.01,0.11
0.08,-1,0.12
0.08,-1,0.14
0.07,-1.01,0.16
0.06,-1.01,0.16
0.07,-1,0.15
0.08,-1.01,0.14
0.08,-1.01,0.14
0.08,-1.01,0.15
0.07,-1,0.15
0.09,-1,0.16
0.09,-1,0.16
0.09,-1,0.15
0.11,-1,0.15
0.11,-1,0.16
0.1,-1,0.17
0.07,-1,0.19
0.06,-0.99,0.18
0.07,-0.99,0.19
0.1,-0.99,0.21
0.1,-0.99,0.19
0.1,-0.99,0.18
0.12,-0.99,0.19
0.09,-0.98,0.2
0.07,-0.99,0.22
0.06,-0.99,0.23
0.06,-1,0.24
0.08,-1,0.23
0.09,-0.98,0.21
0.1,-0.99,0.21
0.12,-0.99,0.22
0.11,-0.98,0.2
0.11,-0.98,0.23
0.1,-0.98,0.25
0.1,-0.98,0.26
0.1,-0.98,0.25
0.09,-0.98,0.25
0.07,-0.98,0.22
0.08,-0.99,0.2
0.08,-0.99,0.22
0.09,-0.98,0.23
0.1,-0.97,0.25
0.09,-0.95,0.28
0.06,-0.97,0.29
0.07,-0.98,0.29
0.1,-0.97,0.28
0.11,-0.97,0.27
0.12,-0.98,0.26
0.11,-0.98,0.24
0.11,-0.98,0.25
0.08,-0.97,0.26
0.06,-0.97,0.27
0.07,-0.97,0.29
0.06,-0.96,0.3
0.07,-0.97,0.3
0.08,-0.97,0.28
0.07,-0.97,0.26
0.06,-0.97,0.25
0.08,-0.96,0.27
0.1,-0.95,0.3
0.09,-0.96,0.3
0.08,-0.96,0.29
0.08,-0.97,0.27
0.07,-0.99,0.25
0.06,-1,0.23
0.05,-0.99,0.23
0.05,-0.99,0.24
0.05,-0.99,0.25
0.05,-0.98,0.25
0.05,-0.98,0.25
0.06,-0.99,0.24
0.06,-0.99,0.24
0.07,-0.98,0.26
0.09,-0.97,0.27
0.1,-0.97,0.27
0.11,-0.96,0.27
0.11,-0.96,0.27
0.11,-0.96,0.26
0.11,-0.97,0.26
0.09,-0.98,0.25
0.08,-0.98,0.24
0.08,-0.99,0.23
0.08,-0.99,0.21
0.09,-0.98,0.21
0.08,-1,0.19
0.07,-1,0.19
0.07,-1,0.18
0.07,-1,0.18
0.06,-0.99,0.19
0.08,-0.98,0.21
0.08,-0.97,0.21
0.06,-0.98,0.22
0.05,-0.99,0.2
0.05,-1,0.17
0.06,-1.01,0.14
0.07,-1.01,0.12
0.08,-1.01,0.11
0.1,-1.01,0.12
0.12,-0.99,0.14
0.12,-0.99,0.14
0.11,-0.99,0.14
0.08,-1,0.14
0.05,-1.02,0.11
0.03,-1.03,0.07
0.02,-1.03,0.05
0.03,-1.03,0.03
0.07,-1.03,0.04
0.11,-1.02,0.06
0.13,-1,0.06
0.1,-1.01,0.06
0.07,-1.02,0.05
0.02,-1.03,0.06
-0.02,-1.03,0.06
-0.02,-1.02,0.07
0.03,-1.01,0.1
0.08,-1.01,0.11
0.1,-1,0.09
0.09,-1,0.07
0.06,-1.01,0.03
0.06,-1.02,0.01
0.08,-1.02,0.02
0.08,-1.01,0.03
0.09,-1.01,0.03
0.1,-1.01,0.05
0.1,-1.01,0.06
0.09,-1.01,0.04
0.07,-1.01,0.02
0.07,-1.02,0.01
0.06,-1.02,0
0.07,-1.02,-0.02
0.09,-1.02,-0.02
0.11,-1.01,0
0.12,-1.01,0.01
0.11,-1.01,0.01
0.09,-1.01,0
0.08,-1.01,0
0.07,-1.01,0.02
0.08,-1.02,0.02
0.09,-1.02,-0.01
0.1,-1.01,-0.02
0.09,-1.01,0
0.09,-1.01,0.02
0.09,-1.01,0.02
0.08,-1.02,0.01
0.06,-1.02,0
0.06,-1.02,0
0.06,-1.02,0.01
0.06,-1.02,0
0.07,-1.02,0
0.08,-1.02,0.01
0.08,-1.02,0.02
0.08,-1.02,0.02
0.08,-1.02,0.02
0.07,-1.03,0.02
0.07,-1.02,0.01
0.09,-1.02,0.01
0.1,-1.02,0.01
0.08,-1.02,0.02
0.06,-1.03,0.03
0.06,-1.04,0.04
0.05,-1.02,0.04
0.02,-1.01,0.08
0.01,-1,0.12
0.09,-1.01,0.1
0.12,-1.01,0.08
0.15,-1.01,0.08
0.18,-0.99,0.09
0.17,-0.99,0.1
0.16,-0.99,0.12
0.13,-1,0.14
0.12,-1,0.16
0.11,-1,0.16
0.1,-1.02,0.13
0.11,-1.02,0.11
0.13,-1.02,0.1
0.13,-1.01,0.09
0.13,-1,0.11
0.13,-0.97,0.17
0.11,-0.96,0.23
0.1,-0.97,0.26
0.09,-0.97,0.26
0.09,-0.98,0.24
0.11,-0.99,0.2
0.12,-0.99,0.16
0.13,-1,0.15
0.16,-0.99,0.16
0.16,-0.98,0.17
0.14,-0.96,0.21
0.11,-0.95,0.27
0,-0.99,0.26
-0.02,-1,0.24
0,-1.01,0.22
0,-1.01,0.18
0,-1.01,0.15
-0.01,-1.01,0.14
-0.03,-1.02,0.15
-0.01,-1,0.18
0.06,-0.98,0.22
0.11,-0.97,0.24
0.15,-0.95,0.26
0.19,-0.95,0.27
0.22,-0.94,0.27
0.21,-0.94,0.26
0.15,-0.95,0.23
0.1,-0.98,0.22
0.08,-1,0.21
0.06,-1,0.19
0.04,-1,0.18
0.03,-1,0.19
0.04,-1,0.2
0.06,-1,0.21
0.07,-0.99,0.21
0.09,-0.97,0.22
0.11,-0.96,0.22
0.12,-0.96,0.22
0.12,-0.97,0.23
0.12,-0.98,0.22
0.11,-0.98,0.19
0.07,-0.99,0.17
0.04,-1,0.16
0.06,-1.01,0.14
0.09,-1.01,0.14
0.09,-1,0.14
0.08,-1,0.15
0.06,-1,0.16
0.05,-1,0.17
0.06,-1,0.17
0.07,-1.01,0.15
0.05,-1.02,0.11
0.05,-1.02,0.07
0.05,-1.02,0.06
0.05,-1.03,0.06
0.05,-1.02,0.07
0.06,-1.01,0.09
0.09,-1,0.1
0.11,-1,0.09
0.08,-1.01,0.07
0.06,-1.02,0.04
0.04,-1.03,0.02
0.03,-1.02,0.02
0.03,-1.02,0.04
0.03,-1.01,0.06
0.07,-1.01,0.06
0.07,-1.02,0.03
0.05,-1.03,0
-0.02,-1.04,-0.04
-0.05,-1.04,-0.05
0.04,-1.02,-0.02
0.13,-0.99,0.03
0.16,-0.99,0.06
0.13,-1.01,0.04
0.08,-1.01,-0.01
0.07,-1.02,-0.04
0.08,-1.03,-0.05
0.09,-1.02,-0.04
0.09,-1.02,-0.04
0.12,-1.02,-0.04
0.13,-1.01,-0.03
0.1,-1.01,-0.03
0.07,-1.01,-0.03
0.08,-1.02,-0.03
0.08,-1.03,-0.03
0.08,-1.02,-0.04
0.08,-1.01,-0.03
0.09,-1.01,0
0.09,-1.01,0.02
0.09,-1.01,0.02
0.07,-1.01,-0.03
0.04,-1.02,-0.05
0.06,-1.02,-0.06
0.07,-1.02,-0.07
0.08,-1.02,-0.07
0.09,-1.01,-0.06
0.1,-1.01,-0.05
0.1,-1.02,-0.04
0.08,-1.01,-0.05
0.06,-1.01,-0.06
0.06,-1.02,-0.05
0.06,-1.03,-0.05
0.05,-1.03,-0.05
0.05,-1.02,-0.05
0.05,-1.02,-0.04
0.06,-1.02,-0.03
0.08,-1.01,-0.03
0.09,-1.01,-0.04
0.09,-1.01,-0.04
0.07,-1.02,-0.03
0.06,-1.02,-0.03
0.05,-1.02,-0.02
0.07,-1.01,0.02
0.09,-1.01,0.05
0.1,-1.02,0.04
0.1,-1.03,0
0.09,-1.02,-0.04
0.09,-1.03,-0.01
0.09,-1.03,0.01
0.07,-1.02,0.02
0.04,-1.02,0.04
0.04,-1.02,0.07
0.04,-1.01,0.1
0.01,-1,0.1
0,-1.02,0.1
0.04,-1.03,0.09
0.08,-1.02,0.07
0.1,-1.01,0.05
0.09,-0.99,0.08
0.07,-1,0.12
0.06,-1.02,0.13
0.07,-1.01,0.15
0.05,-1,0.15
0.06,-1,0.15
0.1,-1,0.15
0.13,-1,0.13
0.14,-0.99,0.12
0.12,-1,0.12
0.1,-1.01,0.13
0.08,-1,0.15
0.06,-0.98,0.2
0.04,-0.97,0.22
0.04,-0.97,0.24
0.03,-0.98,0.22
0.01,-0.98,0.21
0.02,-0.99,0.22
0.02,-1,0.21
0.01,-0.99,0.21
0.04,-0.98,0.23
0.06,-0.98,0.24
0.08,-0.98,0.25
0.09,-0.98,0.24
0.11,-0.97,0.22
0.11,-0.97,0.21
0.09,-0.98,0.22
0.06,-1,0.22
0.02,-1,0.22
0.03,-0.98,0.23
0.07,-0.97,0.25
0.11,-0.96,0.26
0.12,-0.96,0.25
0.11,-0.97,0.24
0.12,-0.97,0.24
0.1,-0.97,0.24
0.08,-0.98,0.23
0.08,-0.98,0.22
0.07,-0.98,0.22
0.06,-0.98,0.24
0.06,-0.97,0.25
0.07,-0.98,0.25
0.07,-0.98,0.23
0.09,-0.97,0.21
0.11,-0.98,0.2
0.11,-0.98,0.19
0.12,-0.98,0.19
0.11,-0.98,0.2
0.09,-0.99,0.19
0.07,-1,0.17
0.05,-1.01,0.16
0.02,-1.01,0.13
0.03,-1.02,0.13
0.06,-1.01,0.13
0.08,-1.01,0.14
0.07,-1.01,0.14
0.08,-1,0.12
0.09,-1,0.11
0.07,-1.01,0.1
0.07,-1.02,0.08
0.08,-1.03,0.07
0.06,-1.04,0.07
0.05,-1.03,0.07
0.05,-1.03,0.06
0.04,-1.02,0.06
0.06,-1.01,0.07
0.1,-1.01,0.06
0.07,-1.02,0.05
0.05,-1.01,0.03
0.08,-1,0.05
0.13,-1.01,0.06
0.15,-1.01,0.04
0.11,-1.01,0.01
0.09,-1.02,-0.01
0.1,-1.02,0
0.09,-1.02,0.01
0.05,-1.02,0.02
0.04,-1.03,0.02
0.07,-1.03,0.01
0.09,-1.02,0.01
0.1,-1.02,-0.01
0.11,-1.02,-0.03
0.12,-1.03,-0.04
0.11,-1.03,-0.04
0.07,-1.02,-0.03
0.06,-1.01,-0.03
0.07,-1.01,0
0.08,-1.01,0.04
0.1,-1.01,0.05
0.12,-1.01,0.02
0.13,-1.01,-0.02
0.1,-1.01,-0.05
0.06,-1.02,-0.05
0.06,-1.02,-0.05
0.07,-1.02,-0.02
0.07,-1.02,-0.01
0.07,-1.02,-0.01
0.06,-1.02,-0.02
0.05,-1.02,-0.03
0.07,-1.02,-0.03
0.07,-1.02,-0.01
0.08,-1.02,0.03
0.08,-1.02,0.04
0.07,-1.01,0.03
0.06,-1.02,0.02
0.07,-1.02,0
0.08,-1.02,-0.01
0.09,-1.03,0
0.07,-1.02,0
0.06,-1.02,0.01
0.07,-1.02,0.04
0.07,-1.01,0.07
0.06,-1.02,0.1
0.07,-1.02,0.09
0.09,-1.01,0.07
0.08,-1.02,0.05
0.07,-1.01,0.05
0.08,-1.02,0.06
0.12,-1.01,0.06
0.12,-1.01,0.1
0.05,-1.01,0.1
0.05,-1.02,0.1
0.07,-1.02,0.11
0.1,-1.01,0.11
0.12,-1,0.12
0.13,-0.99,0.13
0.13,-0.98,0.14
0.11,-0.97,0.19
0.09,-0.98,0.21
0.08,-1.01,0.19
0.08,-1.01,0.16
0.1,-1.01,0.14
0.1,-1.01,0.12
0.1,-1.01,0.13
0.1,-1,0.15
0.1,-0.99,0.19
0.07,-0.98,0.22
0.06,-0.98,0.26
0.09,-0.96,0.28
0.14,-0.94,0.29
0.19,-0.94,0.3
0.23,-0.94,0.27
0.23,-0.96,0.25
0.18,-0.97,0.24
0.12,-0.98,0.24
0.09,-0.97,0.26
0.04,-0.97,0.29
0.02,-0.97,0.3
0.02,-0.98,0.29
0.01,-0.99,0.25
-0.01,-1,0.22
0.01,-1,0.22
0.02,-1,0.21
0,-1,0.22
0.06,-0.97,0.26
0.14,-0.95,0.29
0.16,-0.94,0.32
0.14,-0.94,0.31
0.12,-0.96,0.29
0.12,-0.98,0.28
0.12,-0.97,0.26
0.09,-0.97,0.24
0.04,-0.98,0.24
0.04,-0.98,0.28
0.08,-0.96,0.3
0.07,-0.96,0.3
0.03,-0.97,0.28
0.03,-0.98,0.26
0.08,-0.97,0.25
0.11,-0.95,0.27
0.11,-0.94,0.3
0.09,-0.95,0.29
0.07,-0.96,0.31
0.05,-0.96,0.29
0.09,-0.98,0.26
0.12,-0.97,0.24
0.12,-0.99,0.21
0.11,-0.99,0.19
0.1,-1,0.19
0.09,-1.01,0.2
0.09,-1,0.22
0.09,-0.98,0.22
0.08,-0.98,0.22
0.06,-1,0.21
0.07,-0.99,0.18
0.1,-0.98,0.17
0.13,-0.99,0.16
0.13,-1,0.16
0.12,-1,0.16
0.08,-1,0.16
0.05,-1,0.17
0.02,-1,0.17
0.01,-1.01,0.14
0.03,-1.02,0.11
0.06,-1.02,0.11
0.08,-1.02,0.11
0.07,-1.01,0.1
0.05,-1,0.12
0.1,-0.99,0.14
0.13,-1,0.16
0.13,-1,0.14
0.11,-1.01,0.09
0.07,-1.02,0.06
0.07,-1.03,0.05
0.07,-1.02,0.04
0.08,-1.02,0.05
0.09,-1.02,0.05
0.09,-1.02,0.04
0.09,-1.02,0.03
0.09,-1.02,0.04
0.09,-1.02,0.05
0.09,-1.02,0.06
0.09,-1.01,0.06
0.09,-1.01,0.07
0.1,-1.01,0.08
0.09,-1.01,0.08
0.08,-1.01,0.06
0.07,-1.01,0.03
0.09,-1.02,0.01
0.09,-1.02,0.01
0.08,-1.02,0.02
0.08,-1.02,0.01
0.08,-1.02,0
0.06,-1.02,0.03
0.06,-1.02,0.02
0.08,-1.02,0.02
0.09,-1.03,0.02
0.09,-1.02,0.02
0.08,-1.02,0.01
0.08,-1.02,0.01
0.08,-1.02,0.01
0.07,-1.01,0.03
0.06,-1,0.07
0.04,-1.01,0.1
0.04,-1.02,0.1
0.04,-1.02,0.08
0.05,-1.02,0.06
0.09,-1.01,0.05
0.13,-1.01,0.06
0.14,-1.01,0.06
0.12,-1.01,0.07
0.1,-1.01,0.09
0.07,-1.01,0.09
0.05,-1.02,0.09
0.05,-1.03,0.09
0.06,-1.02,0.09
0.06,-1.01,0.09
0.06,-1.02,0.1
0.07,-1.03,0.09
0.1,-1.02,0.09
0.08,-1,0.11
0.07,-1.01,0.13
0.07,-1.01,0.14
0.07,-1.01,0.14
0.06,-1.01,0.15
0.05,-1.01,0.15
0.07,-1.01,0.14
0.11,-1,0.15
0.11,-0.99,0.17
0.1,-0.99,0.18
0.09,-0.98,0.2
0.07,-0.99,0.21
0.07,-1.01,0.2
0.08,-0.99,0.22
0.07,-0.98,0.22
0.04,-1,0.2
0.04,-1.02,0.19
0.06,-1,0.16
0.08,-0.98,0.16
0.11,-0.97,0.2
0.16,-0.95,0.24
0.19,-0.94,0.29
0.21,-0.93,0.3
0.23,-0.93,0.3
0.2,-0.94,0.27
0.13,-0.97,0.26
0.1,-1,0.24
0.08,-0.99,0.24
0.07,-0.98,0.24
0.05,-0.97,0.25
0.03,-0.98,0.26
0.03,-0.98,0.28
0.04,-0.96,0.28
0.04,-0.97,0.27
0.04,-0.98,0.29
0.07,-0.96,0.29
0.13,-0.95,0.3
0.17,-0.95,0.3
0.17,-0.96,0.28
0.16,-0.96,0.25
0.14,-0.96,0.24
0.09,-0.98,0.24
0.02,-0.98,0.25
0.01,-0.98,0.27
0.04,-0.98,0.31
0.05,-0.96,0.31
0.07,-0.97,0.29
0.07,-0.98,0.25
0.06,-0.98,0.23
0.06,-0.99,0.21
0.09,-0.98,0.23
0.1,-0.96,0.26
0.11,-0.93,0.33
0.09,-0.94,0.32
0.09,-0.97,0.27
0.1,-0.99,0.21
0.11,-1,0.16
0.07,-1.02,0.13
0.05,-1.01,0.15
0.06,-1,0.2
0.07,-0.99,0.23
0.08,-0.98,0.26
0.08,-0.98,0.23
0.08,-1,0.19
0.08,-1.01,0.13
0.08,-1.02,0.11
0.06,-1.03,0.12
0.06,-1.03,0.14
0.04,-1.02,0.16
0.04,-1.01,0.18
0.04,-1,0.17
0.05,-0.99,0.16
0.09,-0.99,0.16
0.12,-0.98,0.16
0.13,-0.98,0.17
0.12,-1,0.16
0.06,-1.01,0.13
0.03,-1.02,0.09
0.04,-1.04,0.08
0.08,-1.03,0.1
0.1,-1.01,0.11
0.11,-1,0.12
0.11,-1,0.13
0.09,-1,0.14
0.08,-1,0.13
0.08,-1.01,0.12
0.08,-1.02,0.1
0.06,-1.03,0.06
0.05,-1.03,0.05
0.06,-1.02,0.05
0.07,-1.01,0.07
0.11,-1,0.1
0.13,-1,0.11
0.12,-1,0.1
0.08,-1.01,0.08
0.04,-1.02,0.06
0.04,-1.02,0.05
0.06,-1.03,0.06
0.08,-1.02,0.06
0.11,-1.01,0.07
0.13,-1,0.08
0.12,-1,0.08
0.1,-1.01,0.09
0.08,-1.01,0.08
0.05,-1.02,0.07
0.05,-1.01,0.08
0.08,-1.01,0.1
0.1,-1,0.13
0.11,-0.99,0.14
0.09,-1,0.14
0.07,-1.01,0.12
0.05,-1.02,0.1
0.04,-1.02,0.09
0.04,-1.02,0.08
0.05,-1.02,0.08
0.06,-1.01,0.1
0.09,-1,0.12
0.13,-0.99,0.14
0.13,-0.99,0.16
0.1,-0.99,0.15
0.07,-1.02,0.1
0.07,-1.04,0.05
0.07,-1.03,0.04
0.05,-1.03,0.06
0.04,-1.03,0.09
0.04,-1,0.13
0.04,-0.98,0.19
0.04,-0.99,0.22
0.09,-1,0.2
0.13,-0.98,0.18
0.12,-0.99,0.16
0.1,-1,0.15
0.12,-1,0.16
0.15,-0.99,0.18
0.15,-0.99,0.19
0.13,-1,0.18
0.11,-1,0.16
0.08,-1.01,0.16
0.07,-0.99,0.18
0.04,-0.99,0.2
0.02,-0.99,0.23
0.04,-0.99,0.25
0.07,-0.98,0.24
0.09,-0.98,0.23
0.11,-0.99,0.21
0.11,-0.99,0.19
0.11,-0.99,0.18
0.08,-0.99,0.2
0.04,-0.99,0.21
0.02,-0.98,0.24
0.04,-0.98,0.26
0.07,-0.97,0.27
0.08,-0.97,0.26
0.07,-0.98,0.24
0.06,-1,0.23
0.08,-0.99,0.22
0.09,-0.98,0.19
0.03,-1,0.21
0.06,-0.99,0.24
0.11,-0.96,0.26
0.1,-0.97,0.26
0.08,-0.98,0.26
0.08,-0.98,0.25
0.07,-0.98,0.24
0.03,-1,0.23
0.02,-0.99,0.22
0.04,-0.98,0.23
0.06,-1,0.24
0.06,-1,0.26
0.05,-0.98,0.26
0.06,-0.98,0.25
0.06,-0.98,0.24
0.06,-0.96,0.23
0.07,-0.95,0.23
0.08,-0.97,0.24
0.07,-0.98,0.27
0.05,-0.98,0.27
0.06,-0.98,0.27
0.07,-0.98,0.26
0.07,-0.99,0.24
0.07,-0.99,0.22
0.08,-0.98,0.2
0.07,-1,0.18
0.03,-1,0.22
0.04,-0.98,0.24
0.06,-0.98,0.24
0.09,-0.97,0.24
0.1,-0.97,0.24
0.11,-0.97,0.23
0.12,-0.96,0.21
0.11,-0.97,0.2
0.09,-0.99,0.2
0.07,-0.99,0.19
0.05,-1,0.2
0.04,-1,0.21
0.04,-1,0.21
0.05,-1,0.21
0.07,-1,0.18
0.07,-1.02,0.13
0.06,-1.02,0.12
0.05,-1.01,0.14
0.07,-1,0.17
0.1,-0.98,0.19
0.1,-0.98,0.18
0.09,-0.99,0.18
0.07,-1,0.14
0.05,-1.02,0.09
0.05,-1.02,0.07
0.09,-1.01,0.08
0.13,-1,0.12
0.08,-1.02,0.09
0.05,-1.03,0.08
0.07,-1.02,0.08
0.12,-1.01,0.08
0.15,-1,0.08
0.15,-1,0.06
0.11,-1.01,0.03
0.1,-1,0.04
0.11,-1,0.06
0.1,-1.01,0.08
0.11,-1.02,0.08
0.09,-1.02,0.05
0.09,-1.03,0.01
0.09,-1.03,-0.03
0.06,-1.03,-0.05
0.05,-1.03,-0.04
0.07,-1.02,0
0.09,-1.01,0.01
0.1,-1.01,0.03
0.1,-1.01,0.04
0.12,-1.01,0.01
0.13,-1.02,-0.01
0.11,-1.02,-0.01
0.09,-1.02,-0.02
0.08,-1.02,-0.03
0.08,-1.02,0.02
0.12,-1.02,0
0.13,-1.02,-0.02
0.12,-1.02,-0.03
0.09,-1.02,-0.04
0.06,-1.03,-0.04
0.06,-1.02,-0.02
0.07,-1.01,0.02
0.08,-1,0.06
0.07,-1.02,0.07
0.08,-1.02,0.04
0.09,-1.02,0.01
0.09,-1.03,-0.01
0.1,-1.02,-0.02
0.11,-1.02,-0.01
0.11,-1.02,0.02
0.11,-1.01,0.03
0.09,-1.01,0.06
0.06,-1,0.07
0.03,-1.01,0.06
0.03,-1.02,0.07
0.07,-1.02,0.07
0.08,-1.01,0.07
0.1,-1.01,0.08
0.11,-1,0.08
0.12,-1,0.09
0.11,-0.99,0.11
0.09,-1.01,0.1
0.07,-1.02,0.09
0.05,-1.02,0.08
0.05,-1.03,0.08
0.06,-1.03,0.09
0.06,-1.02,0.09
0.07,-1,0.11
0.08,-0.99,0.15
0.07,-0.99,0.19
0.07,-0.99,0.19
0.07,-0.99,0.18
0.06,-1.01,0.16
0.07,-1.01,0.15
0.07,-1.01,0.13
0.1,-1.01,0.13
0.11,-1,0.14
0.12,-0.98,0.17
0.13,-0.99,0.2
0.12,-0.99,0.21
0.11,-0.98,0.21
0.1,-0.99,0.22
0.09,-0.99,0.2
0.09,-0.99,0.19
0.1,-0.98,0.2
0.12,-0.97,0.21
0.1,-0.97,0.24
0.07,-0.99,0.23
0.08,-0.99,0.22
0.07,-1,0.2
0.06,-1,0.19
0.07,-0.99,0.2
0.1,-0.97,0.24
0.14,-0.95,0.29
0.14,-0.94,0.3
0.1,-0.95,0.29
0.06,-0.96,0.25
0.07,-0.98,0.23
0.09,-0.99,0.21
0.12,-0.98,0.2
0.14,-0.97,0.2
0.13,-0.98,0.19
0.06,-0.99,0.2
0.04,-0.99,0.23
0.06,-0.98,0.26
0.06,-0.97,0.27
0.08,-0.99,0.25
0.09,-1,0.19
0.08,-1.01,0.13
0.07,-1.03,0.09
0.06,-1.03,0.11
0.07,-1.01,0.15
0.1,-0.99,0.25
0.11,-0.97,0.24
0.1,-0.99,0.21
0.12,-0.99,0.13
0.1,-0.99,0.06
0.08,-1.03,0.06
0.01,-1.04,0.07
0.04,-1.02,0.14
0.13,-1.01,0.19
0.14,-0.99,0.17
0.16,-1,0.14
0.13,-1,0.04
0.1,-0.98,0.03
0.2,-0.98,0.11
0.27,-0.95,0.13
0.34,-0.93,0.16
0.39,-0.95,0.18
0.32,-0.95,0.16
0.27,-0.98,0.15
0.25,-1.01,0.06
0.19,-1,-0.09
0.25,-1,-0.16
0.38,-0.99,-0.12
0.41,-0.96,-0.01
0.4,-0.97,0.12
0.34,-0.96,0.2
0.29,-0.96,0.2
0.31,-1.01,-0.03
0.29,-0.99,-0.19
0.26,-0.97,-0.24
0.39,-0.96,-0.1
0.45,-0.95,0.05
0.4,-0.93,0.17
0.35,-0.94,0.27
0.33,-0.94,0.26
0.33,-0.95,0.17
0.36,-0.96,0.07
0.36,-0.97,-0.07
0.21,-0.97,-0.22
0.2,-0.99,-0.16
0.37,-0.99,0.02
0.5,-0.92,0.13
0.57,-0.87,0.2
0.53,-0.86,0.19
0.47,-0.9,0.17
0.45,-0.94,0.15
0.47,-0.93,0.09
0.49,-0.9,0.02
0.51,-0.9,-0.03
0.51,-0.91,-0.04
0.5,-0.9,-0.02
0.48,-0.91,0
0.45,-0.92,0.03
0.44,-0.92,0.09
0.5,-0.91,0.11
0.53,-0.91,0.11
0.53,-0.92,0.1
0.49,-0.92,0.05
0.45,-0.92,-0.01
0.47,-0.91,-0.05
0.48,-0.91,-0.11
0.44,-0.94,-0.08
0.48,-0.92,0.18
0.55,-0.86,0.36
0.53,-0.84,0.19
0.42,-0.91,0.01
0.36,-0.96,0.05
0.42,-0.94,0.12
0.49,-0.9,0.07
0.54,-0.89,0
0.59,-0.89,0.05
0.6,-0.9,0.13
0.56,-0.9,0.15
0.52,-0.92,0.14
0.52,-0.94,0.11
0.5,-0.93,0.06
0.46,-0.92,0.01
0.47,-0.91,0.04
0.61,-0.99,0.56
0.84,-0.48,0.75
0.82,-0.49,0.64
0.7,-0.49,0.51
0.66,-0.53,0.4
0.61,-0.58,0.41
0.63,-0.61,0.47
0.64,-0.62,0.47
0.58,-0.61,0.44
0.49,-0.59,0.43
0.43,-0.55,0.36
0.43,-0.53,0.23
0.48,-0.53,0.14
0.52,-0.54,0.09
0.54,-0.52,0.06
0.51,-0.48,0.06
0.5,-0.43,0.08
0.6,-0.38,0.14
0.76,-0.43,0.28
0.92,-0.57,0.41
1,-0.69,0.5
1,-0.74,0.52
0.98,-0.76,0.5
0.95,-0.74,0.45
0.94,-0.7,0.4
0.96,-0.62,0.38
0.97,-0.59,0.38
0.97,-0.62,0.33
1.01,-0.61,0.32
1,-0.6,0.33
0.95,-0.59,0.35
0.9,-0.55,0.37
0.87,-0.49,0.39
0.85,-0.44,0.39
0.86,-0.41,0.39
0.86,-0.42,0.39
0.82,-0.46,0.37
0.79,-0.47,0.36
0.76,-0.44,0.36
0.71,-0.42,0.37
0.66,-0.39,0.39
0.66,-0.36,0.42
0.73,-0.34,0.47
0.82,-0.35,0.52
0.84,-0.39,0.57
0.78,-0.43,0.6
0.69,-0.45,0.6
0.63,-0.47,0.58
0.6,-0.47,0.57
0.61,-0.46,0.58
0.63,-0.45,0.63
0.65,-0.43,0.69
0.68,-0.41,0.75
0.7,-0.4,0.78
0.68,-0.39,0.77
0.65,-0.38,0.75
0.6,-0.36,0.71
0.57,-0.35,0.68
0.56,-0.34,0.67
0.62,-0.37,0.69
0.69,-0.4,0.72
0.71,-0.42,0.72
0.71,-0.42,0.72
0.7,-0.42,0.7
0.7,-0.41,0.67
0.67,-0.41,0.63
0.62,-0.42,0.57
0.64,-0.4,0.53
0.71,-0.4,0.49
0.77,-0.38,0.45
0.82,-0.37,0.44
0.9,-0.43,0.45
1.05,-0.47,0.5
1.19,-0.45,0.56
1.21,-0.43,0.58
1.14,-0.43,0.63
1.03,-0.43,0.67
0.91,-0.42,0.71
0.77,-0.4,0.73
0.65,-0.4,0.66
0.52,-0.38,0.62
0.49,-0.38,0.57
0.48,-0.39,0.53
0.51,-0.4,0.52
0.54,-0.4,0.52
0.55,-0.39,0.53
0.53,-0.38,0.55
0.51,-0.37,0.58
0.52,-0.39,0.58
0.56,-0.4,0.59
0.62,-0.4,0.6
0.73,-0.41,0.61
0.9,-0.43,0.65
1.11,-0.47,0.74
1.3,-0.51,0.79
1.36,-0.55,0.76
1.25,-0.55,0.72
1.05,-0.51,0.68
0.85,-0.48,0.67
0.73,-0.45,0.67
0.69,-0.41,0.67
0.68,-0.41,0.66
0.7,-0.44,0.64
0.77,-0.49,0.62
0.86,-0.51,0.65
0.93,-0.51,0.71
0.98,-0.56,0.73
0.99,-0.54,0.73
0.97,-0.52,0.7
0.92,-0.52,0.68
0.9,-0.5,0.7
0.93,-0.49,0.71
0.97,-0.47,0.71
1.01,-0.44,0.68
1.02,-0.41,0.65
1.01,-0.37,0.66
0.99,-0.32,0.64
0.96,-0.27,0.64
0.93,-0.25,0.61
0.9,-0.23,0.56
0.92,-0.21,0.5
0.97,-0.16,0.45
0.96,-0.11,0.44
0.88,-0.07,0.42
0.8,-0.03,0.44
0.74,0.03,0.47
0.74,0.06,0.47
0.8,0.08,0.45
0.81,0.12,0.46
0.76,0.15,0.47
0.75,0.17,0.45
0.79,0.18,0.43
0.74,0.18,0.42
0.72,0.2,0.42
0.73,0.24,0.4
0.79,0.24,0.33
0.84,0.24,0.27
0.85,0.26,0.22
0.88,0.27,0.18
0.89,0.27,0.15
0.91,0.28,0.11
0.92,0.29,0.07
0.83,0.3,0.08
0.79,0.32,0.05
0.89,0.35,0.01
0.92,0.35,0
0.88,0.32,-0.04
0.93,0.36,-0.07
0.9,0.4,-0.08
0.86,0.41,-0.09
0.86,0.4,-0.1
0.87,0.42,-0.11
0.87,0.44,-0.13
0.87,0.45,-0.13
0.88,0.45,-0.12
0.87,0.46,-0.15
0.92,0.48,-0.15
0.92,0.48,-0.14
0.88,0.5,-0.17
0.99,0.53,-0.17
0.98,0.55,-0.15
0.9,0.54,-0.15
0.95,0.56,-0.16
1,0.59,-0.21
0.97,0.59,-0.24
0.91,0.61,-0.23
0.84,0.61,-0.24
0.81,0.61,-0.25
0.85,0.63,-0.29
0.86,0.64,-0.3
0.82,0.65,-0.28
0.77,0.67,-0.26
0.75,0.69,-0.25
0.71,0.69,-0.26
0.71,0.69,-0.27
0.73,0.7,-0.28
0.72,0.71,-0.27
0.69,0.71,-0.26
0.66,0.7,-0.28
0.62,0.72,-0.32
0.59,0.74,-0.36
0.5,0.71,-0.44
0.49,0.71,-0.48
0.6,0.72,-0.45
0.62,0.72,-0.5
0.46,0.71,-0.55
0.47,0.7,-0.55
0.45,0.71,-0.55
0.42,0.72,-0.55
0.41,0.73,-0.55
0.44,0.74,-0.57
0.42,0.73,-0.55
0.34,0.7,-0.48
0.32,0.68,-0.43
0.35,0.7,-0.42
0.33,0.71,-0.43
0.31,0.72,-0.4
0.32,0.69,-0.33
0.31,0.65,-0.26
0.29,0.64,-0.24
0.28,0.65,-0.32
0.29,0.7,-0.47
0.26,0.75,-0.6
0.25,0.78,-0.64
0.25,0.79,-0.6
0.27,0.8,-0.5
0.32,0.78,-0.39
0.36,0.77,-0.3
0.4,0.79,-0.25
0.34,0.79,-0.24
0.27,0.86,-0.2
0.41,0.89,-0.21
0.44,0.92,-0.21
0.27,0.88,-0.16
0.21,0.88,-0.09
0.27,0.89,-0.04
0.33,0.91,0
0.25,0.93,0.02
0.22,0.9,0.06
0.25,0.9,0.06
0.15,0.88,0.09
0.11,0.86,0.16
0.2,0.89,0.14
0.17,0.89,0.11
0.12,0.89,0.14
0.1,0.86,0.19
0.11,0.83,0.25
0.09,0.86,0.31
0.04,0.85,0.36
0,0.85,0.37
-0.03,0.85,0.38
-0.03,0.85,0.4
-0.09,0.88,0.44
-0.15,0.88,0.42
-0.14,0.87,0.37
-0.1,0.87,0.36
-0.08,0.87,0.46
-0.08,0.9,0.51
-0.07,0.91,0.53
-0.02,0.92,0.54
0.02,0.95,0.56
0.03,0.97,0.6
0.01,0.99,0.62
-0.02,0.99,0.63
-0.05,0.98,0.64
-0.07,0.98,0.64
-0.09,0.99,0.63
-0.11,0.98,0.63
-0.13,0.99,0.61
-0.16,0.99,0.59
-0.19,0.99,0.57
-0.2,0.98,0.56
-0.2,0.97,0.55
-0.21,0.95,0.52
-0.22,0.93,0.48
-0.24,0.93,0.46
-0.26,0.91,0.43
-0.26,0.89,0.4
-0.26,0.88,0.39
-0.26,0.86,0.38
-0.26,0.84,0.37
-0.27,0.83,0.35
-0.28,0.82,0.33
-0.31,0.79,0.32
-0.33,0.78,0.32
-0.34,0.76,0.32
-0.36,0.75,0.31
-0.36,0.74,0.3
-0.36,0.74,0.29
-0.35,0.74,0.29
-0.35,0.73,0.29
-0.36,0.73,0.31
-0.36,0.73,0.3
-0.36,0.73,0.3
-0.35,0.74,0.3
-0.34,0.74,0.32
-0.34,0.74,0.33
-0.34,0.74,0.33
-0.34,0.75,0.31
-0.34,0.75,0.3
-0.35,0.75,0.31
-0.35,0.75,0.34
-0.33,0.73,0.36
-0.31,0.73,0.36
-0.29,0.74,0.37
-0.29,0.76,0.37
-0.29,0.77,0.37
-0.3,0.79,0.37
-0.32,0.8,0.36
-0.31,0.82,0.37
-0.31,0.83,0.38
-0.31,0.83,0.38
-0.31,0.83,0.38
-0.33,0.83,0.38
-0.35,0.84,0.37
-0.34,0.85,0.36
-0.33,0.87,0.35
-0.35,0.88,0.34
-0.36,0.88,0.34
-0.34,0.89,0.34
-0.33,0.89,0.36
-0.32,0.89,0.38
-0.32,0.91,0.4
-0.31,0.92,0.39
-0.3,0.92,0.38
-0.3,0.91,0.37
-0.31,0.91,0.38
-0.29,0.91,0.38
-0.28,0.9,0.39
-0.27,0.9,0.39
-0.27,0.89,0.39
-0.27,0.87,0.39
-0.26,0.86,0.4
-0.25,0.87,0.39
-0.25,0.87,0.37
-0.26,0.85,0.36
-0.25,0.84,0.36
-0.24,0.83,0.36
-0.25,0.83,0.36
-0.26,0.82,0.38
-0.29,0.83,0.42
-0.31,0.84,0.43
-0.31,0.84,0.42
-0.31,0.84,0.4
-0.32,0.84,0.38
-0.32,0.86,0.35
-0.32,0.87,0.33
-0.32,0.87,0.33
-0.31,0.88,0.34
-0.31,0.89,0.36
-0.29,0.89,0.39
-0.27,0.9,0.41
-0.26,0.9,0.44
-0.25,0.92,0.46
-0.26,0.93,0.47
-0.26,0.94,0.46
-0.27,0.95,0.46
-0.26,0.95,0.46
-0.25,0.96,0.47
-0.22,0.96,0.49
-0.2,0.97,0.5
-0.17,0.98,0.54
-0.15,0.99,0.55
-0.15,1.01,0.55
-0.14,1.02,0.54
-0.22,1.02,0.52
-0.22,1,0.54
-0.11,1.01,0.57
-0.13,1.03,0.55
-0.19,1.01,0.53
-0.22,0.97,0.53
-0.19,0.96,0.53
-0.18,0.94,0.54
-0.19,0.91,0.53
-0.22,0.88,0.52
-0.26,0.85,0.53
-0.31,0.78,0.52
-0.28,0.77,0.5
-0.22,0.83,0.5
-0.24,0.79,0.53
-0.23,0.73,0.58
-0.21,0.72,0.65
-0.2,0.71,0.7
-0.18,0.69,0.72
-0.18,0.66,0.75
-0.16,0.64,0.77
-0.14,0.62,0.78
-0.14,0.62,0.79
-0.14,0.62,0.78
-0.14,0.61,0.75
-0.16,0.6,0.7
-0.2,0.57,0.66
-0.22,0.55,0.64
-0.24,0.55,0.64
-0.26,0.54,0.65
-0.26,0.54,0.67
-0.19,0.54,0.66
-0.14,0.53,0.66
-0.18,0.52,0.69
-0.21,0.51,0.72
-0.23,0.51,0.75
-0.22,0.5,0.77
-0.2,0.51,0.81
-0.21,0.52,0.83
-0.24,0.49,0.83
-0.25,0.47,0.87
-0.28,0.46,0.91
-0.27,0.45,0.93
-0.16,0.44,0.96
-0.07,0.42,0.96
-0.04,0.38,0.9
-0.03,0.42,0.83
-0.05,0.47,0.77
-0.05,0.51,0.7
-0.01,0.52,0.73
0.01,0.48,0.78
0.02,0.45,0.78
0.16,0.44,0.76
0.32,0.41,0.79
0.17,0.44,0.89
-0.04,0.46,0.89
-0.03,0.38,0.8
-0.16,0.18,0.86
-0.38,0.35,1.03
0.06,0.65,0.95
0.67,0.54,1.03
0.14,0.39,1.39
0.14,0.38,1.34
1.17,0.43,0.68
1.54,0.5,0.03
1.25,0.59,-0.18
0.82,0.62,-0.18
0.57,0.58,-0.23
0.36,0.56,-0.28
0.16,0.58,-0.24
0.03,0.6,-0.15
-0.01,0.57,-0.04
0.03,0.52,0.06
0.12,0.49,0.13
0.19,0.49,0.14
0.26,0.47,0.12
0.28,0.49,0.09
0.29,0.53,0.04
0.32,0.56,0.02
0.37,0.56,0.04
0.41,0.52,0.07
0.44,0.48,0.1
0.47,0.46,0.12
0.45,0.48,0.16
0.43,0.54,0.2
0.43,0.63,0.21
0.39,0.7,0.21
0.37,0.72,0.22
0.36,0.71,0.23
0.33,0.67,0.25
0.37,0.64,0.29
0.45,0.65,0.32
0.51,0.69,0.32
0.56,0.78,0.29
0.6,0.86,0.26
0.62,0.89,0.25
0.64,0.87,0.21
0.67,0.85,0.15
0.72,0.83,0.1
0.74,0.79,0.17
0.75,0.71,0.35
0.94,0.7,0.32
1.03,0.72,0.3
1.09,0.74,0.25
1.09,0.78,0.21
1.03,0.82,0.23
0.99,0.83,0.23
1.03,0.82,0.23
1.07,0.82,0.28
1.03,0.81,0.32
1.03,0.81,0.37
1.09,0.81,0.4
1.11,0.83,0.39
1.09,0.85,0.34
1.08,0.87,0.27
1.07,0.88,0.26
1.07,0.89,0.24
1.08,0.9,0.22
1.09,0.91,0.21
1.09,0.92,0.19
1.04,0.92,0.13
0.97,0.92,0.08
0.96,0.9,0.07
0.97,0.87,0.06
1.01,0.86,0.03
1.03,0.85,-0.03
1.01,0.85,-0.08
0.96,0.81,-0.1
0.93,0.81,-0.1
0.97,0.9,-0.14
0.9,0.81,-0.06
0.82,0.65,-0.12
0.86,0.75,-0.23
0.85,0.77,-0.16
0.81,0.7,-0.2
0.73,0.76,0.09
0.69,0.66,-0.16
0.8,0.78,-0.57
0.75,0.88,-0.17
0.65,0.56,-0.11
0.72,0.58,-0.22
0.7,0.73,-0.15
0.69,0.65,-0.13
0.7,0.6,-0.15
0.67,0.62,-0.16
0.68,0.61,-0.13
0.69,0.59,-0.13
0.68,0.6,-0.18
0.68,0.61,-0.18
0.69,0.59,-0.14
0.7,0.56,-0.12
0.73,0.55,-0.12
0.75,0.56,-0.12
0.76,0.55,-0.18
0.74,0.54,-0.18
0.72,0.54,-0.19
0.75,0.55,-0.2
0.75,0.55,-0.18
0.78,0.53,-0.19
0.78,0.5,-0.21
0.73,0.48,-0.24
0.74,0.46,-0.27
0.78,0.44,-0.3
0.83,0.42,-0.31
0.83,0.39,-0.33
0.83,0.37,-0.36
0.85,0.35,-0.37
0.89,0.33,-0.36
0.91,0.31,-0.34
0.9,0.29,-0.34
0.9,0.28,-0.32
0.91,0.26,-0.31
0.92,0.25,-0.32
0.92,0.24,-0.3
0.93,0.23,-0.26
0.96,0.21,-0.23
0.99,0.19,-0.2
1.03,0.19,-0.16
1.1,0.17,-0.08
1.17,0.13,0.09
1.3,0.11,0.22
1.38,0.11,0.34
1.42,0.13,0.42
1.34,0.18,0.35
1.28,0.23,0.27
1.29,0.26,0.31
1.28,0.26,0.38
1.26,0.27,0.44
1.21,0.28,0.5
1.18,0.28,0.58
1.14,0.28,0.63
1.11,0.24,0.66
1.15,0.25,0.66
1.17,0.29,0.61
1.15,0.29,0.55
1.13,0.29,0.49
1.09,0.28,0.42
1.04,0.28,0.38
0.96,0.29,0.39
0.89,0.27,0.36
0.87,0.26,0.33
0.9,0.25,0.3
0.95,0.25,0.26
1.03,0.24,0.21
1.13,0.23,0.13
1.14,0.28,0.02
1.03,0.28,-0.05
1.03,0.26,-0.1
1.06,0.29,-0.15
1.06,0.34,-0.19
1.03,0.37,-0.21
1.03,0.38,-0.26
1.08,0.37,-0.27
1.08,0.38,-0.25
1.03,0.38,-0.26
0.99,0.39,-0.29
0.93,0.39,-0.3
0.89,0.38,-0.3
0.91,0.39,-0.33
0.93,0.4,-0.37
0.9,0.39,-0.41
0.86,0.37,-0.44
0.84,0.4,-0.43
0.79,0.43,-0.44
0.76,0.42,-0.46
0.72,0.41,-0.47
0.7,0.42,-0.47
0.68,0.43,-0.48
0.62,0.44,-0.5
0.56,0.44,-0.52
0.53,0.45,-0.51
0.49,0.45,-0.51
0.45,0.49,-0.51
0.42,0.51,-0.52
0.44,0.5,-0.54
0.47,0.51,-0.56
0.51,0.51,-0.59
0.5,0.51,-0.61
0.49,0.54,-0.62
0.48,0.55,-0.63
0.48,0.54,-0.64
0.47,0.53,-0.64
0.42,0.55,-0.65
0.37,0.56,-0.65
0.37,0.56,-0.63
0.38,0.56,-0.65
0.38,0.58,-0.69
0.37,0.58,-0.69
0.37,0.57,-0.69
0.39,0.59,-0.71
0.39,0.6,-0.72
0.4,0.6,-0.73
0.4,0.59,-0.74
0.4,0.59,-0.75
0.39,0.61,-0.76
0.36,0.61,-0.79
0.36,0.6,-0.79
0.38,0.61,-0.75
0.32,0.6,-0.75
0.31,0.59,-0.75
0.32,0.59,-0.76
0.32,0.59,-0.76
0.32,0.59,-0.78
0.35,0.58,-0.82
0.37,0.58,-0.85
0.39,0.58,-0.85
0.39,0.59,-0.82
0.39,0.57,-0.76
0.44,0.53,-0.69
0.46,0.56,-0.72
0.3,0.58,-0.86
0.31,0.56,-0.93
0.39,0.62,-0.91
0.28,0.62,-0.89
0.32,0.59,-0.88
0.38,0.59,-0.84
0.36,0.57,-0.75
0.35,0.57,-0.7
0.31,0.56,-0.69
0.28,0.56,-0.7
0.23,0.56,-0.7
0.22,0.57,-0.7
0.27,0.57,-0.75
0.31,0.56,-0.85
0.39,0.56,-0.87
0.42,0.57,-0.87
0.42,0.57,-0.83
0.36,0.55,-0.79
0.3,0.55,-0.74
0.19,0.56,-0.62
0.01,0.57,-0.53
0.1,0.56,-0.65
0.34,0.56,-0.79
0.39,0.57,-0.81
0.43,0.59,-0.8
0.49,0.59,-0.82
0.53,0.59,-0.84
0.5,0.6,-0.82
0.39,0.6,-0.78
0.3,0.6,-0.71
0.27,0.59,-0.68
0.29,0.58,-0.66
0.29,0.57,-0.63
0.37,0.57,-0.61
0.5,0.56,-0.63
0.59,0.55,-0.64
0.59,0.57,-0.62
0.56,0.56,-0.59
0.54,0.55,-0.56
0.52,0.55,-0.54
0.56,0.53,-0.54
0.54,0.52,-0.51
0.62,0.51,-0.51
0.72,0.49,-0.49
0.79,0.49,-0.45
0.84,0.48,-0.45
0.86,0.5,-0.45
0.82,0.5,-0.46
0.79,0.47,-0.45
0.81,0.48,-0.44
0.79,0.47,-0.41
0.8,0.46,-0.37
0.81,0.44,-0.3
0.85,0.42,-0.25
0.94,0.4,-0.23
1,0.4,-0.22
1.03,0.41,-0.23
0.97,0.4,-0.24
0.86,0.39,-0.25
0.84,0.4,-0.26
0.87,0.4,-0.25
0.85,0.39,-0.19
0.86,0.39,-0.12
0.92,0.39,-0.11
0.95,0.38,-0.13
0.93,0.37,-0.14
0.92,0.36,-0.17
0.95,0.36,-0.21
0.91,0.35,-0.23
0.9,0.36,-0.21
0.94,0.36,-0.17
1,0.35,-0.11
1.05,0.35,-0.07
1.06,0.35,-0.06
1.04,0.35,-0.06
1.02,0.38,-0.08
1.01,0.37,-0.09
0.99,0.35,-0.08
1,0.36,-0.03
1.02,0.35,0.01
1.01,0.35,-0.01
1.04,0.34,-0.03
1.05,0.34,0
1.03,0.35,0.05
1.02,0.35,0.05
1.01,0.35,0.03
0.99,0.35,0
0.98,0.35,-0.06
0.97,0.36,-0.16
0.91,0.36,-0.22
0.87,0.35,-0.21
0.86,0.36,-0.19
0.86,0.39,-0.1
0.88,0.38,-0.08
0.9,0.38,-0.05
0.92,0.38,-0.05
0.93,0.37,-0.1
0.97,0.37,-0.21
0.99,0.38,-0.3
0.92,0.39,-0.36
0.87,0.4,-0.4
0.88,0.41,-0.43
0.84,0.4,-0.36
0.84,0.42,-0.34
0.99,0.45,-0.49
1.05,0.44,-0.54
0.98,0.43,-0.5
0.95,0.43,-0.5
0.95,0.44,-0.52
0.92,0.44,-0.54
0.87,0.44,-0.54
0.79,0.46,-0.51
0.76,0.47,-0.48
0.77,0.47,-0.45
0.78,0.47,-0.43
0.79,0.47,-0.39
0.79,0.48,-0.36
0.79,0.49,-0.33
0.78,0.48,-0.29
0.77,0.5,-0.3
0.77,0.52,-0.27
0.72,0.53,-0.22
0.68,0.51,-0.18
0.7,0.49,-0.15
0.77,0.49,-0.15
0.85,0.51,-0.19
0.91,0.52,-0.22
0.91,0.52,-0.27
0.88,0.52,-0.3
0.84,0.53,-0.32
0.8,0.54,-0.31
0.79,0.54,-0.29
0.78,0.54,-0.3
0.77,0.54,-0.31
0.79,0.53,-0.32
0.79,0.52,-0.32
0.75,0.52,-0.31
0.72,0.52,-0.32
0.7,0.53,-0.35
0.67,0.55,-0.38
0.65,0.56,-0.39
0.66,0.56,-0.39
0.66,0.56,-0.4
0.64,0.57,-0.41
0.6,0.59,-0.56
0.61,0.63,-0.65
0.71,0.65,-0.61
0.74,0.63,-0.46
0.7,0.6,-0.4
0.64,0.6,-0.4
0.57,0.6,-0.39
0.56,0.6,-0.39
0.57,0.6,-0.38
0.56,0.62,-0.41
0.55,0.63,-0.42
0.57,0.64,-0.42
0.61,0.65,-0.43
0.62,0.65,-0.41
0.61,0.64,-0.39
0.59,0.63,-0.39
0.58,0.62,-0.39
0.6,0.61,-0.4
0.62,0.62,-0.42
0.65,0.63,-0.43
0.66,0.63,-0.42
0.66,0.63,-0.43
0.67,0.65,-0.38
0.68,0.64,-0.27
0.66,0.58,-0.26
0.67,0.57,-0.35
0.67,0.61,-0.47
0.67,0.61,-0.48
0.65,0.61,-0.52
0.64,0.61,-0.56
0.66,0.59,-0.61
0.66,0.58,-0.65
0.65,0.58,-0.61
0.63,0.54,-0.59
0.65,0.51,-0.59
0.66,0.52,-0.57
0.68,0.5,-0.55
0.71,0.46,-0.52
0.74,0.43,-0.49
0.77,0.43,-0.46
0.82,0.44,-0.44
0.86,0.42,-0.39
0.9,0.39,-0.32
0.94,0.39,-0.26
0.94,0.43,-0.24
0.9,0.47,-0.24
0.87,0.5,-0.28
0.86,0.5,-0.33
0.86,0.49,-0.37
0.86,0.47,-0.38
0.9,0.45,-0.4
0.97,0.44,-0.4
1.03,0.41,-0.38
1.12,0.39,-0.34
1.11,0.37,-0.28
1.1,0.38,-0.24
1.09,0.39,-0.21
1.09,0.39,-0.2
1.13,0.42,-0.18
0.98,0.45,-0.17
0.89,0.38,-0.15
1.03,0.37,-0.17
1.06,0.43,-0.21
1.05,0.4,-0.17
1.06,0.37,-0.14
1.08,0.36,-0.06
1.1,0.36,0.03
1.12,0.36,0.1
1.14,0.36,0.19
1.15,0.38,0.22
1.15,0.43,0.22
1.13,0.47,0.2
1.11,0.48,0.19
1.11,0.45,0.19
1.11,0.46,0.18
1.08,0.46,0.15
1.08,0.46,0.14
1.09,0.47,0.15
1.03,0.45,0.14
0.94,0.42,0.15
0.88,0.45,0.16
0.84,0.43,0.17
0.85,0.41,0.22
0.83,0.4,0.25
0.8,0.38,0.24
0.79,0.36,0.25
0.76,0.37,0.26
0.74,0.39,0.27
0.73,0.38,0.28
0.73,0.38,0.31
0.73,0.39,0.32
0.73,0.4,0.33
0.73,0.41,0.36
0.71,0.43,0.38
0.69,0.44,0.38
0.68,0.43,0.39
0.69,0.43,0.36
0.72,0.45,0.31
0.75,0.46,0.26
0.79,0.47,0.23
0.82,0.49,0.21
0.81,0.49,0.2
0.78,0.49,0.17
0.73,0.49,0.13
0.7,0.49,0.11
0.71,0.49,0.04
0.71,0.51,-0.01
0.71,0.52,-0.04
0.71,0.52,-0.08
0.7,0.52,-0.13
0.68,0.5,-0.19
0.73,0.5,-0.22
0.73,0.53,-0.25
0.7,0.54,-0.31
0.69,0.53,-0.37
0.72,0.54,-0.41
0.75,0.57,-0.43
0.73,0.58,-0.45
0.68,0.59,-0.45
0.65,0.59,-0.47
0.66,0.59,-0.49
0.64,0.6,-0.5
0.6,0.61,-0.51
0.57,0.61,-0.53
0.6,0.62,-0.57
0.64,0.63,-0.63
0.63,0.64,-0.64
0.57,0.66,-0.64
0.5,0.66,-0.65
0.47,0.67,-0.65
0.47,0.68,-0.64
0.46,0.69,-0.68
0.49,0.7,-0.7
0.48,0.71,-0.72
0.45,0.74,-0.74
0.5,0.74,-0.76
0.56,0.75,-0.76
0.49,0.77,-0.75
0.4,0.75,-0.74
0.41,0.74,-0.75
0.43,0.75,-0.76
0.41,0.76,-0.75
0.38,0.76,-0.76
0.37,0.77,-0.76
0.38,0.78,-0.74
0.37,0.78,-0.7
0.35,0.77,-0.65
0.3,0.77,-0.59
0.26,0.75,-0.51
0.26,0.72,-0.43
0.34,0.7,-0.38
0.42,0.67,-0.41
0.48,0.67,-0.5
0.48,0.67,-0.61
0.45,0.69,-0.73
0.43,0.7,-0.79
0.39,0.7,-0.78
0.37,0.69,-0.73
0.41,0.67,-0.72
0.45,0.69,-0.74
0.48,0.71,-0.74
0.48,0.74,-0.74
0.5,0.75,-0.73
0.5,0.78,-0.68
0.44,0.79,-0.62
0.43,0.75,-0.58
0.52,0.77,-0.52
0.46,0.76,-0.41
0.37,0.68,-0.29
0.37,0.62,-0.29
0.39,0.63,-0.27
0.6,0.71,-0.19
0.72,0.71,-0.16
0.7,0.72,-0.05
0.57,0.77,-0.08
0.47,0.72,-0.15
0.45,0.7,-0.14
0.39,0.65,-0.08
0.52,0.65,0.03
0.59,0.72,0.06
0.54,0.74,0.11
0.45,0.7,0.19
0.45,0.64,0.24
0.58,0.68,0.22
0.62,0.76,0.2
0.53,0.69,0.27
0.43,0.62,0.37
0.43,0.65,0.45
0.48,0.67,0.48
0.5,0.69,0.48
0.45,0.7,0.48
0.39,0.66,0.48
0.4,0.66,0.45
0.46,0.68,0.41
0.54,0.7,0.39
0.58,0.71,0.42
0.48,0.67,0.51
0.36,0.64,0.62
0.42,0.6,0.66
0.5,0.62,0.68
0.51,0.68,0.68
0.5,0.65,0.67
0.52,0.65,0.67
0.52,0.65,0.64
0.51,0.64,0.62
0.49,0.62,0.6
0.47,0.59,0.59
0.49,0.56,0.61
0.52,0.54,0.67
0.54,0.53,0.77
0.52,0.54,0.81
0.5,0.56,0.85
0.49,0.57,0.87
0.47,0.58,0.86
0.46,0.59,0.84
0.46,0.58,0.81
0.47,0.57,0.79
0.47,0.56,0.8
0.46,0.56,0.82
0.44,0.55,0.85
0.43,0.56,0.86
0.39,0.56,0.87
0.36,0.56,0.89
0.37,0.58,0.9
0.4,0.59,0.88
0.43,0.55,0.84
0.5,0.51,0.8
0.57,0.49,0.74
0.6,0.48,0.71
0.63,0.47,0.71
0.65,0.46,0.71
0.63,0.45,0.73
0.58,0.49,0.72
0.59,0.52,0.69
0.55,0.48,0.69
0.54,0.5,0.66
0.56,0.47,0.62
0.55,0.45,0.55
0.64,0.52,0.51
0.7,0.52,0.47
0.73,0.49,0.4
0.72,0.49,0.38
0.69,0.48,0.34
0.71,0.49,0.32
0.71,0.48,0.29
0.7,0.47,0.25
0.73,0.47,0.24
0.75,0.46,0.21
0.75,0.48,0.15
0.75,0.5,0.1
0.77,0.5,0.05
0.76,0.49,0.02
0.75,0.5,0.03
0.78,0.51,0.04
0.79,0.52,0.06
0.79,0.51,0.05
0.81,0.51,0
0.87,0.53,-0.06
0.87,0.54,-0.12
0.84,0.54,-0.19
0.83,0.55,-0.22
0.83,0.55,-0.26
0.78,0.58,-0.31
0.72,0.57,-0.32
0.72,0.57,-0.34
0.75,0.57,-0.36
0.73,0.59,-0.38
0.73,0.58,-0.39
0.77,0.55,-0.44
0.77,0.55,-0.48
0.73,0.55,-0.5
0.71,0.55,-0.51
0.73,0.56,-0.51
0.74,0.57,-0.51
0.73,0.56,-0.52
0.72,0.55,-0.54
0.69,0.55,-0.57
0.64,0.54,-0.61
0.6,0.55,-0.63
0.56,0.56,-0.65
0.52,0.56,-0.66
0.52,0.57,-0.67
0.56,0.58,-0.68
0.56,0.59,-0.69
0.54,0.59,-0.7
0.5,0.59,-0.7
0.47,0.6,-0.69
0.47,0.6,-0.7
0.48,0.61,-0.73
0.53,0.61,-0.72
0.53,0.58,-0.72
0.53,0.58,-0.7
0.5,0.57,-0.68
0.46,0.56,-0.68
0.43,0.55,-0.7
0.41,0.56,-0.73
0.41,0.57,-0.74
0.42,0.58,-0.73
0.43,0.59,-0.73
0.43,0.6,-0.74
0.44,0.61,-0.76
0.46,0.61,-0.78
0.45,0.61,-0.78
0.42,0.63,-0.75
0.41,0.64,-0.72
0.41,0.64,-0.7
0.42,0.64,-0.68
0.45,0.65,-0.66
0.46,0.66,-0.63
0.47,0.67,-0.61
0.49,0.67,-0.59
0.5,0.7,-0.6
0.53,0.71,-0.61
0.53,0.7,-0.61
0.49,0.71,-0.57
0.64,0.71,-0.54
0.59,0.72,-0.49
0.54,0.67,-0.39
0.56,0.65,-0.34
0.55,0.7,-0.34
0.64,0.7,-0.33
0.74,0.73,-0.27
0.63,0.66,-0.21
0.61,0.66,-0.24
0.58,0.71,-0.25
0.41,0.59,-0.17
0.55,0.63,-0.1
0.66,0.76,-0.05
0.58,0.72,0.04
0.51,0.66,0.15
0.67,0.69,0.22
0.81,0.74,0.2
0.64,0.74,0.21
0.54,0.71,0.31
0.54,0.7,0.36
0.53,0.69,0.36
0.59,0.69,0.39
0.57,0.75,0.41
0.45,0.73,0.42
0.41,0.69,0.46
0.48,0.7,0.42
0.4,0.7,0.43
0.49,0.68,0.41
0.53,0.68,0.38
0.55,0.66,0.38
0.56,0.64,0.42
0.56,0.64,0.46
0.58,0.64,0.52
0.58,0.66,0.61
0.54,0.68,0.66
0.51,0.67,0.65
0.52,0.68,0.63
0.52,0.68,0.58
0.5,0.66,0.54
0.51,0.64,0.51
0.54,0.63,0.49
0.56,0.62,0.5
0.57,0.61,0.53
0.56,0.61,0.59
0.54,0.62,0.66
0.52,0.63,0.71
0.5,0.64,0.73
0.49,0.64,0.71
0.51,0.65,0.67
0.56,0.65,0.63
0.59,0.65,0.61
0.58,0.65,0.61
0.56,0.62,0.58
0.6,0.6,0.56
0.64,0.58,0.54
0.66,0.6,0.52
0.69,0.64,0.5
0.72,0.63,0.48
0.73,0.63,0.46
0.73,0.64,0.45
0.71,0.63,0.48
0.68,0.63,0.5
0.69,0.63,0.48
0.74,0.65,0.44
0.79,0.65,0.4
0.76,0.61,0.37
0.71,0.59,0.36
0.71,0.6,0.34
0.73,0.61,0.3
0.74,0.6,0.27
0.74,0.59,0.24
0.75,0.59,0.22
0.77,0.59,0.2
0.77,0.59,0.15
0.8,0.59,0.12
0.81,0.59,0.07
0.8,0.59,0.06
0.77,0.59,0.05
0.78,0.59,0.02
0.7,0.58,-0.05
0.69,0.58,-0.07
0.79,0.6,-0.07
0.81,0.58,-0.11
0.8,0.58,-0.12
0.76,0.59,-0.15
0.75,0.6,-0.17
0.74,0.59,-0.21
0.73,0.59,-0.24
0.74,0.59,-0.26
0.75,0.61,-0.27
0.73,0.62,-0.28
0.7,0.61,-0.3
0.7,0.61,-0.3
0.7,0.62,-0.32
0.69,0.62,-0.35
0.68,0.61,-0.38
0.65,0.61,-0.39
0.61,0.61,-0.4
0.6,0.6,-0.41
0.63,0.61,-0.43
0.64,0.61,-0.45
0.6,0.6,-0.46
0.58,0.6,-0.47
0.57,0.61,-0.48
0.56,0.61,-0.51
0.56,0.62,-0.53
0.54,0.62,-0.53
0.54,0.63,-0.52
0.56,0.63,-0.52
0.54,0.63,-0.53
0.51,0.63,-0.53
0.51,0.63,-0.52
0.51,0.63,-0.53
0.53,0.63,-0.55
0.53,0.63,-0.6
0.51,0.64,-0.63
0.51,0.64,-0.65
0.5,0.64,-0.66
0.47,0.65,-0.67
0.46,0.64,-0.66
0.46,0.64,-0.65
0.46,0.63,-0.64
0.45,0.63,-0.63
0.45,0.63,-0.62
0.45,0.63,-0.63
0.46,0.63,-0.65
0.46,0.63,-0.69
0.44,0.64,-0.7
0.42,0.65,-0.71
0.41,0.65,-0.71
0.42,0.66,-0.69
0.43,0.66,-0.69
0.43,0.66,-0.69
0.42,0.66,-0.7
0.4,0.66,-0.7
0.4,0.66,-0.7
0.41,0.67,-0.71
0.39,0.67,-0.72
0.39,0.66,-0.72
0.4,0.66,-0.72
0.38,0.66,-0.71
0.36,0.65,-0.71
0.37,0.65,-0.7
0.37,0.64,-0.7
0.37,0.64,-0.71
0.37,0.64,-0.72
0.37,0.64,-0.72
0.36,0.64,-0.72
0.36,0.64,-0.7
0.37,0.64,-0.69
0.4,0.64,-0.69
0.43,0.65,-0.7
0.45,0.66,-0.69
0.46,0.67,-0.68
0.46,0.68,-0.67
0.48,0.68,-0.63
0.5,0.68,-0.62
0.54,0.7,-0.6
0.53,0.7,-0.59
0.54,0.71,-0.57
0.52,0.72,-0.53
0.55,0.72,-0.52
0.65,0.76,-0.5
0.54,0.73,-0.45
0.48,0.69,-0.42
0.56,0.73,-0.41
0.63,0.77,-0.39
0.58,0.75,-0.31
0.43,0.75,-0.24
0.6,0.74,-0.21
0.62,0.73,-0.24
0.54,0.7,-0.21
0.55,0.71,-0.14
0.39,0.66,-0.1
0.51,0.61,-0.03
0.65,0.69,0.04
0.57,0.71,0.09
0.44,0.64,0.17
0.49,0.6,0.25
0.66,0.69,0.24
0.55,0.75,0.24
0.42,0.67,0.3
0.48,0.7,0.38
0.57,0.74,0.37
0.51,0.7,0.38
0.53,0.65,0.38
0.58,0.67,0.38
0.61,0.68,0.36
0.62,0.66,0.38
0.63,0.63,0.44
0.65,0.64,0.48
0.68,0.66,0.49
0.71,0.66,0.49
0.67,0.66,0.48
0.62,0.63,0.46
0.64,0.64,0.46
0.66,0.64,0.46
0.63,0.62,0.46
0.64,0.6,0.47
0.65,0.59,0.51
0.64,0.58,0.55
0.65,0.57,0.57
0.66,0.58,0.58
0.65,0.58,0.59
0.65,0.58,0.58
0.64,0.56,0.58
0.62,0.54,0.57
0.63,0.54,0.55
0.63,0.52,0.55
0.64,0.51,0.54
0.64,0.5,0.55
0.65,0.49,0.56
0.66,0.48,0.56
0.65,0.47,0.56
0.65,0.46,0.57
0.64,0.45,0.61
0.65,0.45,0.65
0.65,0.46,0.73
0.65,0.47,0.74
0.64,0.48,0.75
0.64,0.49,0.74
0.63,0.49,0.73
0.64,0.5,0.73
0.64,0.51,0.74
0.64,0.5,0.75
0.68,0.49,0.77
0.72,0.5,0.79
0.73,0.5,0.82
0.73,0.52,0.86
0.71,0.53,0.86
0.67,0.54,0.83
0.65,0.53,0.81
0.67,0.52,0.73
0.73,0.5,0.55
0.74,0.43,0.48
0.8,0.45,0.43
0.82,0.47,0.42
0.8,0.45,0.43
0.76,0.43,0.47
0.78,0.46,0.48
0.89,0.55,0.46
0.91,0.53,0.48
0.81,0.46,0.48
0.75,0.46,0.44
0.78,0.48,0.4
0.84,0.52,0.33
0.88,0.53,0.17
0.87,0.5,0.15
0.85,0.49,0.2
0.84,0.48,0.15
0.86,0.48,0.13
0.88,0.47,0.11
0.88,0.48,0.08
0.87,0.49,0.03
0.84,0.49,0.01
0.84,0.49,-0.01
0.86,0.49,-0.06
0.87,0.49,-0.12
0.87,0.49,-0.16
0.81,0.5,-0.21
0.8,0.5,-0.23
0.78,0.48,-0.24
0.75,0.49,-0.24
0.78,0.51,-0.27
0.8,0.51,-0.31
0.76,0.51,-0.34
0.75,0.51,-0.36
0.75,0.51,-0.4
0.73,0.52,-0.42
0.69,0.52,-0.42
0.64,0.51,-0.43
0.63,0.52,-0.45
0.64,0.52,-0.46
0.65,0.52,-0.47
0.63,0.51,-0.5
0.6,0.52,-0.53
0.61,0.52,-0.53
0.59,0.52,-0.53
0.56,0.53,-0.54
0.56,0.52,-0.57
0.52,0.52,-0.61
0.5,0.53,-0.62
0.49,0.53,-0.64
0.5,0.53,-0.67
0.51,0.54,-0.68
0.5,0.55,-0.68
0.48,0.55,-0.67
0.43,0.55,-0.68
0.43,0.53,-0.67
0.36,0.53,-0.66
0.4,0.55,-0.71
0.5,0.56,-0.74
0.43,0.57,-0.73
0.39,0.55,-0.72
0.44,0.57,-0.72
0.45,0.58,-0.73
0.43,0.57,-0.74
0.43,0.56,-0.76
0.44,0.57,-0.76
0.43,0.58,-0.77
0.43,0.58,-0.77
0.46,0.59,-0.76
0.46,0.6,-0.75
0.44,0.6,-0.76
0.42,0.61,-0.77
0.41,0.61,-0.76
0.42,0.61,-0.77
0.41,0.62,-0.78
0.39,0.63,-0.79
0.38,0.64,-0.78
0.37,0.64,-0.75
0.36,0.64,-0.73
0.4,0.65,-0.72
0.39,0.64,-0.72
0.4,0.65,-0.73
0.41,0.65,-0.76
0.42,0.66,-0.78
0.41,0.66,-0.79
0.39,0.66,-0.77
0.38,0.67,-0.73
0.37,0.66,-0.71
0.36,0.65,-0.7
0.36,0.66,-0.7
0.35,0.66,-0.69
0.33,0.67,-0.7
0.32,0.67,-0.71
0.31,0.67,-0.72
0.32,0.67,-0.73
0.34,0.69,-0.72
0.35,0.69,-0.69
0.36,0.67,-0.66
0.38,0.67,-0.64
0.4,0.67,-0.63
0.41,0.67,-0.61
0.41,0.68,-0.62
0.42,0.69,-0.65
0.43,0.69,-0.67
0.43,0.7,-0.67
0.44,0.7,-0.63
0.43,0.69,-0.6
0.5,0.73,-0.58
0.47,0.73,-0.57
0.45,0.72,-0.52
0.44,0.71,-0.47
0.47,0.71,-0.45
0.59,0.76,-0.42
0.46,0.73,-0.39
0.44,0.67,-0.37
0.51,0.7,-0.37
0.52,0.73,-0.3
0.62,0.71,-0.23
0.6,0.71,-0.17
0.55,0.72,-0.13
0.59,0.74,-0.12
0.65,0.76,-0.11
0.51,0.68,-0.13
0.42,0.64,-0.08
0.42,0.69,0.02
0.4,0.68,0.12
0.61,0.73,0.17
0.7,0.8,0.17
0.6,0.78,0.12
0.54,0.77,0.16
0.34,0.76,0.24
0.32,0.78,0.23
0.08,0.71,0.28
0.19,0.7,0.32
0.28,0.72,0.35
0.33,0.73,0.39
0.37,0.7,0.42
0.51,0.71,0.46
0.62,0.73,0.48
0.63,0.72,0.48
0.61,0.7,0.47
0.58,0.7,0.48
0.55,0.7,0.47
0.53,0.68,0.47
0.51,0.68,0.47
0.51,0.68,0.48
0.52,0.68,0.48
0.53,0.68,0.46
0.53,0.67,0.46
0.55,0.67,0.47
0.57,0.67,0.48
0.6,0.67,0.5
0.6,0.66,0.54
0.62,0.66,0.56
0.62,0.66,0.57
0.62,0.66,0.56
0.62,0.65,0.56
0.62,0.65,0.59
0.57,0.65,0.61
0.58,0.65,0.62
0.58,0.65,0.65
0.58,0.65,0.67
0.58,0.64,0.68
0.58,0.64,0.69
0.57,0.64,0.68
0.56,0.65,0.67
0.55,0.65,0.67
0.55,0.64,0.67
0.55,0.64,0.68
0.56,0.63,0.7
0.57,0.63,0.72
0.58,0.63,0.72
0.59,0.62,0.71
0.59,0.62,0.7
0.58,0.62,0.66
0.58,0.61,0.63
0.58,0.59,0.62
0.6,0.59,0.63
0.62,0.58,0.64
0.63,0.58,0.63
0.63,0.58,0.62
0.62,0.57,0.6
0.62,0.57,0.57
0.62,0.57,0.51
0.61,0.57,0.5
0.6,0.55,0.48
0.57,0.52,0.47
0.58,0.53,0.45
0.64,0.55,0.41
0.67,0.56,0.38
0.7,0.56,0.33
0.71,0.56,0.3
0.73,0.57,0.26
0.74,0.57,0.23
0.74,0.57,0.19
0.74,0.57,0.16
0.75,0.57,0.12
0.76,0.58,0.1
0.77,0.61,0.06
0.81,0.61,0.04
0.82,0.61,0.06
0.8,0.6,0.06
0.78,0.6,0.02
0.77,0.61,-0.02
0.78,0.62,-0.04
0.79,0.62,-0.07
0.77,0.61,-0.09
0.75,0.61,-0.12
0.73,0.6,-0.16
0.72,0.61,-0.18
0.73,0.63,-0.21
0.69,0.63,-0.23
0.66,0.61,-0.25
0.66,0.61,-0.26
0.68,0.61,-0.29
0.68,0.62,-0.32
0.7,0.62,-0.35
0.71,0.62,-0.37
0.69,0.63,-0.39
0.66,0.62,-0.4
0.65,0.62,-0.4
0.65,0.62,-0.4
