Acc_x,Acc_y,Acc_z
0.8,-0.27,0.36
0.77,-0.27,0.37
0.74,-0.28,0.35
0.75,-0.28,0.33
0.71,-0.28,0.33
0.68,-0.3,0.33
0.69,-0.35,0.33
0.63,-0.4,0.32
0.57,-0.4,0.33
0.56,-0.41,0.33
0.56,-0.45,0.33
0.53,-0.48,0.34
0.49,-0.5,0.34
0.46,-0.53,0.36
0.44,-0.58,0.38
0.44,-0.62,0.4
0.42,-0.69,0.44
0.39,-0.78,0.45
0.37,-0.83,0.49
0.37,-0.83,0.56
0.38,-0.85,0.6
0.37,-0.91,0.55
0.37,-0.97,0.48
0.39,-1.01,0.46
0.24,-1.03,0.54
0.2,-0.93,0.6
0.15,-1.07,0.59
0.13,-1.3,0.57
0.17,-1.26,0.59
0.29,-1.04,0.63
0.38,-1.05,0.62
0.41,-1.25,0.55
0.48,-1.25,0.55
0.54,-1.15,0.55
0.55,-1.15,0.54
0.54,-1.14,0.54
0.54,-1.09,0.55
0.56,-1.05,0.55
0.57,-1.05,0.52
0.56,-1.01,0.52
0.58,-0.98,0.52
0.58,-0.94,0.54
0.59,-0.89,0.52
0.65,-0.81,0.51
0.71,-0.8,0.49
0.75,-0.91,0.43
0.72,-0.89,0.44
0.66,-0.82,0.47
0.65,-0.76,0.47
0.71,-0.73,0.46
0.81,-0.76,0.49
0.88,-0.76,0.51
0.85,-0.77,0.51
0.81,-0.77,0.5
0.79,-0.78,0.5
0.78,-0.76,0.5
0.79,-0.73,0.5
0.78,-0.69,0.5
0.74,-0.66,0.5
0.7,-0.62,0.51
0.67,-0.58,0.5
0.65,-0.54,0.49
0.63,-0.49,0.48
0.63,-0.45,0.47
0.62,-0.42,0.45
0.61,-0.39,0.43
0.6,-0.37,0.4
0.6,-0.36,0.37
0.6,-0.35,0.35
0.6,-0.35,0.32
0.61,-0.35,0.3
0.63,-0.36,0.28
0.64,-0.37,0.26
0.66,-0.38,0.25
0.68,-0.4,0.23
0.72,-0.43,0.21
0.79,-0.51,0.2
0.98,-0.59,0.21
1.07,-0.7,0.26
1.14,-0.83,0.31
1.18,-0.96,0.32
1.21,-1.08,0.35
1.26,-1.19,0.36
1.32,-1.31,0.35
1.37,-1.42,0.31
1.37,-1.51,0.24
1.35,-1.54,0.18
1.31,-1.52,0.16
1.24,-1.49,0.18
1.18,-1.45,0.23
1.16,-1.38,0.27
1.15,-1.33,0.28
1.1,-1.33,0.28
1.06,-1.31,0.27
1.02,-1.29,0.22
0.98,-1.25,0.17
0.93,-1.21,0.14
0.86,-1.17,0.11
0.79,-1.12,0.1
0.73,-1.06,0.11
0.7,-1,0.11
0.67,-0.94,0.13
0.65,-0.84,0.13
0.59,-0.8,0.13
0.56,-0.75,0.12
0.54,-0.7,0.09
0.53,-0.67,0.07
0.52,-0.63,0.04
0.51,-0.6,0.02
0.48,-0.58,0.01
0.46,-0.56,0.02
0.44,-0.53,0.01
0.42,-0.53,0
0.42,-0.52,-0.01
0.42,-0.51,0
0.43,-0.49,0.01
0.41,-0.49,0.03
0.4,-0.5,0.03
0.39,-0.5,0
0.37,-0.5,-0.02
0.33,-0.49,-0.02
0.29,-0.49,-0.02
0.27,-0.5,-0.02
0.28,-0.51,-0.03
0.29,-0.52,-0.03
0.31,-0.54,-0.04
0.32,-0.56,-0.04
0.32,-0.58,-0.03
0.32,-0.64,-0.02
0.31,-0.66,-0.02
0.31,-0.68,-0.01
0.31,-0.69,-0.01
0.3,-0.71,-0.01
0.3,-0.72,0
0.3,-0.75,0.01
0.3,-0.78,0.02
0.3,-0.82,0.04
0.32,-0.87,0.06
0.34,-0.94,0.08
0.36,-1.01,0.1
0.37,-1.07,0.12
0.37,-1.14,0.14
0.37,-1.21,0.16
0.37,-1.29,0.16
0.38,-1.41,0.16
0.36,-1.53,0.14
0.33,-1.63,0.15
0.34,-1.79,0.16
0.36,-1.97,0.12
0.38,-2.1,0.09
0.44,-2.17,0.06
0.43,-2.12,0.07
0.34,-1.94,0.14
0.37,-1.74,0.19
0.45,-1.58,0.27
0.56,-1.26,0.35
0.58,-1.18,0.39
0.56,-1.2,0.37
0.52,-1.29,0.32
0.51,-1.45,0.26
0.51,-1.6,0.21
0.52,-1.73,0.19
0.55,-1.83,0.2
0.55,-1.88,0.21
0.51,-1.89,0.22
0.46,-1.83,0.24
0.44,-1.71,0.26
0.46,-1.55,0.28
0.48,-1.36,0.29
0.49,-1.17,0.32
0.49,-0.98,0.35
0.52,-0.84,0.34
0.55,-0.78,0.31
0.55,-0.77,0.26
0.56,-0.77,0.21
0.6,-0.76,0.18
0.61,-0.76,0.16
0.59,-0.76,0.14
0.56,-0.76,0.14
0.55,-0.74,0.13
0.55,-0.73,0.14
0.55,-0.73,0.13
0.58,-0.75,0.11
0.59,-0.77,0.1
0.58,-0.79,0.1
0.6,-0.8,0.09
0.63,-0.82,0.07
0.67,-0.84,0.06
0.7,-0.86,0.06
0.71,-0.89,0.05
0.71,-0.92,0.04
0.71,-0.96,0.02
0.71,-1,0
0.69,-1.06,0
0.67,-1.11,0.01
0.66,-1.17,0.04
0.65,-1.22,0.06
0.62,-1.26,0.06
0.6,-1.3,0.06
0.6,-1.35,0.05
0.6,-1.4,0.05
0.6,-1.46,0.04
0.59,-1.55,0.04
0.6,-1.64,0.03
0.62,-1.74,0.03
0.63,-1.82,0.04
0.62,-1.87,0.05
0.55,-1.9,0.04
0.5,-1.86,0.02
0.47,-1.78,0.01
0.45,-1.67,-0.01
0.42,-1.56,-0.02
0.39,-1.45,-0.01
0.37,-1.36,0.01
0.36,-1.28,0.03
0.36,-1.23,0.04
0.36,-1.22,0.03
0.36,-1.25,0
0.36,-1.3,-0.01
0.36,-1.35,-0.02
0.36,-1.38,-0.03
0.34,-1.41,-0.02
0.33,-1.42,-0.01
0.33,-1.43,-0.01
0.31,-1.43,-0.03
0.3,-1.42,-0.05
0.27,-1.38,-0.06
0.25,-1.34,-0.07
0.24,-1.3,-0.07
0.22,-1.26,-0.07
0.21,-1.21,-0.08
0.21,-1.14,-0.1
0.21,-1.04,-0.1
0.22,-0.84,-0.1
0.22,-0.75,-0.1
0.2,-0.65,-0.08
0.2,-0.56,-0.06
0.22,-0.47,-0.04
0.23,-0.41,-0.03
0.24,-0.37,-0.03
0.24,-0.34,-0.04
0.23,-0.34,-0.04
0.22,-0.35,-0.05
0.22,-0.36,-0.05
0.21,-0.38,-0.05
0.2,-0.4,-0.04
0.19,-0.44,-0.03
0.18,-0.5,-0.03
0.18,-0.57,-0.04
0.19,-0.64,-0.04
0.19,-0.71,-0.05
0.2,-0.77,-0.05
0.2,-0.83,-0.05
0.2,-0.87,-0.05
0.2,-0.9,-0.04
0.2,-0.9,-0.03
0.22,-0.89,-0.02
0.23,-0.88,-0.02
0.24,-0.89,0
0.28,-0.92,0
0.29,-0.94,0
0.3,-0.98,0.01
0.31,-1.04,0.01
0.33,-1.13,0.01
0.34,-1.24,0.01
0.34,-1.35,0
0.34,-1.47,-0.02
0.33,-1.63,-0.05
0.33,-1.79,-0.09
0.33,-1.91,-0.13
0.35,-1.97,-0.15
0.39,-1.95,-0.14
0.42,-1.86,-0.11
0.46,-1.77,-0.03
0.51,-1.69,0.02
0.59,-1.64,0.04
0.64,-1.62,0.08
0.66,-1.64,0.09
0.67,-1.7,0.08
0.67,-1.78,0.05
0.65,-1.84,0.03
0.61,-1.85,0.02
0.58,-1.81,0.04
0.55,-1.72,0.1
0.53,-1.63,0.18
0.52,-1.44,0.2
0.53,-1.35,0.2
0.55,-1.25,0.2
0.57,-1.18,0.2
0.59,-1.13,0.19
0.61,-1.1,0.18
0.61,-1.08,0.16
0.61,-1.04,0.15
0.63,-1,0.13
0.64,-0.96,0.13
0.64,-0.92,0.14
0.64,-0.89,0.14
0.63,-0.86,0.14
0.63,-0.83,0.14
0.63,-0.82,0.14
0.64,-0.8,0.15
0.65,-0.79,0.15
0.66,-0.79,0.15
0.67,-0.79,0.14
0.67,-0.79,0.14
0.68,-0.8,0.13
0.68,-0.82,0.13
0.67,-0.84,0.13
0.67,-0.87,0.12
0.67,-0.9,0.12
0.66,-0.93,0.13
0.63,-0.97,0.13
0.63,-1,0.13
0.63,-1.02,0.12
0.63,-1.05,0.11
0.61,-1.08,0.11
0.61,-1.12,0.1
0.62,-1.16,0.1
0.63,-1.23,0.09
0.63,-1.3,0.08
0.63,-1.36,0.08
0.62,-1.39,0.08
0.62,-1.43,0.07
0.62,-1.49,0.06
0.62,-1.59,0.05
0.63,-1.71,0.05
0.63,-1.82,0.05
0.62,-1.9,0.05
0.61,-1.94,0.03
0.58,-1.93,0.01
0.54,-1.87,0
0.51,-1.78,0.01
0.49,-1.67,0.02
0.46,-1.55,0.04
0.44,-1.44,0.06
0.43,-1.37,0.06
0.43,-1.34,0.03
0.41,-1.45,-0.03
0.41,-1.52,-0.06
0.4,-1.56,-0.1
0.37,-1.59,-0.12
0.34,-1.62,-0.13
0.31,-1.64,-0.14
0.28,-1.63,-0.14
0.25,-1.59,-0.13
0.24,-1.51,-0.11
0.24,-1.42,-0.11
0.23,-1.32,-0.13
0.2,-1.2,-0.12
0.18,-1.07,-0.1
0.17,-0.94,-0.09
0.18,-0.83,-0.09
0.19,-0.75,-0.1
0.2,-0.7,-0.08
0.22,-0.65,-0.09
0.23,-0.62,-0.11
0.22,-0.58,-0.11
0.21,-0.56,-0.1
0.2,-0.53,-0.09
0.18,-0.51,-0.09
0.17,-0.5,-0.08
0.16,-0.49,-0.07
0.15,-0.5,-0.08
0.14,-0.52,-0.09
0.1,-0.54,-0.09
0.1,-0.55,-0.1
0.11,-0.58,-0.1
0.12,-0.61,-0.1
0.14,-0.65,-0.11
0.16,-0.68,-0.1
0.17,-0.7,-0.1
0.18,-0.72,-0.09
0.19,-0.74,-0.08
0.2,-0.75,-0.08
0.21,-0.77,-0.07
0.23,-0.78,-0.06
0.25,-0.79,-0.04
0.28,-0.79,-0.04
0.29,-0.8,-0.03
0.3,-0.82,-0.01
0.31,-0.83,0.01
0.33,-0.86,0.02
0.34,-0.89,0.03
0.34,-0.94,0.03
0.34,-0.99,0.02
0.34,-1.06,0.01
0.34,-1.15,0
0.35,-1.24,-0.02
0.35,-1.36,-0.02
0.38,-1.58,-0.03
0.39,-1.7,-0.05
0.4,-1.82,-0.07
0.42,-1.88,-0.07
0.43,-1.87,-0.08
0.46,-1.75,-0.06
0.49,-1.6,-0.02
0.53,-1.52,0
0.55,-1.52,0.02
0.58,-1.57,0.03
0.62,-1.64,0.05
0.64,-1.69,0.09
0.65,-1.72,0.11
0.66,-1.71,0.11
0.64,-1.68,0.1
0.6,-1.66,0.1
0.57,-1.61,0.11
0.57,-1.55,0.09
0.57,-1.48,0.09
0.56,-1.43,0.11
0.56,-1.37,0.12
0.58,-1.3,0.14
0.59,-1.24,0.15
0.59,-1.18,0.16
0.59,-1.11,0.16
0.58,-1.06,0.15
0.58,-0.95,0.12
0.58,-0.91,0.12
0.58,-0.89,0.12
0.57,-0.87,0.12
0.56,-0.87,0.13
0.56,-0.87,0.12
0.58,-0.86,0.12
0.59,-0.86,0.11
0.59,-0.85,0.11
0.6,-0.85,0.1
0.61,-0.85,0.1
0.62,-0.85,0.09
0.62,-0.87,0.08
0.63,-0.88,0.07
0.63,-0.89,0.07
0.64,-0.9,0.07
0.64,-0.92,0.07
0.65,-0.94,0.07
0.65,-0.97,0.06
0.65,-0.99,0.05
0.66,-1,0.04
0.65,-1.02,0.04
0.64,-1.04,0.04
0.64,-1.06,0.05
0.64,-1.09,0.05
0.63,-1.13,0.06
0.62,-1.22,0.04
0.61,-1.29,0.03
0.61,-1.37,0.02
0.6,-1.47,0.01
0.59,-1.54,0
0.57,-1.59,0
0.56,-1.59,-0.01
0.54,-1.57,-0.01
0.52,-1.54,0
0.5,-1.53,-0.01
0.49,-1.53,-0.02
0.47,-1.55,-0.02
0.47,-1.56,-0.03
0.48,-1.55,-0.04
0.48,-1.54,-0.02
0.47,-1.54,-0.01
0.47,-1.53,-0.01
0.48,-1.52,-0.02
0.49,-1.52,-0.02
0.5,-1.54,-0.01
0.5,-1.56,0
0.5,-1.58,-0.01
0.48,-1.59,-0.04
0.45,-1.57,-0.05
0.44,-1.53,-0.03
0.42,-1.46,-0.01
0.41,-1.39,-0.02
0.36,-1.22,-0.03
0.35,-1.14,-0.03
0.35,-1.06,-0.02
0.35,-1,-0.04
0.34,-0.96,-0.07
0.3,-0.9,-0.07
0.28,-0.84,-0.09
0.27,-0.82,-0.11
0.25,-0.79,-0.12
0.24,-0.76,-0.12
0.21,-0.76,-0.14
0.18,-0.75,-0.15
0.18,-0.73,-0.15
0.19,-0.71,-0.15
0.2,-0.69,-0.15
0.19,-0.68,-0.15
0.18,-0.67,-0.15
0.18,-0.65,-0.16
0.18,-0.64,-0.16
0.16,-0.63,-0.16
0.15,-0.62,-0.16
0.14,-0.61,-0.14
0.13,-0.59,-0.13
0.13,-0.58,-0.13
0.13,-0.57,-0.12
0.14,-0.57,-0.11
0.16,-0.59,-0.1
0.17,-0.61,-0.09
0.17,-0.63,-0.09
0.18,-0.66,-0.08
0.18,-0.69,-0.07
0.19,-0.72,-0.06
0.2,-0.74,-0.05
0.21,-0.77,-0.05
0.23,-0.8,-0.05
0.24,-0.83,-0.06
0.24,-0.87,-0.06
0.25,-0.9,-0.06
0.27,-0.94,-0.07
0.29,-0.97,-0.05
0.31,-1.01,-0.03
0.33,-1.05,-0.03
0.36,-1.11,-0.04
0.37,-1.19,-0.05
0.39,-1.28,-0.05
0.4,-1.4,-0.06
0.4,-1.53,-0.06
0.41,-1.67,-0.06
0.42,-1.79,-0.07
0.45,-1.84,-0.09
0.47,-1.87,-0.08
0.47,-1.88,-0.07
0.52,-1.89,-0.04
0.54,-1.84,-0.01
0.59,-1.77,0.01
0.62,-1.69,0.03
0.6,-1.61,0.04
0.6,-1.55,0.05
0.59,-1.49,0.04
0.63,-1.43,0.07
0.66,-1.38,0.07
0.57,-1.41,0.02
0.53,-1.47,0.02
0.56,-1.5,0.04
0.62,-1.49,0.06
0.62,-1.47,0.09
0.57,-1.46,0.11
0.56,-1.45,0.1
0.57,-1.4,0.11
0.56,-1.33,0.12
0.56,-1.26,0.12
0.57,-1.18,0.11
0.58,-1.1,0.11
0.58,-1.02,0.1
0.59,-0.96,0.09
0.6,-0.92,0.08
0.6,-0.87,0.09
0.59,-0.84,0.08
0.6,-0.84,0.08
0.62,-0.83,0.08
0.63,-0.82,0.09
0.61,-0.83,0.09
0.61,-0.83,0.08
0.62,-0.83,0.07
0.65,-0.82,0.06
0.65,-0.83,0.05
0.65,-0.85,0.05
0.65,-0.87,0.04
0.67,-0.89,0.05
0.67,-0.92,0.05
0.66,-0.96,0.05
0.67,-0.98,0.05
0.67,-1,0.05
0.65,-1.03,0.06
0.63,-1.07,0.07
0.63,-1.1,0.06
0.63,-1.13,0.04
0.63,-1.16,0.02
0.62,-1.18,0.02
0.64,-1.2,0.02
0.65,-1.23,0.01
0.65,-1.27,0
0.63,-1.32,-0.01
0.61,-1.36,-0.02
0.6,-1.43,-0.02
0.58,-1.46,-0.04
0.55,-1.48,-0.06
0.55,-1.52,-0.08
0.55,-1.59,-0.1
0.56,-1.69,-0.11
0.58,-1.8,-0.11
0.59,-1.9,-0.12
0.58,-1.95,-0.13
0.55,-1.94,-0.15
0.5,-1.85,-0.13
0.47,-1.74,-0.09
0.44,-1.67,-0.1
0.42,-1.65,-0.1
0.39,-1.63,-0.11
0.36,-1.59,-0.11
0.34,-1.53,-0.11
0.31,-1.46,-0.11
0.29,-1.39,-0.12
0.27,-1.32,-0.13
0.25,-1.24,-0.13
0.23,-1.16,-0.14
0.21,-1.09,-0.13
0.2,-1.04,-0.11
0.2,-1,-0.09
0.2,-0.98,-0.08
0.2,-0.97,-0.09
0.18,-0.96,-0.12
0.17,-0.94,-0.14
0.16,-0.91,-0.14
0.15,-0.86,-0.13
0.14,-0.81,-0.12
0.14,-0.77,-0.12
0.14,-0.73,-0.12
0.14,-0.7,-0.12
0.12,-0.67,-0.12
0.11,-0.64,-0.12
0.11,-0.61,-0.12
0.1,-0.59,-0.12
0.09,-0.57,-0.11
0.08,-0.55,-0.1
0.07,-0.53,-0.11
0.08,-0.52,-0.12
0.08,-0.52,-0.12
0.09,-0.54,-0.12
0.12,-0.55,-0.12
0.14,-0.56,-0.11
0.16,-0.59,-0.11
0.18,-0.62,-0.11
0.19,-0.64,-0.1
0.2,-0.67,-0.09
0.22,-0.69,-0.09
0.24,-0.76,-0.07
0.25,-0.79,-0.05
0.26,-0.82,-0.04
0.28,-0.85,-0.01
0.3,-0.91,0.03
0.3,-0.99,0.05
0.32,-1.07,0.04
0.32,-1.16,0.02
0.3,-1.27,-0.01
0.28,-1.37,-0.03
0.27,-1.46,-0.06
0.29,-1.52,-0.07
0.33,-1.58,-0.07
0.34,-1.65,-0.07
0.38,-1.68,-0.05
0.42,-1.67,-0.05
0.46,-1.67,-0.04
0.51,-1.65,-0.01
0.57,-1.62,0.02
0.63,-1.6,0.04
0.68,-1.6,0.05
0.71,-1.61,0.07
0.72,-1.62,0.1
0.71,-1.64,0.12
0.64,-1.65,0.11
0.61,-1.65,0.13
0.57,-1.53,0.12
0.57,-1.51,0.09
0.54,-1.45,0.1
0.5,-1.37,0.13
0.53,-1.3,0.17
0.56,-1.23,0.18
0.57,-1.17,0.19
0.56,-1.12,0.19
0.56,-1.08,0.17
0.57,-1.03,0.15
0.56,-1.01,0.14
0.55,-0.99,0.14
0.56,-0.96,0.13
0.57,-0.94,0.12
0.56,-0.93,0.14
0.54,-0.92,0.16
0.53,-0.91,0.15
0.55,-0.91,0.14
0.56,-0.9,0.13
0.56,-0.9,0.12
0.58,-0.89,0.12
0.61,-0.88,0.12
0.62,-0.87,0.11
0.64,-0.88,0.1
0.66,-0.89,0.1
0.68,-0.9,0.09
0.69,-0.94,0.07
0.71,-0.95,0.06
0.73,-0.97,0.05
0.75,-0.97,0.06
0.77,-0.96,0.07
0.78,-0.97,0.09
0.78,-0.99,0.09
0.77,-1.04,0.08
0.76,-1.07,0.07
0.75,-1.08,0.06
0.74,-1.11,0.05
0.76,-1.16,0.04
0.77,-1.22,0.02
0.75,-1.29,0.01
0.74,-1.36,0
0.75,-1.46,-0.01
0.74,-1.57,-0.02
0.71,-1.67,-0.02
0.66,-1.74,-0.03
0.61,-1.75,-0.03
0.57,-1.71,0
0.55,-1.64,0
0.54,-1.55,0.01
0.56,-1.48,0.05
0.58,-1.47,0.05
0.58,-1.49,0.01
0.56,-1.57,-0.01
0.52,-1.59,0
0.49,-1.6,0.03
0.46,-1.6,0.04
0.44,-1.58,0.01
0.4,-1.56,0
0.38,-1.54,0
0.38,-1.51,0
0.36,-1.48,-0.01
0.34,-1.44,-0.01
0.32,-1.4,0
0.29,-1.33,0
0.24,-1.24,0.01
0.2,-1.13,0
0.16,-1.01,-0.02
0.13,-0.91,-0.03
0.12,-0.81,-0.03
0.11,-0.73,-0.03
0.11,-0.67,-0.02
0.13,-0.62,-0.02
0.15,-0.61,-0.02
0.16,-0.64,-0.05
0.15,-0.69,-0.07
0.13,-0.72,-0.07
0.12,-0.73,-0.07
0.13,-0.73,-0.08
0.12,-0.74,-0.09
0.13,-0.74,-0.09
0.14,-0.73,-0.09
0.16,-0.71,-0.09
0.16,-0.69,-0.09
0.17,-0.68,-0.09
0.17,-0.68,-0.09
0.17,-0.68,-0.09
0.17,-0.68,-0.1
0.15,-0.68,-0.1
0.14,-0.69,-0.09
0.14,-0.69,-0.09
0.14,-0.71,-0.09
0.14,-0.73,-0.09
0.14,-0.75,-0.1
0.14,-0.76,-0.1
0.15,-0.77,-0.1
0.16,-0.79,-0.1
0.18,-0.8,-0.09
0.2,-0.83,-0.08
0.21,-0.86,-0.07
0.23,-0.9,-0.08
0.25,-0.94,-0.08
0.27,-0.99,-0.08
0.29,-1.04,-0.07
0.31,-1.1,-0.06
0.32,-1.22,-0.04
0.38,-1.32,-0.03
0.4,-1.44,-0.04
0.4,-1.55,-0.04
0.4,-1.64,-0.06
0.38,-1.71,-0.06
0.39,-1.74,-0.05
0.41,-1.72,-0.06
0.42,-1.72,-0.06
0.45,-1.71,-0.06
0.47,-1.68,-0.04
0.49,-1.61,0
0.52,-1.54,0.03
0.54,-1.46,0.05
0.54,-1.44,0.05
0.62,-1.47,0.01
0.65,-1.53,-0.05
0.58,-1.61,-0.07
0.6,-1.71,-0.04
0.66,-1.75,-0.03
0.6,-1.76,-0.03
0.6,-1.73,-0.02
0.63,-1.64,0.02
0.61,-1.52,0.07
0.6,-1.42,0.09
0.6,-1.35,0.09
0.59,-1.27,0.07
0.61,-1.1,0.08
0.61,-1.03,0.08
0.6,-0.97,0.07
0.6,-0.92,0.07
0.64,-0.87,0.06
0.61,-0.83,0.06
0.57,-0.83,0.05
0.59,-0.81,0.05
0.59,-0.79,0.04
0.57,-0.79,0.04
0.58,-0.81,0.03
0.6,-0.83,0.01
0.61,-0.83,0
0.61,-0.84,0
0.62,-0.85,-0.01
0.64,-0.86,-0.02
0.66,-0.88,-0.03
0.66,-0.89,-0.02
0.66,-0.9,-0.01
0.67,-0.92,-0.01
0.68,-0.96,-0.02
0.68,-1,-0.03
0.67,-1.02,-0.04
0.67,-1.05,-0.04
0.68,-1.08,-0.05
0.68,-1.1,-0.05
0.65,-1.16,-0.05
0.64,-1.18,-0.05
0.63,-1.2,-0.05
0.63,-1.21,-0.05
0.62,-1.24,-0.05
0.61,-1.27,-0.05
0.62,-1.31,-0.06
0.63,-1.36,-0.07
0.64,-1.43,-0.1
0.63,-1.51,-0.11
0.63,-1.59,-0.11
0.63,-1.66,-0.1
0.62,-1.72,-0.08
0.6,-1.74,-0.08
0.56,-1.73,-0.09
0.53,-1.7,-0.08
0.55,-1.67,-0.06
0.57,-1.66,-0.05
0.58,-1.69,-0.06
0.57,-1.7,-0.06
0.57,-1.66,-0.06
0.56,-1.56,-0.05
0.54,-1.46,-0.01
0.53,-1.37,0.03
0.54,-1.33,0.04
0.54,-1.35,-0.02
0.47,-1.48,-0.05
0.43,-1.51,-0.08
0.39,-1.52,-0.1
0.33,-1.5,-0.11
0.28,-1.45,-0.12
0.25,-1.35,-0.12
0.23,-1.23,-0.1
0.23,-1.11,-0.09
0.21,-1.02,-0.1
0.2,-0.94,-0.08
0.2,-0.87,-0.08
0.2,-0.84,-0.12
0.18,-0.83,-0.15
0.15,-0.81,-0.14
0.14,-0.78,-0.15
0.13,-0.75,-0.15
0.11,-0.72,-0.13
0.07,-0.68,-0.13
0.05,-0.62,-0.12
0.04,-0.57,-0.1
0.03,-0.55,-0.08
0.02,-0.55,-0.08
0.01,-0.55,-0.08
0,-0.55,-0.09
0,-0.55,-0.09
-0.01,-0.55,-0.08
0,-0.56,-0.08
0.01,-0.58,-0.08
0.02,-0.61,-0.09
0.03,-0.65,-0.09
0.05,-0.68,-0.08
0.06,-0.71,-0.08
0.08,-0.73,-0.07
0.1,-0.74,-0.07
0.13,-0.76,-0.08
0.14,-0.79,-0.09
0.16,-0.82,-0.08
0.19,-0.84,-0.08
0.22,-0.87,-0.1
0.23,-0.92,-0.11
0.24,-0.97,-0.12
0.25,-1.04,-0.13
0.25,-1.12,-0.14
0.26,-1.19,-0.14
0.27,-1.27,-0.13
0.28,-1.33,-0.12
0.28,-1.36,-0.11
0.31,-1.39,-0.12
0.35,-1.46,-0.13
0.39,-1.58,-0.12
0.43,-1.69,-0.12
0.46,-1.76,-0.13
0.52,-1.83,-0.12
0.54,-1.83,-0.1
0.58,-1.82,-0.07
0.62,-1.82,-0.03
0.66,-1.84,0
0.69,-1.85,0.02
0.62,-1.87,0.03
0.58,-1.87,0.05
0.69,-1.85,0.07
0.83,-1.77,0.05
0.89,-1.67,-0.02
0.71,-1.63,-0.05
0.57,-1.56,0.03
0.63,-1.46,0.11
0.65,-1.38,0.15
0.62,-1.31,0.14
0.6,-1.27,0.13
0.62,-1.25,0.11
0.64,-1.23,0.09
0.66,-1.21,0.07
0.67,-1.19,0.06
0.68,-1.16,0.05
0.69,-1.11,0.05
0.69,-1.07,0.06
0.67,-1.03,0.08
0.63,-0.98,0.11
0.66,-0.89,0.11
0.67,-0.85,0.1
0.66,-0.82,0.09
0.68,-0.81,0.08
0.7,-0.83,0.06
0.71,-0.84,0.04
0.72,-0.82,0.03
0.72,-0.81,0.02
0.72,-0.8,0.02
0.72,-0.82,0.02
0.72,-0.85,0.01
0.71,-0.88,0
0.7,-0.92,0
0.69,-0.96,0
0.69,-1.01,-0.01
0.69,-1.05,-0.03
0.69,-1.07,-0.04
0.69,-1.09,-0.04
0.68,-1.12,-0.04
0.67,-1.15,-0.03
0.67,-1.21,-0.04
0.66,-1.3,-0.05
0.66,-1.38,-0.06
0.65,-1.47,-0.07
0.64,-1.54,-0.07
0.63,-1.57,-0.06
0.59,-1.5,-0.05
0.57,-1.49,-0.06
0.55,-1.52,-0.07
0.55,-1.6,-0.09
0.54,-1.69,-0.11
0.53,-1.78,-0.12
0.52,-1.85,-0.13
0.5,-1.88,-0.13
0.46,-1.86,-0.12
0.43,-1.81,-0.12
0.41,-1.77,-0.12
0.39,-1.74,-0.13
0.38,-1.71,-0.12
0.37,-1.68,-0.09
0.36,-1.63,-0.08
0.37,-1.57,-0.08
0.37,-1.5,-0.11
0.35,-1.45,-0.12
0.34,-1.39,-0.12
0.33,-1.32,-0.1
0.33,-1.25,-0.1
0.32,-1.18,-0.09
0.31,-1.12,-0.09
0.3,-1.07,-0.1
0.27,-1.02,-0.1
0.24,-0.98,-0.1
0.22,-0.9,-0.11
0.2,-0.84,-0.11
0.18,-0.77,-0.1
0.17,-0.75,-0.11
0.18,-0.77,-0.13
0.17,-0.76,-0.12
0.15,-0.73,-0.11
0.13,-0.7,-0.11
0.11,-0.67,-0.11
0.1,-0.64,-0.12
0.09,-0.62,-0.12
0.07,-0.6,-0.12
0.07,-0.59,-0.12
0.08,-0.58,-0.12
0.09,-0.56,-0.11
0.1,-0.54,-0.11
0.1,-0.54,-0.11
0.11,-0.55,-0.11
0.12,-0.56,-0.11
0.13,-0.57,-0.11
0.15,-0.59,-0.11
0.16,-0.62,-0.11
0.17,-0.66,-0.11
0.17,-0.69,-0.1
0.19,-0.72,-0.1
0.2,-0.75,-0.1
0.21,-0.82,-0.1
0.24,-0.86,-0.1
0.25,-0.9,-0.1
0.26,-0.94,-0.09
0.27,-0.99,-0.08
0.28,-1.04,-0.08
0.29,-1.09,-0.08
0.31,-1.15,-0.08
0.31,-1.2,-0.08
0.3,-1.24,-0.05
0.3,-1.27,-0.06
0.32,-1.33,-0.07
0.34,-1.42,-0.08
0.35,-1.51,-0.1
0.37,-1.6,-0.11
0.38,-1.7,-0.13
0.41,-1.76,-0.16
0.44,-1.82,-0.16
0.47,-1.87,-0.15
0.5,-1.89,-0.12
0.53,-1.89,-0.09
0.55,-1.84,-0.06
0.59,-1.77,-0.02
0.62,-1.68,0
0.61,-1.61,0.02
0.6,-1.54,0.05
0.59,-1.45,0.07
0.61,-1.46,0.03
0.55,-1.53,0.02
0.52,-1.64,0.04
0.56,-1.7,0.09
0.61,-1.7,0.13
0.62,-1.64,0.16
0.62,-1.57,0.19
0.62,-1.5,0.2
0.62,-1.44,0.2
0.62,-1.36,0.2
0.62,-1.26,0.19
0.62,-1.16,0.17
0.63,-1.05,0.16
0.63,-0.96,0.15
0.62,-0.89,0.13
0.65,-0.82,0.11
0.68,-0.75,0.1
0.65,-0.73,0.09
0.6,-0.74,0.09
0.61,-0.73,0.08
0.63,-0.72,0.07
0.63,-0.72,0.06
0.61,-0.74,0.05
0.62,-0.75,0.02
0.63,-0.76,-0.01
0.64,-0.8,-0.03
0.65,-0.83,-0.03
0.65,-0.87,-0.03
0.65,-0.9,-0.02
0.66,-0.92,-0.02
0.66,-0.95,-0.03
0.65,-0.99,-0.03
0.63,-1.03,-0.03
0.61,-1.07,-0.02
0.6,-1.1,-0.01
0.6,-1.13,-0.01
0.59,-1.17,-0.02
0.58,-1.19,-0.02
0.58,-1.22,-0.03
0.58,-1.25,-0.02
0.58,-1.27,0
0.57,-1.31,0.01
0.56,-1.36,0.02
0.57,-1.41,0.02
0.56,-1.47,0
0.54,-1.55,-0.03
0.52,-1.64,-0.05
0.51,-1.72,-0.06
0.5,-1.77,-0.05
0.49,-1.8,-0.05
0.49,-1.81,-0.05
0.47,-1.79,-0.06
0.44,-1.76,-0.06
0.44,-1.73,-0.05
0.45,-1.71,-0.03
0.45,-1.72,-0.03
0.43,-1.74,-0.05
0.41,-1.75,-0.08
0.38,-1.73,-0.09
0.35,-1.69,-0.1
0.32,-1.63,-0.1
0.29,-1.57,-0.09
0.25,-1.5,-0.06
0.25,-1.41,-0.04
0.25,-1.34,-0.03
0.24,-1.29,-0.04
0.21,-1.24,-0.05
0.2,-1.17,-0.05
0.2,-1.1,-0.06
0.2,-1.03,-0.06
0.2,-0.96,-0.04
0.2,-0.91,-0.05
0.21,-0.86,-0.05
0.21,-0.83,-0.05
0.2,-0.79,-0.07
0.19,-0.75,-0.09
0.17,-0.72,-0.08
0.14,-0.68,-0.08
0.12,-0.61,-0.08
0.1,-0.58,-0.09
0.08,-0.54,-0.08
0.07,-0.52,-0.07
0.08,-0.52,-0.07
0.1,-0.56,-0.09
0.1,-0.58,-0.1
0.09,-0.58,-0.1
0.1,-0.56,-0.09
0.11,-0.56,-0.09
0.12,-0.55,-0.09
0.14,-0.55,-0.09
0.15,-0.55,-0.08
0.17,-0.55,-0.08
0.19,-0.57,-0.07
0.21,-0.59,-0.06
0.23,-0.61,-0.05
0.25,-0.65,-0.05
0.26,-0.69,-0.06
0.27,-0.73,-0.06
0.28,-0.77,-0.06
0.28,-0.82,-0.05
0.28,-0.87,-0.04
0.28,-0.92,-0.04
0.29,-0.98,-0.05
0.3,-1.04,-0.05
0.35,-1.17,-0.04
0.36,-1.23,-0.04
0.37,-1.31,-0.05
0.37,-1.42,-0.05
0.38,-1.52,-0.06
0.4,-1.63,-0.09
0.41,-1.75,-0.11
0.41,-1.85,-0.11
0.42,-1.9,-0.12
0.44,-1.93,-0.12
0.44,-1.95,-0.11
0.45,-1.92,-0.1
0.49,-1.81,-0.07
0.55,-1.65,-0.03
0.58,-1.53,-0.01
0.6,-1.44,0
0.61,-1.38,0
0.61,-1.39,-0.02
0.61,-1.45,-0.01
0.6,-1.55,0
0.58,-1.64,-0.02
0.57,-1.7,-0.02
0.54,-1.72,-0.01
0.54,-1.72,0
0.56,-1.67,0
0.56,-1.6,0.02
0.57,-1.41,0.03
0.59,-1.32,0.04
0.59,-1.21,0.06
0.59,-1.12,0.08
0.59,-1.05,0.08
0.6,-1,0.07
0.61,-0.96,0.05
0.61,-0.91,0.04
0.62,-0.87,0.04
0.63,-0.83,0.03
0.62,-0.81,0.02
0.63,-0.81,0.03
0.65,-0.81,0.04
0.65,-0.8,0.05
0.66,-0.8,0.04
0.69,-0.81,0.04
0.71,-0.81,0.03
0.72,-0.81,0.02
0.73,-0.83,0.01
0.74,-0.84,0.01
0.75,-0.85,0.01
0.76,-0.86,0.01
0.77,-0.88,0.02
0.79,-0.91,0.03
0.8,-0.95,0.03
0.8,-1,0
0.81,-1.09,-0.03
0.82,-1.13,-0.06
0.81,-1.17,-0.07
0.77,-1.2,-0.06
0.74,-1.22,-0.03
0.75,-1.25,-0.03
0.76,-1.31,-0.04
0.75,-1.4,-0.05
0.75,-1.5,-0.07
0.75,-1.58,-0.1
0.73,-1.64,-0.11
0.74,-1.71,-0.11
0.73,-1.78,-0.12
0.7,-1.84,-0.12
0.68,-1.87,-0.1
0.67,-1.86,-0.08
0.66,-1.83,-0.08
0.63,-1.78,-0.08
0.6,-1.72,-0.07
0.57,-1.66,-0.05
0.55,-1.63,-0.06
0.52,-1.64,-0.07
0.5,-1.66,-0.08
0.47,-1.67,-0.09
0.43,-1.64,-0.09
0.4,-1.59,-0.07
0.36,-1.44,-0.04
0.36,-1.39,-0.02
0.35,-1.39,-0.04
0.33,-1.41,-0.08
0.29,-1.4,-0.07
0.26,-1.36,-0.07
0.25,-1.3,-0.08
0.24,-1.23,-0.09
0.21,-1.16,-0.09
0.2,-1.07,-0.09
0.2,-0.99,-0.08
0.18,-0.9,-0.08
0.19,-0.83,-0.09
0.18,-0.77,-0.09
0.17,-0.71,-0.1
0.17,-0.67,-0.1
0.16,-0.65,-0.09
0.15,-0.63,-0.1
0.14,-0.61,-0.1
0.14,-0.6,-0.1
0.13,-0.61,-0.1
0.12,-0.61,-0.11
0.11,-0.61,-0.11
0.11,-0.61,-0.11
0.11,-0.61,-0.1
0.12,-0.62,-0.11
0.12,-0.64,-0.1
0.13,-0.64,-0.09
0.14,-0.64,-0.09
0.15,-0.65,-0.08
0.16,-0.66,-0.07
0.17,-0.68,-0.06
0.18,-0.7,-0.06
0.18,-0.72,-0.06
0.18,-0.73,-0.06
0.18,-0.75,-0.07
0.19,-0.76,-0.07
0.2,-0.78,-0.07
0.22,-0.8,-0.07
0.23,-0.83,-0.07
0.26,-0.85,-0.08
0.27,-0.89,-0.08
0.28,-0.93,-0.07
0.29,-0.98,-0.03
0.31,-1.02,-0.01
0.33,-1.08,-0.02
0.33,-1.14,-0.02
0.33,-1.19,-0.03
0.34,-1.27,-0.03
0.35,-1.35,-0.03
0.35,-1.46,-0.04
0.37,-1.6,-0.08
0.4,-1.79,-0.09
0.42,-1.85,-0.09
0.45,-1.91,-0.09
0.48,-1.99,-0.1
0.51,-2.06,-0.09
0.53,-2.09,-0.08
0.57,-2.05,-0.05
0.61,-1.97,0
0.6,-1.85,0.05
0.59,-1.74,0.01
0.61,-1.62,-0.04
0.61,-1.52,-0.04
0.61,-1.44,-0.06
0.67,-1.4,-0.04
0.63,-1.41,0
0.56,-1.46,0.03
0.57,-1.5,0.06
0.6,-1.49,0.06
0.59,-1.47,0.05
0.57,-1.44,0.04
0.57,-1.41,0.04
0.59,-1.37,0.04
0.6,-1.3,0.02
0.61,-1.23,0
0.6,-1.16,-0.02
0.6,-1.09,-0.02
0.62,-0.95,-0.02
0.63,-0.91,-0.03
0.63,-0.88,-0.04
0.63,-0.87,-0.06
0.63,-0.85,-0.06
0.63,-0.84,-0.06
0.62,-0.83,-0.06
0.62,-0.83,-0.06
0.6,-0.84,-0.05
0.59,-0.84,-0.04
0.59,-0.84,-0.04
0.6,-0.83,-0.04
0.61,-0.82,-0.03
0.62,-0.83,-0.03
0.62,-0.84,-0.02
0.62,-0.84,0
0.62,-0.84,0.01
0.62,-0.85,0.01
0.62,-0.88,0.02
0.64,-0.91,0.01
0.65,-0.96,0
0.65,-1.01,-0.01
0.64,-1.06,-0.02
0.64,-1.1,-0.04
0.64,-1.14,-0.05
0.64,-1.19,-0.06
0.65,-1.29,-0.09
0.63,-1.34,-0.12
0.61,-1.4,-0.14
0.6,-1.46,-0.15
0.6,-1.51,-0.16
0.59,-1.56,-0.15
0.6,-1.6,-0.14
0.61,-1.66,-0.15
0.61,-1.72,-0.18
0.6,-1.76,-0.21
0.58,-1.76,-0.24
0.54,-1.71,-0.23
0.53,-1.64,-0.22
0.53,-1.57,-0.2
0.54,-1.52,-0.15
0.56,-1.52,-0.1
0.6,-1.56,-0.1
0.62,-1.61,-0.13
0.59,-1.64,-0.15
0.53,-1.61,-0.15
0.5,-1.53,-0.14
0.48,-1.42,-0.09
0.45,-1.35,-0.07
0.43,-1.33,-0.08
0.39,-1.33,-0.09
0.37,-1.34,-0.11
0.35,-1.31,-0.12
0.28,-1.26,-0.12
0.26,-1.21,-0.11
0.25,-1.13,-0.1
0.22,-1.04,-0.1
0.19,-0.96,-0.1
0.19,-0.9,-0.1
0.18,-0.85,-0.11
0.17,-0.83,-0.11
0.17,-0.82,-0.13
0.17,-0.82,-0.13
0.15,-0.81,-0.13
0.14,-0.8,-0.13
0.13,-0.78,-0.14
0.12,-0.75,-0.13
0.12,-0.72,-0.12
0.11,-0.7,-0.11
0.11,-0.68,-0.11
0.1,-0.67,-0.11
0.09,-0.67,-0.11
0.08,-0.66,-0.11
0.07,-0.66,-0.1
0.07,-0.66,-0.1
0.07,-0.65,-0.09
0.07,-0.65,-0.09
0.08,-0.64,-0.08
0.08,-0.66,-0.08
0.11,-0.68,-0.08
0.12,-0.7,-0.08
0.12,-0.73,-0.08
0.13,-0.76,-0.08
0.14,-0.8,-0.08
0.15,-0.83,-0.08
0.17,-0.86,-0.08
0.2,-0.89,-0.08
0.22,-0.93,-0.08
0.24,-0.98,-0.09
0.26,-1.02,-0.1
0.28,-1.05,-0.1
0.28,-1.1,-0.09
0.3,-1.14,-0.09
0.31,-1.17,-0.09
0.32,-1.22,-0.09
0.34,-1.28,-0.08
0.35,-1.37,-0.08
0.37,-1.47,-0.09
0.39,-1.59,-0.08
0.39,-1.71,-0.07
0.4,-1.8,-0.07
0.42,-1.83,-0.06
0.43,-1.84,-0.06
0.44,-1.85,-0.05
0.45,-1.81,-0.01
0.49,-1.74,0.03
0.52,-1.66,0.07
0.54,-1.59,0.09
0.56,-1.54,0.09
0.58,-1.52,0.07
0.57,-1.54,0.06
0.57,-1.58,0.07
0.58,-1.62,0.07
0.58,-1.65,0.05
0.58,-1.66,0.04
0.57,-1.64,0.03
0.56,-1.59,0.04
0.56,-1.52,0.05
0.58,-1.44,0.04
0.59,-1.34,0.03
0.6,-1.25,0.02
0.61,-1.16,0.01
0.6,-1.09,0.01
0.61,-1.03,0.01
0.63,-0.96,0.02
0.61,-0.91,0.02
0.58,-0.9,0.01
0.6,-0.88,-0.01
0.61,-0.86,-0.03
0.6,-0.85,-0.03
0.58,-0.82,-0.02
0.61,-0.78,-0.03
0.65,-0.79,-0.05
0.65,-0.79,-0.06
0.66,-0.77,-0.06
0.68,-0.76,-0.06
0.7,-0.76,-0.06
0.71,-0.77,-0.07
0.71,-0.78,-0.07
0.71,-0.8,-0.07
0.71,-0.83,-0.07
0.7,-0.86,-0.07
0.7,-0.9,-0.07
0.7,-0.94,-0.08
0.69,-0.97,-0.09
0.68,-1,-0.08
0.67,-1.03,-0.08
0.65,-1.07,-0.08
0.65,-1.12,-0.09
0.64,-1.17,-0.12
0.63,-1.22,-0.13
0.63,-1.27,-0.13
0.62,-1.32,-0.11
0.61,-1.38,-0.12
0.62,-1.43,-0.12
0.62,-1.5,-0.11
0.61,-1.67,-0.11
0.62,-1.73,-0.13
0.62,-1.77,-0.14
0.6,-1.79,-0.13
0.58,-1.77,-0.12
0.57,-1.72,-0.1
0.55,-1.63,-0.08
0.53,-1.56,-0.06
0.52,-1.56,-0.07
0.5,-1.6,-0.08
0.49,-1.66,-0.1
0.47,-1.71,-0.12
0.45,-1.74,-0.13
0.43,-1.78,-0.14
0.41,-1.79,-0.15
0.39,-1.78,-0.17
0.36,-1.74,-0.18
0.31,-1.69,-0.19
0.27,-1.64,-0.18
0.24,-1.57,-0.17
0.22,-1.46,-0.15
0.2,-1.33,-0.13
0.18,-1.21,-0.12
0.17,-1.11,-0.12
0.16,-1.03,-0.11
0.18,-0.96,-0.11
0.17,-0.91,-0.08
0.14,-0.77,-0.07
0.13,-0.74,-0.07
0.12,-0.71,-0.09
0.1,-0.7,-0.09
0.09,-0.69,-0.08
0.08,-0.69,-0.08
0.06,-0.69,-0.07
0.05,-0.69,-0.07
0.04,-0.7,-0.08
0.03,-0.71,-0.09
0.02,-0.73,-0.1
0.02,-0.74,-0.1
0.02,-0.75,-0.1
0.03,-0.76,-0.1
0.03,-0.77,-0.11
0.04,-0.78,-0.12
0.05,-0.78,-0.12
0.06,-0.78,-0.11
0.08,-0.78,-0.1
0.11,-0.77,-0.1
0.12,-0.77,-0.1
0.13,-0.77,-0.1
0.15,-0.77,-0.1
0.17,-0.78,-0.1
0.17,-0.79,-0.09
0.17,-0.8,-0.08
0.2,-0.84,-0.08
0.22,-0.88,-0.08
0.23,-0.91,-0.08
0.24,-0.95,-0.08
0.26,-0.98,-0.08
0.27,-1.03,-0.07
0.29,-1.08,-0.08
0.3,-1.14,-0.09
0.31,-1.19,-0.08
0.32,-1.23,-0.07
0.34,-1.27,-0.06
0.35,-1.31,-0.07
0.34,-1.39,-0.07
0.34,-1.49,-0.06
0.35,-1.58,-0.08
0.36,-1.65,-0.08
0.37,-1.7,-0.09
0.38,-1.75,-0.09
0.39,-1.79,-0.08
0.41,-1.84,-0.07
0.42,-1.89,-0.06
0.43,-1.9,-0.05
0.44,-1.87,-0.04
0.47,-1.82,-0.04
0.51,-1.79,-0.05
0.54,-1.75,-0.02
0.59,-1.73,-0.02
0.62,-1.74,-0.01
0.64,-1.74,-0.01
0.66,-1.7,-0.01
0.66,-1.63,0
0.66,-1.54,0
0.65,-1.43,0.01
0.64,-1.31,0.01
0.64,-1.2,0.01
0.64,-1.11,0.02
0.63,-1.02,0.04
0.62,-0.95,0.06
0.62,-0.9,0.06
0.62,-0.85,0.05
0.62,-0.83,0.04
0.62,-0.82,0.02
0.62,-0.8,0.02
0.63,-0.79,0.01
0.63,-0.79,0.01
0.63,-0.79,0.01
0.63,-0.8,0.01
0.64,-0.8,0.01
0.66,-0.8,0.01
0.67,-0.81,0.01
0.69,-0.82,0.01
0.71,-0.84,0
0.74,-0.88,0.01
0.76,-0.9,0
0.76,-0.93,-0.01
0.75,-0.94,-0.02
0.73,-0.96,-0.01
0.71,-0.98,-0.01
0.7,-1.02,-0.01
0.68,-1.05,-0.01
0.68,-1.09,-0.02
0.67,-1.12,-0.03
0.66,-1.16,-0.06
0.66,-1.2,-0.06
0.65,-1.22,-0.05
0.64,-1.25,-0.03
0.64,-1.3,-0.02
0.64,-1.37,-0.03
0.63,-1.44,-0.04
0.62,-1.52,-0.06
0.59,-1.57,-0.07
0.55,-1.6,-0.09
0.52,-1.61,-0.09
0.51,-1.62,-0.1
0.49,-1.65,-0.11
0.48,-1.69,-0.11
0.46,-1.74,-0.11
0.48,-1.79,-0.1
0.49,-1.83,-0.1
0.48,-1.83,-0.11
0.48,-1.82,-0.11
0.49,-1.81,-0.13
0.49,-1.83,-0.15
0.46,-1.87,-0.15
0.44,-1.9,-0.14
0.4,-1.91,-0.15
0.36,-1.87,-0.15
0.31,-1.8,-0.16
0.26,-1.71,-0.16
0.22,-1.6,-0.16
0.2,-1.47,-0.15
0.18,-1.33,-0.13
0.18,-1.2,-0.1
0.19,-1.09,-0.07
0.21,-0.99,-0.07
0.22,-0.92,-0.09
0.22,-0.86,-0.1
0.19,-0.79,-0.11
0.17,-0.75,-0.1
0.16,-0.74,-0.11
0.15,-0.74,-0.12
0.12,-0.73,-0.13
0.1,-0.73,-0.13
0.09,-0.74,-0.13
0.08,-0.76,-0.14
0.04,-0.74,-0.14
0.01,-0.7,-0.14
0.01,-0.67,-0.14
0.01,-0.64,-0.14
0.01,-0.61,-0.14
0.01,-0.57,-0.13
0.01,-0.53,-0.13
0.03,-0.51,-0.14
0.04,-0.49,-0.13
0.06,-0.49,-0.12
0.08,-0.51,-0.12
0.1,-0.53,-0.12
0.12,-0.55,-0.11
0.13,-0.57,-0.11
0.15,-0.59,-0.11
0.16,-0.62,-0.11
0.18,-0.65,-0.1
0.2,-0.7,-0.09
0.22,-0.74,-0.09
0.24,-0.78,-0.09
0.25,-0.83,-0.08
0.26,-0.9,-0.07
0.26,-0.98,-0.05
0.28,-1.07,-0.04
0.3,-1.17,-0.04
0.3,-1.35,-0.06
0.28,-1.43,-0.06
0.27,-1.49,-0.07
0.29,-1.55,-0.08
0.32,-1.62,-0.08
0.35,-1.69,-0.08
0.39,-1.78,-0.07
0.43,-1.87,-0.08
0.48,-1.94,-0.08
0.52,-1.98,-0.08
0.58,-1.97,-0.07
0.65,-1.92,-0.03
0.66,-1.9,0.1
0.74,-1.91,0.32
0.83,-1.88,0.15
0.74,-1.86,0.02
0.77,-1.82,0.13
1.07,-1.69,-0.01
1,-1.58,-0.1
0.69,-1.51,-0.08
0.63,-1.45,0
0.65,-1.39,0.06
0.67,-1.35,0.11
0.61,-1.31,0.11
0.58,-1.27,0.08
0.57,-1.23,0.06
0.56,-1.14,0.07
0.55,-1.09,0.09
0.56,-1.05,0.09
0.56,-1.02,0.09
0.56,-0.99,0.08
0.57,-0.96,0.07
0.58,-0.93,0.08
0.58,-0.9,0.09
0.58,-0.86,0.11
0.58,-0.84,0.13
0.6,-0.83,0.13
0.62,-0.82,0.13
0.65,-0.83,0.13
0.66,-0.85,0.12
0.69,-0.87,0.11
0.72,-0.9,0.1
0.73,-0.93,0.1
0.75,-0.95,0.11
0.76,-0.97,0.12
0.76,-0.99,0.12
0.75,-1,0.13
0.74,-1.03,0.13
0.73,-1.04,0.14
0.73,-1.05,0.13
0.72,-1.07,0.12
0.72,-1.08,0.1
0.73,-1.14,0.12
0.65,-1.19,0.09
0.63,-1.23,0.03
0.63,-1.3,-0.01
0.61,-1.38,-0.03
0.58,-1.48,-0.06
0.57,-1.57,-0.1
0.56,-1.64,-0.12
0.54,-1.67,-0.12
0.52,-1.64,-0.13
0.52,-1.59,-0.15
0.51,-1.52,-0.17
0.5,-1.46,-0.16
0.5,-1.42,-0.12
0.54,-1.41,-0.15
0.55,-1.44,-0.21
0.5,-1.49,-0.2
0.5,-1.53,-0.19
0.46,-1.54,-0.19
0.42,-1.54,-0.2
0.39,-1.53,-0.2
0.36,-1.51,-0.2
0.33,-1.48,-0.2
0.32,-1.46,-0.19
0.32,-1.45,-0.2
0.31,-1.43,-0.21
0.3,-1.38,-0.21
0.26,-1.34,-0.21
0.25,-1.29,-0.21
0.24,-1.24,-0.2
0.22,-1.19,-0.2
0.21,-1.14,-0.2
0.22,-1.1,-0.19
0.22,-1.05,-0.19
0.21,-1.02,-0.21
0.2,-0.98,-0.2
0.21,-0.93,-0.18
0.2,-0.89,-0.19
0.18,-0.85,-0.19
0.17,-0.82,-0.18
0.17,-0.78,-0.18
0.16,-0.75,-0.18
0.14,-0.73,-0.18
0.14,-0.71,-0.18
0.13,-0.69,-0.18
0.12,-0.67,-0.18
0.12,-0.66,-0.18
0.12,-0.65,-0.18
0.12,-0.65,-0.18
0.12,-0.64,-0.17
0.12,-0.64,-0.17
0.13,-0.64,-0.16
0.14,-0.66,-0.16
0.16,-0.72,-0.16
0.17,-0.75,-0.16
0.18,-0.77,-0.15
0.18,-0.78,-0.15
0.19,-0.8,-0.14
0.2,-0.82,-0.13
0.21,-0.83,-0.13
0.22,-0.86,-0.13
0.23,-0.89,-0.13
0.23,-0.91,-0.12
0.24,-0.92,-0.12
0.26,-0.94,-0.11
0.27,-0.97,-0.1
0.28,-1.01,-0.09
0.3,-1.06,-0.08
0.31,-1.1,-0.07
0.32,-1.15,-0.05
0.35,-1.2,-0.03
0.37,-1.27,-0.03
0.37,-1.35,-0.01
0.36,-1.41,0.01
0.37,-1.45,0.02
0.38,-1.46,0.04
0.41,-1.47,0.06
0.43,-1.48,0.08
0.44,-1.5,0.11
0.51,-1.52,0.13
0.55,-1.53,0.16
0.57,-1.53,0.18
0.59,-1.53,0.2
0.58,-1.53,0.22
0.57,-1.53,0.24
0.56,-1.54,0.28
0.56,-1.56,0.23
0.59,-1.61,0.14
0.61,-1.57,0.2
0.63,-1.53,0.24
0.66,-1.55,0.22
0.66,-1.55,0.24
0.67,-1.5,0.27
0.7,-1.42,0.27
0.69,-1.35,0.28
0.68,-1.29,0.27
0.67,-1.23,0.25
0.67,-1.15,0.25
0.64,-1.08,0.25
0.66,-1,0.26
0.69,-0.93,0.26
0.64,-0.89,0.27
0.62,-0.87,0.26
0.62,-0.87,0.25
0.61,-0.88,0.22
0.71,-0.85,0.21
0.67,-0.88,0.21
0.67,-0.9,0.21
0.71,-0.89,0.2
0.71,-0.89,0.18
0.7,-0.92,0.16
0.71,-0.93,0.14
0.71,-0.94,0.12
0.69,-0.97,0.1
0.68,-0.98,0.08
0.68,-1,0.06
0.68,-1.03,0.03
0.66,-1.05,0.01
0.65,-1.07,-0.02
0.64,-1.08,-0.03
0.62,-1.09,-0.06
0.6,-1.11,-0.12
0.59,-1.13,-0.18
0.57,-1.14,-0.24
0.56,-1.15,-0.27
0.54,-1.14,-0.29
0.54,-1.14,-0.31
0.54,-1.14,-0.33
0.56,-1.16,-0.38
0.58,-1.21,-0.45
0.59,-1.28,-0.56
0.59,-1.44,-0.59
0.57,-1.51,-0.59
0.53,-1.55,-0.57
0.48,-1.56,-0.53
0.46,-1.56,-0.48
0.44,-1.56,-0.44
0.41,-1.55,-0.41
0.37,-1.54,-0.37
0.35,-1.53,-0.35
0.34,-1.52,-0.35
0.32,-1.48,-0.35
0.31,-1.41,-0.33
0.32,-1.34,-0.3
0.33,-1.28,-0.27
0.34,-1.24,-0.23
0.35,-1.2,-0.19
0.37,-1.18,-0.19
0.38,-1.18,-0.22
0.37,-1.18,-0.26
0.35,-1.19,-0.28
0.34,-1.19,-0.3
0.33,-1.18,-0.3
0.33,-1.18,-0.28
0.32,-1.18,-0.27
0.32,-1.18,-0.25
0.33,-1.17,-0.27
0.32,-1.1,-0.28
0.32,-1.05,-0.27
0.32,-1.01,-0.28
0.31,-0.96,-0.28
0.3,-0.9,-0.27
0.28,-0.85,-0.27
0.28,-0.81,-0.27
0.29,-0.77,-0.27
0.29,-0.73,-0.26
0.28,-0.7,-0.25
0.27,-0.67,-0.24
0.26,-0.65,-0.23
0.25,-0.64,-0.23
0.25,-0.64,-0.22
0.25,-0.64,-0.22
0.23,-0.65,-0.21
0.22,-0.66,-0.19
0.22,-0.68,-0.18
0.23,-0.71,-0.17
0.23,-0.75,-0.17
0.23,-0.79,-0.17
0.22,-0.83,-0.16
0.23,-0.85,-0.14
0.23,-0.85,-0.12
0.23,-0.85,-0.1
0.25,-0.85,-0.08
0.26,-0.84,-0.06
0.26,-0.83,-0.06
0.26,-0.83,-0.06
0.26,-0.84,-0.03
0.28,-0.83,-0.02
0.29,-0.85,0
0.31,-0.86,0
0.32,-0.89,0
0.33,-0.94,0.02
0.32,-0.99,0.06
0.32,-1.02,0.09
0.32,-1.05,0.11
0.32,-1.1,0.12
0.32,-1.15,0.13
0.33,-1.19,0.15
0.34,-1.23,0.18
0.35,-1.29,0.19
0.37,-1.35,0.19
0.38,-1.42,0.21
0.39,-1.45,0.24
0.4,-1.45,0.27
0.43,-1.46,0.3
0.43,-1.48,0.34
0.44,-1.48,0.37
0.44,-1.48,0.38
0.43,-1.48,0.36
0.41,-1.49,0.39
0.41,-1.47,0.4
0.4,-1.45,0.39
0.38,-1.41,0.39
0.37,-1.37,0.38
0.36,-1.31,0.37
0.37,-1.25,0.36
0.39,-1.2,0.34
0.41,-1.15,0.32
0.42,-1.11,0.31
0.42,-1.1,0.29
0.43,-1.09,0.27
0.44,-1.09,0.25
0.44,-1.1,0.23
0.45,-1.11,0.21
0.46,-1.14,0.2
0.46,-1.17,0.17
0.47,-1.19,0.14
0.49,-1.21,0.12
0.5,-1.21,0.09
0.52,-1.2,0.08
0.54,-1.17,0.07
0.57,-1.13,0.07
0.6,-1.06,0.07
0.61,-1,0.07
0.61,-0.93,0.07
0.62,-0.82,0.04
0.63,-0.79,0.04
0.61,-0.78,0.04
0.58,-0.78,0.03
0.58,-0.78,0.03
0.58,-0.78,0.02
0.57,-0.78,0
0.57,-0.79,-0.01
0.57,-0.82,-0.03
0.57,-0.86,-0.04
0.58,-0.88,-0.04
0.59,-0.92,-0.04
0.59,-0.96,-0.05
0.6,-0.99,-0.06
0.6,-1.02,-0.08
0.58,-1.05,-0.08
0.58,-1.08,-0.08
0.58,-1.13,-0.08
0.58,-1.2,-0.09
0.58,-1.28,-0.09
0.57,-1.37,-0.09
0.58,-1.45,-0.09
0.58,-1.52,-0.09
0.57,-1.58,-0.09
0.56,-1.62,-0.09
0.55,-1.64,-0.08
0.53,-1.61,-0.09
0.49,-1.56,-0.08
0.46,-1.5,-0.08
0.44,-1.43,-0.07
0.42,-1.36,-0.06
0.41,-1.31,-0.05
0.4,-1.28,-0.05
0.4,-1.28,-0.05
0.41,-1.31,-0.06
0.4,-1.36,-0.06
0.39,-1.41,-0.04
0.4,-1.44,-0.03
0.39,-1.47,-0.05
0.38,-1.49,-0.08
0.34,-1.49,-0.09
0.32,-1.45,-0.11
0.3,-1.38,-0.1
0.29,-1.29,-0.07
0.29,-1.2,-0.05
0.29,-1.12,-0.03
0.28,-1.03,-0.04
0.28,-0.96,-0.06
0.27,-0.91,-0.07
0.27,-0.9,-0.09
0.29,-0.88,-0.1
0.28,-0.85,-0.09
0.27,-0.77,-0.1
0.26,-0.73,-0.1
0.26,-0.69,-0.09
0.25,-0.66,-0.08
0.26,-0.64,-0.08
0.26,-0.62,-0.08
0.25,-0.62,-0.09
0.24,-0.63,-0.09
0.24,-0.64,-0.09
0.22,-0.64,-0.09
0.21,-0.65,-0.09
0.21,-0.66,-0.09
0.2,-0.67,-0.09
0.19,-0.69,-0.09
0.18,-0.7,-0.08
0.19,-0.72,-0.08
0.2,-0.74,-0.09
0.21,-0.77,-0.09
0.22,-0.79,-0.09
0.22,-0.81,-0.08
0.23,-0.83,-0.09
0.23,-0.84,-0.09
0.24,-0.86,-0.09
0.25,-0.88,-0.09
0.26,-0.89,-0.09
0.27,-0.91,-0.08
0.28,-0.96,-0.08
0.29,-0.99,-0.08
0.29,-1.01,-0.08
0.31,-1.02,-0.08
0.32,-1.04,-0.08
0.34,-1.07,-0.07
0.35,-1.12,-0.07
0.37,-1.16,-0.06
0.38,-1.21,-0.06
0.39,-1.28,-0.05
0.39,-1.36,-0.05
0.38,-1.48,-0.06
0.34,-1.58,-0.07
0.31,-1.67,-0.08
0.32,-1.75,-0.1
0.35,-1.77,-0.11
0.36,-1.74,-0.11
0.39,-1.67,-0.09
0.41,-1.61,-0.07
0.45,-1.56,-0.05
0.49,-1.48,-0.02
0.53,-1.39,-0.01
0.56,-1.31,0.01
0.56,-1.22,0.02
0.53,-1.15,0.02
0.51,-1.1,0.02
0.51,-1.08,0.01
0.49,-1.15,0
0.48,-1.22,-0.01
0.49,-1.27,-0.02
0.49,-1.33,-0.01
0.5,-1.41,-0.01
0.49,-1.47,-0.01
0.5,-1.48,-0.01
0.5,-1.41,-0.01
0.5,-1.29,0
0.5,-1.17,0.02
0.51,-1.06,0.03
0.53,-0.96,0.03
0.54,-0.89,0.03
0.56,-0.83,0.04
0.58,-0.79,0.05
0.6,-0.77,0.05
0.61,-0.78,0.04
0.62,-0.79,0.03
0.63,-0.79,0.04
0.63,-0.78,0.04
0.63,-0.77,0.06
0.62,-0.78,0.08
0.61,-0.8,0.1
0.61,-0.82,0.11
0.62,-0.85,0.11
0.63,-0.88,0.09
0.65,-0.92,0.08
0.65,-0.93,0.08
0.66,-0.94,0.08
0.66,-0.96,0.08
0.65,-0.99,0.08
0.64,-1.02,0.08
0.62,-1.06,0.08
0.61,-1.1,0.08
0.6,-1.14,0.07
0.59,-1.18,0.06
0.58,-1.23,0.05
0.58,-1.27,0.05
0.59,-1.32,0.05
0.6,-1.4,0.05
0.59,-1.48,0.06
0.58,-1.55,0.07
0.58,-1.59,0.07
0.58,-1.59,0.05
0.57,-1.59,0.04
0.57,-1.6,0.02
0.58,-1.6,0.01
0.56,-1.62,0.01
0.53,-1.62,0
0.51,-1.6,0
0.5,-1.58,0
0.48,-1.56,-0.01
0.42,-1.55,-0.02
0.38,-1.57,-0.03
0.34,-1.57,-0.03
0.3,-1.57,-0.02
0.27,-1.54,-0.03
0.26,-1.5,-0.05
0.24,-1.44,-0.06
0.22,-1.39,-0.08
0.21,-1.36,-0.09
0.19,-1.31,-0.1
0.15,-1.25,-0.09
0.1,-1.17,-0.1
0.05,-1.08,-0.11
0.03,-1.01,-0.12
0.01,-0.95,-0.12
0.01,-0.9,-0.09
0.04,-0.86,-0.07
0.06,-0.8,-0.07
0.08,-0.75,-0.08
0.08,-0.74,-0.09
0.07,-0.74,-0.1
0.07,-0.74,-0.12
0.06,-0.73,-0.12
0.04,-0.72,-0.11
0.02,-0.71,-0.11
0.01,-0.71,-0.1
0,-0.68,-0.09
0.01,-0.67,-0.09
0.01,-0.65,-0.09
0.02,-0.64,-0.09
0.04,-0.64,-0.09
0.06,-0.64,-0.08
0.08,-0.65,-0.09
0.09,-0.66,-0.09
0.1,-0.69,-0.09
0.1,-0.72,-0.08
0.12,-0.74,-0.08
0.13,-0.76,-0.08
0.14,-0.78,-0.07
0.15,-0.8,-0.07
0.16,-0.84,-0.08
0.18,-0.89,-0.08
0.19,-0.96,-0.09
0.2,-1.03,-0.1
0.22,-1.11,-0.11
0.24,-1.2,-0.12
0.25,-1.29,-0.12
0.26,-1.36,-0.13
0.26,-1.4,-0.12
0.28,-1.44,-0.12
0.31,-1.49,-0.12
0.33,-1.56,-0.09
0.38,-1.65,-0.09
0.41,-1.67,-0.08
0.43,-1.64,-0.06
0.44,-1.59,-0.04
0.47,-1.53,-0.04
0.5,-1.49,-0.04
0.52,-1.47,-0.04
0.55,-1.48,-0.02
0.56,-1.51,0
0.58,-1.57,0.01
0.57,-1.68,0.02
0.68,-1.73,0
0.74,-1.73,-0.02
0.68,-1.75,-0.02
0.68,-1.73,-0.02
0.67,-1.66,0.02
0.67,-1.55,0.08
0.68,-1.47,0.12
0.69,-1.39,0.12
0.67,-1.29,0.11
0.63,-1.17,0.1
0.61,-1.07,0.11
0.61,-0.98,0.11
0.62,-0.92,0.12
0.63,-0.88,0.13
0.64,-0.87,0.12
0.68,-0.87,0.13
0.66,-0.88,0.13
0.64,-0.9,0.12
0.65,-0.91,0.12
0.66,-0.9,0.11
0.65,-0.91,0.11
0.63,-0.92,0.1
0.59,-0.92,0.11
0.58,-0.92,0.12
0.59,-0.92,0.11
0.62,-0.95,0.09
0.62,-0.98,0.08
0.64,-0.99,0.07
0.68,-0.98,0.08
0.69,-0.97,0.08
0.68,-0.98,0.09
0.68,-1.02,0.11
0.68,-1.08,0.1
0.68,-1.12,0.08
0.65,-1.13,0.08
0.66,-1.13,0.1
0.68,-1.16,0.11
0.68,-1.22,0.1
0.68,-1.29,0.08
0.68,-1.36,0.06
0.68,-1.45,0.01
0.63,-1.6,-0.02
0.6,-1.61,-0.03
0.55,-1.59,-0.03
0.5,-1.54,-0.07
0.34,-1.58,-0.03
0.27,-1.62,0.12
0.42,-1.53,-0.04
0.58,-1.59,-0.19
0.57,-1.82,-0.08
0.43,-2.08,-0.08
0.36,-2.18,-0.12
0.41,-2.05,-0.09
0.39,-1.89,-0.05
0.31,-1.78,-0.05
0.33,-1.68,-0.1
0.33,-1.62,-0.15
0.32,-1.56,-0.14
0.32,-1.46,-0.11
0.3,-1.37,-0.08
0.27,-1.28,-0.06
0.25,-1.21,-0.05
0.24,-1.13,-0.07
0.23,-1.06,-0.1
0.21,-1,-0.11
0.2,-0.94,-0.12
0.2,-0.89,-0.13
0.19,-0.83,-0.13
0.18,-0.84,-0.14
0.17,-0.84,-0.15
0.13,-0.84,-0.15
0.09,-0.85,-0.16
0.07,-0.84,-0.17
0.06,-0.81,-0.17
0.05,-0.76,-0.16
0.03,-0.7,-0.15
0.03,-0.65,-0.14
0.05,-0.62,-0.14
0.06,-0.59,-0.14
0.08,-0.56,-0.15
0.09,-0.54,-0.15
0.09,-0.54,-0.16
0.1,-0.53,-0.17
0.1,-0.53,-0.17
0.1,-0.54,-0.16
0.11,-0.55,-0.15
0.12,-0.57,-0.14
0.12,-0.59,-0.13
0.14,-0.62,-0.13
0.17,-0.65,-0.14
0.19,-0.69,-0.15
0.22,-0.72,-0.15
0.24,-0.75,-0.14
0.25,-0.81,-0.14
0.26,-0.84,-0.13
0.27,-0.88,-0.12
0.28,-0.94,-0.12
0.29,-1.01,-0.12
0.29,-1.09,-0.12
0.31,-1.18,-0.1
0.33,-1.28,-0.09
0.33,-1.39,-0.07
0.33,-1.49,-0.07
0.37,-1.56,-0.09
0.36,-1.62,-0.07
0.35,-1.64,-0.05
0.37,-1.62,-0.04
0.37,-1.62,-0.03
0.38,-1.64,-0.03
0.41,-1.64,-0.04
0.46,-1.62,-0.02
0.51,-1.58,0
0.54,-1.53,0.02
0.55,-1.51,0.04
0.54,-1.5,0.1
0.55,-1.52,0.13
0.58,-1.58,0.08
0.6,-1.63,0.05
0.62,-1.61,0.04
0.69,-1.58,-0.01
0.62,-1.56,-0.03
0.53,-1.54,-0.02
0.52,-1.55,0.01
0.55,-1.57,0.03
0.57,-1.57,0.03
0.59,-1.53,0.05
0.61,-1.46,0.06
0.63,-1.37,0.07
0.68,-1.27,0.1
0.71,-1.18,0.11
0.7,-1.1,0.11
0.69,-1.01,0.13
0.68,-0.95,0.13
0.68,-0.9,0.13
0.71,-0.84,0.13
0.7,-0.8,0.14
0.65,-0.79,0.14
0.64,-0.79,0.14
0.68,-0.76,0.15
0.7,-0.74,0.17
0.71,-0.75,0.17
0.73,-0.77,0.18
0.73,-0.81,0.17
0.72,-0.87,0.14
0.73,-0.91,0.12
0.75,-0.97,0.1
0.72,-1,0.1
0.7,-1.03,0.1
0.68,-1.05,0.09
0.67,-1.08,0.09
0.66,-1.12,0.08
0.66,-1.17,0.06
0.65,-1.24,0.04
0.63,-1.31,0.02
0.63,-1.38,0
0.63,-1.46,0.01
0.62,-1.56,0.03
0.62,-1.69,0.01
0.6,-1.78,-0.03
0.55,-1.79,-0.05
0.51,-1.75,-0.05
0.5,-1.68,-0.05
0.5,-1.63,-0.03
0.49,-1.57,-0.04
0.47,-1.52,-0.04
0.45,-1.46,-0.06
0.43,-1.38,-0.08
0.42,-1.32,-0.07
0.43,-1.28,-0.07
0.44,-1.3,-0.07
0.43,-1.36,-0.08
0.42,-1.45,-0.12
0.39,-1.49,-0.16
0.37,-1.52,-0.18
0.36,-1.56,-0.19
0.33,-1.6,-0.19
0.32,-1.62,-0.17
0.31,-1.61,-0.16
0.28,-1.54,-0.16
0.25,-1.46,-0.16
0.22,-1.36,-0.18
0.22,-1.24,-0.18
0.22,-1.09,-0.16
0.21,-0.96,-0.15
0.21,-0.84,-0.13
0.23,-0.76,-0.13
0.24,-0.71,-0.13
0.23,-0.66,-0.14
0.22,-0.64,-0.14
0.22,-0.62,-0.15
0.2,-0.61,-0.13
0.17,-0.6,-0.13
0.15,-0.59,-0.13
0.14,-0.58,-0.11
0.13,-0.58,-0.1
0.12,-0.59,-0.1
0.12,-0.61,-0.1
0.12,-0.64,-0.1
0.11,-0.68,-0.1
0.1,-0.7,-0.09
0.09,-0.71,-0.08
0.08,-0.72,-0.09
0.09,-0.73,-0.09
0.11,-0.74,-0.1
0.12,-0.76,-0.1
0.13,-0.78,-0.09
0.15,-0.79,-0.09
0.17,-0.81,-0.09
0.2,-0.83,-0.09
0.21,-0.86,-0.09
0.22,-0.88,-0.09
0.24,-0.89,-0.08
0.25,-0.9,-0.07
0.26,-0.92,-0.05
0.27,-0.95,-0.05
0.3,-0.99,-0.07
0.32,-1.06,-0.06
0.35,-1.14,-0.06
0.37,-1.23,-0.06
0.37,-1.32,-0.06
0.39,-1.4,-0.06
0.42,-1.47,-0.06
0.43,-1.54,-0.07
0.42,-1.61,-0.08
0.46,-1.65,-0.08
0.48,-1.64,-0.07
0.49,-1.62,-0.04
0.52,-1.61,-0.02
0.55,-1.59,0
0.6,-1.55,0.05
0.59,-1.52,0.02
0.55,-1.52,-0.04
0.57,-1.5,-0.05
0.63,-1.44,-0.08
0.62,-1.43,-0.09
0.54,-1.47,-0.05
0.52,-1.5,-0.02
0.55,-1.51,-0.02
0.57,-1.52,-0.01
0.56,-1.51,0.01
0.55,-1.47,0.01
0.58,-1.42,-0.01
0.57,-1.36,-0.02
0.56,-1.29,-0.02
0.57,-1.21,-0.01
0.58,-1.12,0
0.58,-1.03,0.02
0.57,-0.96,0.02
0.56,-0.91,0.03
0.56,-0.88,0.03
0.56,-0.87,0.03
0.56,-0.87,0.03
0.58,-0.86,0.04
0.6,-0.85,0.04
0.61,-0.86,0.04
0.63,-0.88,0.06
0.65,-0.88,0.09
0.67,-0.87,0.12
0.69,-0.87,0.13
0.73,-0.88,0.12
0.75,-0.9,0.11
0.78,-0.92,0.11
0.8,-0.92,0.09
0.8,-0.92,0.09
0.8,-0.92,0.1
0.79,-0.92,0.11
0.77,-0.94,0.12
0.76,-0.98,0.12
0.75,-1.03,0.11
0.74,-1.08,0.08
0.73,-1.14,0.05
0.7,-1.2,0.03
0.68,-1.26,0
0.67,-1.34,-0.02
0.64,-1.42,-0.02
0.6,-1.48,-0.02
0.51,-1.55,-0.01
0.48,-1.58,-0.03
0.45,-1.61,-0.05
0.45,-1.65,-0.06
0.47,-1.7,-0.07
0.49,-1.77,-0.08
0.49,-1.82,-0.1
0.46,-1.79,-0.11
0.43,-1.68,-0.1
0.4,-1.58,-0.09
0.39,-1.52,-0.09
0.38,-1.49,-0.09
0.38,-1.47,-0.09
0.36,-1.47,-0.08
0.35,-1.46,-0.09
0.33,-1.45,-0.12
0.31,-1.43,-0.14
0.27,-1.4,-0.14
0.25,-1.36,-0.13
0.24,-1.31,-0.12
0.23,-1.29,-0.12
0.24,-1.28,-0.13
0.25,-1.28,-0.13
0.25,-1.29,-0.14
0.25,-1.27,-0.13
0.24,-1.25,-0.14
0.22,-1.15,-0.14
0.21,-1.09,-0.14
0.19,-0.99,-0.15
0.17,-0.91,-0.15
0.16,-0.83,-0.12
0.15,-0.78,-0.13
0.13,-0.77,-0.13
0.12,-0.73,-0.12
0.11,-0.67,-0.12
0.09,-0.63,-0.11
0.08,-0.6,-0.11
0.07,-0.57,-0.11
0.07,-0.56,-0.12
0.06,-0.55,-0.12
0.06,-0.54,-0.12
0.06,-0.54,-0.11
0.07,-0.56,-0.11
0.09,-0.58,-0.11
0.1,-0.59,-0.11
0.11,-0.6,-0.11
0.12,-0.6,-0.11
0.14,-0.62,-0.11
0.15,-0.64,-0.11
0.16,-0.66,-0.12
0.17,-0.7,-0.12
0.18,-0.74,-0.11
0.21,-0.85,-0.12
0.22,-0.93,-0.12
0.23,-1.01,-0.13
0.25,-1.09,-0.15
0.26,-1.17,-0.15
0.27,-1.23,-0.15
0.28,-1.28,-0.16
0.31,-1.33,-0.16
0.34,-1.36,-0.16
0.37,-1.39,-0.15
0.4,-1.43,-0.14
0.43,-1.47,-0.11
0.46,-1.53,-0.08
0.5,-1.58,-0.05
0.55,-1.61,-0.03
0.58,-1.64,-0.01
0.57,-1.65,0.01
0.56,-1.66,0.01
0.55,-1.65,0.01
0.54,-1.64,0
0.54,-1.64,0.02
0.51,-1.66,0.13
0.48,-1.68,0.12
0.48,-1.69,0.04
0.55,-1.69,0.07
0.64,-1.67,0.06
0.54,-1.56,0.1
0.57,-1.49,0.13
0.62,-1.41,0.14
0.63,-1.33,0.14
0.61,-1.24,0.13
0.59,-1.17,0.13
0.58,-1.1,0.12
0.57,-1.03,0.12
0.57,-0.98,0.13
0.56,-0.94,0.14
0.55,-0.91,0.13
0.55,-0.88,0.14
0.54,-0.88,0.15
0.52,-0.9,0.15
0.53,-0.89,0.15
0.53,-0.88,0.15
0.53,-0.87,0.14
0.55,-0.87,0.13
0.57,-0.86,0.12
0.58,-0.85,0.12
0.59,-0.86,0.13
0.61,-0.88,0.13
0.63,-0.89,0.12
0.65,-0.91,0.11
0.69,-0.92,0.09
0.67,-0.94,0.08
0.67,-1,0.07
0.72,-1,0.05
0.68,-1.02,0.04
0.63,-1.05,0.04
0.63,-1.09,0.04
0.64,-1.12,0.04
0.63,-1.15,0.05
0.59,-1.18,0.08
0.55,-1.22,0.11
0.53,-1.25,0.1
0.52,-1.3,0.06
0.51,-1.34,0.02
0.52,-1.38,0
0.54,-1.41,0
0.57,-1.41,0.02
0.6,-1.4,0.01
0.59,-1.38,-0.02
0.58,-1.38,-0.03
0.57,-1.37,-0.04
0.57,-1.41,-0.05
0.57,-1.48,-0.09
0.54,-1.57,-0.12
0.49,-1.64,-0.13
0.45,-1.66,-0.12
0.43,-1.63,-0.11
0.43,-1.58,-0.11
0.42,-1.52,-0.12
0.39,-1.5,-0.12
0.37,-1.46,-0.13
0.34,-1.42,-0.14
0.32,-1.36,-0.14
0.31,-1.3,-0.14
0.29,-1.23,-0.14
0.27,-1.16,-0.12
0.26,-1.1,-0.11
0.27,-1.04,-0.13
0.27,-1,-0.13
0.26,-0.98,-0.13
0.26,-0.97,-0.14
0.26,-0.98,-0.15
0.25,-0.97,-0.15
0.24,-0.95,-0.15
0.24,-0.93,-0.16
0.21,-0.91,-0.16
0.18,-0.86,-0.15
0.18,-0.81,-0.14
0.18,-0.77,-0.15
0.18,-0.75,-0.16
0.17,-0.72,-0.15
0.16,-0.69,-0.15
0.15,-0.66,-0.14
0.16,-0.64,-0.14
0.16,-0.61,-0.14
0.15,-0.6,-0.13
0.15,-0.6,-0.12
0.16,-0.6,-0.12
0.16,-0.62,-0.11
0.16,-0.64,-0.11
0.17,-0.66,-0.11
0.18,-0.67,-0.1
0.19,-0.68,-0.08
0.2,-0.69,-0.08
0.21,-0.71,-0.07
0.22,-0.73,-0.07
0.24,-0.75,-0.07
0.24,-0.77,-0.06
0.26,-0.79,-0.05
0.27,-0.82,-0.04
0.28,-0.85,-0.03
0.29,-0.89,-0.02
0.3,-0.95,-0.02
0.31,-1.01,-0.02
0.32,-1.07,-0.01
0.33,-1.13,-0.01
0.34,-1.2,0.01
0.35,-1.29,0.03
0.37,-1.36,0.03
0.38,-1.42,0.04
0.38,-1.52,0.04
0.38,-1.56,0.04
0.4,-1.59,0.04
0.4,-1.67,0.07
0.41,-1.71,0.06
0.46,-1.7,0.04
0.47,-1.68,0.05
0.47,-1.61,0.07
0.5,-1.54,0.07
0.53,-1.48,0.07
0.54,-1.43,0.15
0.54,-1.41,0.14
0.57,-1.43,0.07
0.61,-1.45,0.07
0.62,-1.45,0.07
0.58,-1.46,0.07
0.56,-1.48,0.07
0.55,-1.47,0.06
0.53,-1.44,0.06
0.52,-1.4,0.08
0.51,-1.34,0.1
0.51,-1.28,0.1
0.5,-1.22,0.11
0.49,-1.15,0.12
0.49,-1.07,0.13
0.5,-1.01,0.13
0.5,-0.92,0.12
0.5,-0.88,0.13
0.49,-0.85,0.13
0.49,-0.84,0.12
0.49,-0.83,0.12
0.5,-0.82,0.12
0.51,-0.83,0.12
0.51,-0.83,0.12
0.52,-0.85,0.12
0.54,-0.87,0.11
0.56,-0.88,0.09
0.58,-0.89,0.09
0.58,-0.9,0.08
0.57,-0.9,0.08
0.58,-0.89,0.09
0.58,-0.89,0.09
0.58,-0.89,0.09
0.57,-0.9,0.08
0.56,-0.92,0.07
0.55,-0.95,0.07
0.54,-0.98,0.07
0.54,-1.02,0.06
0.54,-1.08,0.05
0.54,-1.14,0.04
0.53,-1.21,0.03
0.53,-1.29,0.02
0.54,-1.36,0
0.53,-1.46,-0.03
0.53,-1.5,-0.06
0.53,-1.53,-0.1
0.54,-1.56,-0.13
0.55,-1.56,-0.16
0.55,-1.52,-0.18
0.57,-1.43,-0.2
0.57,-1.34,-0.21
0.44,-1.29,-0.12
0.45,-1.23,-0.12
0.56,-1.19,-0.22
0.51,-1.17,-0.24
0.42,-1.17,-0.23
0.44,-1.21,-0.25
0.48,-1.24,-0.27
0.49,-1.27,-0.29
0.47,-1.3,-0.31
0.45,-1.34,-0.32
0.45,-1.36,-0.32
0.43,-1.38,-0.33
0.39,-1.39,-0.33
0.36,-1.38,-0.33
0.34,-1.34,-0.34
0.33,-1.28,-0.35
0.32,-1.23,-0.35
0.32,-1.16,-0.34
0.33,-1.14,-0.35
0.33,-1.11,-0.34
0.34,-1.06,-0.34
0.35,-0.99,-0.34
0.36,-0.91,-0.34
0.36,-0.82,-0.33
0.35,-0.75,-0.33
0.36,-0.69,-0.33
0.36,-0.64,-0.33
0.37,-0.61,-0.33
0.37,-0.58,-0.32
0.37,-0.56,-0.31
0.37,-0.55,-0.31
0.37,-0.53,-0.31
0.36,-0.52,-0.33
0.36,-0.51,-0.34
0.42,-0.5,-0.28
0.44,-0.51,-0.28
0.44,-0.51,-0.28
0.45,-0.52,-0.26
0.46,-0.52,-0.24
0.48,-0.53,-0.22
0.5,-0.54,-0.17
0.54,-0.57,-0.14
0.54,-0.6,-0.12
0.54,-0.62,-0.09
0.55,-0.64,-0.05
0.57,-0.66,0
0.6,-0.69,0.05
0.64,-0.71,0.1
0.66,-0.74,0.13
0.67,-0.76,0.16
0.64,-0.79,0.17
0.6,-0.83,0.18
0.55,-0.87,0.2
0.51,-0.92,0.22
0.49,-0.95,0.24
0.47,-0.98,0.28
0.46,-1.01,0.31
0.47,-1.05,0.32
0.49,-1.1,0.31
0.5,-1.13,0.28
0.49,-1.15,0.27
0.45,-1.2,0.27
0.43,-1.29,0.26
0.41,-1.34,0.24
0.38,-1.31,0.26
0.34,-1.27,0.29
0.31,-1.29,0.28
0.31,-1.19,0.31
0.33,-1.11,0.31
0.35,-1.09,0.27
0.33,-1.05,0.26
0.31,-1.02,0.25
0.31,-1.03,0.24
0.3,-1.05,0.22
0.29,-1.08,0.22
0.27,-1.11,0.21
0.27,-1.14,0.19
0.28,-1.17,0.16
0.29,-1.21,0.14
0.28,-1.35,0.17
0.25,-1.25,0.21
0.25,-0.97,0.23
0.28,-1,0.2
0.29,-1.12,0.13
0.29,-1.13,0.13
0.29,-1.06,0.14
0.29,-1.03,0.13
0.28,-1.03,0.11
0.28,-1.02,0.11
0.3,-1.01,0.11
0.33,-1,0.1
0.37,-0.99,0.08
0.39,-0.98,0.08
0.45,-0.96,0.07
0.46,-0.97,0.07
0.47,-0.98,0.08
0.47,-0.98,0.1
0.46,-0.98,0.12
0.47,-0.97,0.13
0.47,-0.97,0.13
0.46,-0.97,0.13
0.46,-0.97,0.13
0.45,-0.96,0.13
0.44,-0.94,0.13
0.42,-0.93,0.13
0.42,-0.92,0.14
0.42,-0.92,0.15
0.41,-0.91,0.15
0.4,-0.91,0.16
0.4,-0.91,0.15
0.39,-0.91,0.15
0.39,-0.9,0.15
0.39,-0.9,0.14
0.38,-0.89,0.14
0.38,-0.9,0.13
0.36,-0.9,0.13
0.35,-0.9,0.13
0.23,-0.95,0.12
0.23,-0.93,0.13
0.23,-0.91,0.12
0.23,-0.9,0.12
0.23,-0.9,0.13
0.23,-0.91,0.13
0.24,-0.91,0.13
0.24,-0.91,0.12
0.24,-0.93,0.12
0.25,-0.94,0.13
0.25,-0.95,0.12
0.25,-0.97,0.12
0.25,-0.98,0.12
0.25,-0.99,0.12
0.25,-0.99,0.12
0.25,-0.98,0.12
0.25,-0.97,0.12
0.25,-0.95,0.12
0.27,-0.94,0.11
0.3,-0.94,0.1
0.36,-0.97,0.07
0.34,-0.92,0.11
0.32,-0.92,0.12
0.27,-0.96,0.11
0.2,-0.97,0.12
0.13,-0.94,0.15
0.1,-0.92,0.17
0.11,-0.93,0.16
0.14,-0.94,0.14
0.16,-0.94,0.13
0.18,-0.94,0.13
0.19,-0.94,0.13
0.19,-0.93,0.13
0.2,-0.95,0.11
0.21,-0.96,0.1
0.21,-0.97,0.09
0.2,-0.99,0.09
0.16,-1.01,0.07
0.12,-1,0.06
0.11,-0.96,0.06
0.11,-0.93,0.05
0.13,-0.91,0.04
0.14,-0.89,0.03
0.14,-0.89,-0.01
0.15,-0.9,-0.04
0.18,-0.9,-0.08
0.19,-0.91,-0.1
0.2,-1.04,-0.11
0.18,-1.1,-0.11
0.14,-1.13,-0.12
0.12,-1.17,-0.15
0.12,-1.15,-0.16
0.1,-1.08,-0.13
0.07,-1.03,-0.12
0.08,-1,-0.11
0.11,-0.99,-0.1
0.13,-0.99,-0.11
0.14,-0.99,-0.1
0.16,-0.97,-0.07
0.18,-0.97,-0.05
0.22,-0.97,-0.03
0.26,-0.97,0
0.32,-0.99,0.02
0.35,-1.01,0.02
0.35,-1.02,0.02
0.33,-0.99,0.04
0.32,-0.96,0.05
0.33,-0.95,0.06
0.36,-0.94,0.08
0.39,-0.92,0.11
0.42,-0.91,0.14
0.44,-0.89,0.15
0.45,-0.88,0.15
0.44,-0.87,0.13
0.42,-0.85,0.14
0.42,-0.85,0.16
0.42,-0.84,0.17
0.42,-0.83,0.18
0.43,-0.82,0.2
0.42,-0.8,0.21
0.42,-0.8,0.23
0.45,-0.81,0.25
0.48,-0.83,0.29
0.49,-0.89,0.34
0.5,-0.94,0.38
0.48,-0.97,0.4
0.45,-1.01,0.4
0.43,-1.05,0.38
0.44,-1.06,0.37
0.48,-1.05,0.36
0.52,-1.05,0.36
0.57,-1.06,0.35
0.61,-1.06,0.35
0.66,-1.06,0.34
0.71,-1.08,0.36
0.77,-1.1,0.39
0.82,-1.11,0.43
0.86,-1.11,0.46
0.87,-1.09,0.48
0.87,-1,0.51
0.87,-0.95,0.51
0.87,-0.88,0.5
0.86,-0.8,0.49
0.84,-0.71,0.47
0.82,-0.62,0.44
0.79,-0.54,0.42
0.75,-0.47,0.4
0.73,-0.42,0.39
0.71,-0.36,0.4
0.69,-0.33,0.42
0.66,-0.32,0.42
0.64,-0.32,0.41
0.64,-0.3,0.42
0.64,-0.3,0.42
0.64,-0.31,0.43
0.65,-0.31,0.45
0.68,-0.32,0.46
0.71,-0.34,0.46
0.74,-0.36,0.46
0.78,-0.38,0.45
0.8,-0.4,0.45
0.81,-0.42,0.46
0.81,-0.44,0.47
0.82,-0.45,0.48
0.83,-0.47,0.5
0.81,-0.5,0.52
0.81,-0.5,0.52
0.78,-0.5,0.5
0.75,-0.5,0.47
0.72,-0.5,0.42
0.68,-0.51,0.37
0.62,-0.54,0.38
0.58,-0.56,0.44
0.55,-0.6,0.53
0.54,-0.64,0.6
0.55,-0.67,0.65
0.64,-0.67,0.82
0.65,-0.79,0.87
0.63,-0.78,0.71
0.72,-0.67,0.59
0.77,-0.73,0.48
0.78,-0.79,0.39
0.78,-0.78,0.35
0.78,-0.76,0.33
0.77,-0.73,0.35
0.77,-0.7,0.36
0.73,-0.66,0.36
0.7,-0.62,0.36
0.7,-0.59,0.37
0.73,-0.58,0.38
0.75,-0.58,0.39
0.8,-0.6,0.4
0.8,-0.61,0.41
0.78,-0.62,0.42
0.76,-0.63,0.43
0.77,-0.63,0.44
0.79,-0.62,0.44
0.78,-0.62,0.44
0.74,-0.6,0.44
0.72,-0.6,0.45
0.71,-0.59,0.46
0.71,-0.59,0.46
0.71,-0.57,0.47
0.7,-0.55,0.49
0.7,-0.53,0.52
0.68,-0.51,0.54
0.66,-0.49,0.55
0.64,-0.47,0.54
0.63,-0.46,0.53
0.63,-0.45,0.52
0.6,-0.45,0.52
0.58,-0.46,0.54
0.57,-0.49,0.57
0.56,-0.51,0.58
0.59,-0.52,0.59
0.69,-0.51,0.61
0.78,-0.5,0.63
0.82,-0.47,0.64
0.78,-0.44,0.61
0.76,-0.44,0.59
0.74,-0.44,0.56
0.71,-0.45,0.53
0.69,-0.46,0.52
0.7,-0.46,0.5
0.73,-0.46,0.5
0.75,-0.45,0.5
0.76,-0.44,0.5
0.76,-0.44,0.5
0.75,-0.44,0.5
0.75,-0.43,0.5
0.75,-0.44,0.5
0.75,-0.45,0.5
0.75,-0.47,0.49
0.76,-0.48,0.47
0.75,-0.5,0.45
0.69,-0.54,0.47
0.61,-0.62,0.59
0.62,-0.66,0.73
0.69,-0.62,0.77
0.69,-0.59,0.73
0.66,-0.6,0.7
0.65,-0.6,0.69
0.66,-0.57,0.67
0.7,-0.54,0.57
0.72,-0.5,0.52
0.7,-0.5,0.48
0.7,-0.5,0.45
0.68,-0.5,0.44
0.67,-0.52,0.44
0.66,-0.54,0.46
0.64,-0.55,0.49
0.63,-0.55,0.51
0.63,-0.55,0.53
0.64,-0.54,0.53
0.64,-0.54,0.54
0.63,-0.54,0.56
0.62,-0.54,0.56
0.61,-0.53,0.57
0.6,-0.54,0.58
0.59,-0.54,0.59
0.58,-0.54,0.59
0.59,-0.55,0.6
0.59,-0.56,0.62
0.6,-0.56,0.62
0.61,-0.57,0.62
0.61,-0.56,0.62
0.61,-0.56,0.6
0.61,-0.55,0.59
0.61,-0.54,0.58
0.62,-0.53,0.56
0.62,-0.51,0.56
0.63,-0.5,0.57
0.63,-0.5,0.59
0.64,-0.49,0.6
0.65,-0.49,0.62
0.65,-0.48,0.64
0.65,-0.47,0.65
0.65,-0.47,0.66
0.66,-0.47,0.67
0.66,-0.47,0.67
0.66,-0.47,0.67
0.65,-0.46,0.66
