Acc_x,Acc_y,Acc_z
0,0,0
0,0,0
0,0,0
0,0,0
0,0,0
0,0,0
0,0,0
0,0,0
0,0,0
0,0,0
0,0,0
0,0,0
0,0,0
0,0,0
0,0,0
0,0,0
0,0,0
0,0,0
0,0,0
0,0,0
0,0,0
0,0,0
0,0,0
0,0,0
0,0,0
0,0,0
0,0,0
0,0,0
0,0,0
0,0,0
0,0,0
0,0,0
0,0,0
0,0,0
0,0,0
0,0,0
0,0,0
0,0,0
0,0,0
0,0,0
0,0,0
0,0,0
0,0,0
0,0,0
0,0,0
0,0,0
0,0,0
0,0,0
0,0,0
0,0,0
0,0,0
0,0,0
0,0,0
0,0,0
0,0,0
0,0,0
0,0,0
0,0,0
0,0,0
0,0,0
0,0,0
0,0,0
0,0,0
0,0,0
0,0,0
0,0,0
0,0,0
0,0,0
0,0,0
0,0,0
0,0,0
0,0,0
0,0,0
0,0,0
0,0,0
0,0,0
0,0,0
0,0,0
0,0,0
0,0,0
0,0,0
0,0,0
0,0,0
0,0,0
0,0,0
0,0,0
0,0,0
0,0,0
0,0,0
0,0,0
0,0,0
0,0,0
0,0,0
0,0,0
0,0,0
0,0,0
0,0,0
0,0,0
0,0,0
0,0,0
0,0,0
0,0,0
0,0,0
0,0,0
0,0,0
0,0,0
0,0,0
0,0,0
0,0,0
0,0,0
0,0,0
0,0,0
0,0,0
0,0,0
0,0,0
0,0,0
0,0,0
0,0,0
0,0,0
0,0,0
0,0,0
0,0,0
0,0,0
0,0,0
0,0,0
0,0,0
0,0,0
0,0,0
0,0,0
0,0,0
0,0,0
0,0,0
0,0,0
0,0,0
0,0,0
0,0,0
0,0,0
0,0,0
0,0,0
0,0,0
0,0,0
0,0,0
0,0,0
0,0,0
0,0,0
0,0,0
0,0,0
0,0,0
0,0,0
0,0,0
0,0,0
0,0,0
0,0,0
0,0,0
0,0,0
0,0,0
0,0,0
0,0,0
0,0,0
0,0,0
0,0,0
0,0,0
0,0,0
0,0,0
0,0,0
0,0,0
0,0,0
0,0,0
0,0,0
0,0,0
0,0,0
0,0,0
0,0,0
0,0,0
0,0,0
0,0,0
0,0,0
0,0,0
0,0,0
0,0,0
0,0,0
0,0,0
0,0,0
0,0,0
0,0,0
0,0,0
0,0,0
0,0,0
0,0,0
0,0,0
0,0,0
0,0,0
0.11,0.85,0.11
0.1,0.86,0.14
0.08,0.88,0.18
0.07,0.89,0.19
0.07,0.89,0.2
0.08,0.85,0.22
0.09,0.8,0.23
0.06,0.78,0.23
0.01,0.79,0.26
-0.04,0.82,0.29
-0.06,0.86,0.33
-0.09,0.82,0.34
-0.1,0.77,0.35
-0.12,0.74,0.35
-0.14,0.73,0.37
-0.16,0.76,0.39
-0.17,0.8,0.41
-0.18,0.81,0.42
-0.18,0.8,0.43
-0.19,0.76,0.43
-0.21,0.73,0.44
-0.22,0.73,0.45
-0.22,0.75,0.46
-0.22,0.75,0.47
-0.23,0.74,0.48
-0.24,0.74,0.48
-0.25,0.74,0.49
-0.25,0.76,0.5
-0.24,0.78,0.49
-0.24,0.79,0.49
-0.23,0.8,0.51
-0.23,0.8,0.51
-0.23,0.82,0.5
-0.22,0.83,0.49
-0.21,0.82,0.47
-0.2,0.81,0.46
-0.19,0.81,0.43
-0.15,0.81,0.4
-0.15,0.82,0.37
-0.15,0.83,0.36
-0.15,0.85,0.35
-0.13,0.88,0.35
-0.1,0.9,0.34
-0.06,0.9,0.33
-0.03,0.9,0.33
-0.02,0.88,0.32
0,0.86,0.31
0.01,0.83,0.29
0.01,0.81,0.28
0,0.82,0.28
0,0.84,0.28
0.02,0.85,0.28
0.03,0.85,0.28
0.03,0.85,0.28
0.03,0.85,0.27
0.03,0.84,0.26
0.04,0.82,0.25
0.04,0.8,0.25
0.05,0.79,0.25
0.07,0.81,0.23
0.09,0.83,0.23
0.11,0.82,0.22
0.11,0.79,0.21
0.12,0.7,0.19
0.12,0.64,0.18
0.12,0.58,0.16
0.13,0.58,0.15
0.16,0.63,0.14
0.21,0.66,0.14
0.25,0.66,0.15
0.28,0.66,0.15
0.29,0.64,0.14
0.29,0.63,0.13
0.29,0.65,0.11
0.31,0.67,0.1
0.34,0.67,0.1
0.36,0.66,0.11
0.38,0.64,0.1
0.4,0.63,0.1
0.4,0.63,0.1
0.41,0.62,0.09
0.44,0.64,0.08
0.48,0.67,0.06
0.51,0.68,0.06
0.52,0.67,0.07
0.53,0.62,0.06
0.54,0.56,0.04
0.56,0.5,0.03
0.59,0.47,0.02
0.67,0.46,0.01
0.69,0.45,0
0.72,0.44,-0.02
0.75,0.42,-0.04
0.79,0.39,-0.04
0.84,0.37,-0.03
0.87,0.35,-0.03
0.86,0.35,-0.03
0.84,0.38,-0.04
0.86,0.39,-0.06
0.9,0.35,-0.07
0.92,0.32,-0.07
0.94,0.31,-0.06
0.99,0.31,-0.03
1.02,0.31,-0.02
1.04,0.32,-0.02
1.05,0.28,0.01
1.06,0.23,0.04
1.05,0.22,0.05
1.03,0.22,0.04
1.04,0.24,0
1.06,0.27,-0.04
1.09,0.29,-0.04
1.12,0.28,-0.02
1.13,0.24,0
1.14,0.18,0.05
1.14,0.06,0.06
1.16,0.01,0.07
1.18,-0.03,0.08
1.18,-0.05,0.08
1.17,-0.07,0.07
1.18,-0.09,0.06
1.2,-0.12,0.06
1.19,-0.16,0.06
1.16,-0.19,0.05
1.17,-0.22,0.06
1.19,-0.24,0.08
1.21,-0.26,0.08
1.21,-0.29,0.07
1.19,-0.31,0.06
1.16,-0.33,0.04
1.14,-0.35,0.04
1.12,-0.37,0.03
1.1,-0.4,0.02
1.11,-0.41,0.01
1.14,-0.41,0.02
1.15,-0.42,0.03
1.12,-0.44,0.02
1.1,-0.46,0.02
1.08,-0.5,0
1.05,-0.53,-0.02
1,-0.57,-0.04
1.01,-0.63,-0.01
1.06,-0.64,0.02
1.07,-0.65,0.04
1.06,-0.65,0.02
1.06,-0.67,0
1.05,-0.68,-0.03
1.02,-0.7,-0.05
0.99,-0.72,-0.06
0.97,-0.74,-0.08
0.98,-0.76,-0.07
1.02,-0.77,-0.03
1.06,-0.78,0.04
1.08,-0.78,0.08
1.08,-0.79,0.08
1.04,-0.8,0.07
1.01,-0.8,0.06
1,-0.83,0.06
0.98,-0.87,0.06
0.97,-0.87,0.08
1,-0.87,0.13
1.03,-0.86,0.2
1.01,-0.82,0.23
0.98,-0.8,0.25
0.94,-0.78,0.25
0.92,-0.78,0.19
0.93,-0.77,0.18
0.91,-0.76,0.12
0.9,-0.76,0.13
0.89,-0.77,0.18
0.87,-0.78,0.21
0.85,-0.77,0.21
0.84,-0.77,0.19
0.83,-0.76,0.18
0.84,-0.76,0.15
0.85,-0.76,0.13
0.85,-0.77,0.13
0.85,-0.77,0.13
0.84,-0.78,0.13
0.84,-0.79,0.15
0.86,-0.78,0.18
0.87,-0.78,0.19
0.88,-0.78,0.19
0.9,-0.8,0.21
0.95,-0.81,0.24
1.03,-0.82,0.27
1.12,-0.85,0.28
1.16,-0.87,0.25
1.17,-0.85,0.22
1.18,-0.79,0.2
1.22,-0.74,0.2
1.29,-0.72,0.2
1.33,-0.71,0.19
1.34,-0.7,0.14
1.31,-0.65,0.1
1.3,-0.64,0.05
1.3,-0.64,0.01
1.28,-0.65,-0.02
1.26,-0.65,-0.04
1.24,-0.64,-0.06
1.23,-0.62,-0.06
1.23,-0.61,-0.08
1.22,-0.6,-0.1
1.21,-0.58,-0.12
1.2,-0.57,-0.15
1.2,-0.56,-0.18
1.18,-0.54,-0.2
1.17,-0.53,-0.21
1.15,-0.53,-0.21
1.13,-0.52,-0.22
1.11,-0.5,-0.22
1.11,-0.47,-0.21
1.12,-0.44,-0.2
1.12,-0.41,-0.19
1.11,-0.38,-0.2
1.1,-0.36,-0.2
1.09,-0.35,-0.2
1.09,-0.34,-0.2
1.09,-0.33,-0.19
1.07,-0.32,-0.15
1.07,-0.26,-0.16
1.05,-0.23,-0.18
1.04,-0.21,-0.18
1.04,-0.2,-0.17
1.02,-0.19,-0.17
1,-0.17,-0.17
0.98,-0.14,-0.17
0.97,-0.1,-0.16
0.97,-0.07,-0.15
0.96,-0.05,-0.14
0.93,-0.04,-0.14
0.91,-0.02,-0.14
0.9,0.01,-0.14
0.89,0.04,-0.14
0.89,0.07,-0.14
0.88,0.09,-0.13
0.87,0.1,-0.12
0.85,0.12,-0.11
0.83,0.15,-0.1
0.81,0.2,-0.11
0.8,0.24,-0.11
0.81,0.26,-0.12
0.8,0.25,-0.12
0.79,0.26,-0.11
0.79,0.28,-0.11
0.77,0.28,-0.06
0.74,0.4,-0.03
0.76,0.44,0
0.76,0.46,0.05
0.74,0.49,0.09
0.71,0.52,0.1
0.71,0.55,0.1
0.71,0.59,0.09
0.71,0.6,0.07
0.71,0.6,0.07
0.69,0.61,0.06
0.68,0.65,0.06
0.65,0.64,0.05
0.62,0.64,0.05
0.62,0.67,0.05
0.6,0.66,0.02
0.58,0.66,0.02
0.56,0.67,0.03
0.53,0.68,0.01
0.51,0.69,-0.01
0.5,0.69,0
0.48,0.7,0.01
0.45,0.71,0.02
0.42,0.72,0.02
0.39,0.73,0
0.36,0.73,0
0.34,0.74,0.03
0.3,0.73,0.03
0.29,0.74,0.04
0.27,0.73,0.05
0.26,0.73,0.06
0.23,0.74,0.08
0.21,0.76,0.1
0.2,0.77,0.13
0.19,0.76,0.16
0.19,0.74,0.19
0.17,0.73,0.2
0.14,0.76,0.2
0.11,0.81,0.19
0.11,0.86,0.17
0.11,0.91,0.17
0.12,0.94,0.17
0.1,0.94,0.17
0.06,0.91,0.17
0.03,0.88,0.17
0.03,0.85,0.16
0.02,0.86,0.16
0.01,0.87,0.17
0,0.87,0.18
0,0.86,0.19
0,0.84,0.2
0,0.83,0.21
-0.01,0.83,0.24
-0.03,0.85,0.25
-0.04,0.84,0.26
-0.05,0.83,0.27
-0.06,0.83,0.27
-0.07,0.83,0.25
-0.09,0.8,0.24
-0.1,0.77,0.25
-0.13,0.76,0.25
-0.15,0.78,0.26
-0.17,0.81,0.26
-0.2,0.86,0.27
-0.23,0.87,0.27
-0.26,0.86,0.26
-0.27,0.84,0.25
-0.27,0.81,0.24
-0.28,0.78,0.25
-0.3,0.78,0.26
-0.32,0.83,0.27
-0.36,0.88,0.26
-0.38,0.88,0.26
-0.38,0.86,0.26
-0.39,0.83,0.26
-0.38,0.8,0.27
-0.37,0.78,0.28
-0.37,0.8,0.3
-0.37,0.84,0.3
-0.36,0.85,0.31
-0.35,0.84,0.31
-0.34,0.83,0.32
-0.31,0.83,0.32
-0.29,0.84,0.33
-0.29,0.85,0.34
-0.3,0.86,0.34
-0.29,0.86,0.32
-0.26,0.86,0.31
-0.24,0.86,0.3
-0.22,0.86,0.3
-0.21,0.86,0.31
-0.21,0.86,0.31
-0.21,0.87,0.32
-0.2,0.87,0.31
-0.18,0.88,0.29
-0.15,0.88,0.26
-0.15,0.88,0.23
-0.14,0.88,0.22
-0.12,0.87,0.22
-0.12,0.86,0.22
-0.12,0.85,0.23
-0.11,0.85,0.23
-0.09,0.86,0.23
-0.07,0.89,0.22
-0.06,0.91,0.2
-0.05,0.9,0.16
-0.02,0.88,0.14
0,0.86,0.13
0.01,0.85,0.13
0.02,0.85,0.14
0.04,0.86,0.15
0.05,0.87,0.15
0.06,0.86,0.15
0.06,0.84,0.14
0.07,0.82,0.13
0.09,0.8,0.11
0.11,0.8,0.1
0.12,0.81,0.09
0.12,0.82,0.09
0.12,0.83,0.09
0.12,0.82,0.1
0.12,0.81,0.1
0.13,0.77,0.08
0.15,0.75,0.06
0.16,0.74,0.06
0.18,0.75,0.05
0.2,0.78,0.04
0.22,0.8,0.05
0.24,0.78,0.05
0.25,0.75,0.05
0.24,0.71,0.04
0.25,0.72,0
0.29,0.73,-0.01
0.33,0.75,-0.01
0.36,0.75,0
0.37,0.74,0.01
0.37,0.71,0
0.39,0.72,-0.02
0.41,0.73,-0.04
0.43,0.73,-0.07
0.46,0.72,-0.08
0.48,0.71,-0.09
0.5,0.69,-0.08
0.52,0.66,-0.08
0.55,0.67,-0.1
0.57,0.69,-0.12
0.6,0.67,-0.14
0.63,0.62,-0.16
0.64,0.57,-0.18
0.66,0.53,-0.21
0.66,0.54,-0.26
0.66,0.59,-0.28
0.66,0.64,-0.29
0.67,0.64,-0.29
0.69,0.61,-0.3
0.73,0.56,-0.29
0.74,0.5,-0.29
0.74,0.45,-0.29
0.74,0.45,-0.3
0.78,0.48,-0.32
0.81,0.48,-0.32
0.82,0.46,-0.32
0.84,0.41,-0.31
0.87,0.35,-0.3
0.88,0.3,-0.28
0.88,0.3,-0.27
0.89,0.31,-0.28
0.92,0.32,-0.28
0.95,0.32,-0.27
0.95,0.31,-0.25
0.94,0.29,-0.22
0.93,0.24,-0.21
0.88,0.17,-0.22
0.82,0.12,-0.23
0.8,0.1,-0.22
0.84,0.09,-0.21
0.93,0.06,-0.22
1.03,0,-0.24
1.12,-0.07,-0.24
1.21,-0.13,-0.23
1.25,-0.16,-0.27
1.24,-0.19,-0.32
1.17,-0.21,-0.35
1.13,-0.22,-0.33
1.12,-0.24,-0.33
1.15,-0.29,-0.3
1.23,-0.35,-0.23
1.31,-0.41,-0.17
1.33,-0.43,-0.15
1.32,-0.43,-0.13
1.28,-0.42,-0.14
1.2,-0.42,-0.18
1.09,-0.43,-0.19
1,-0.45,-0.18
0.98,-0.45,-0.16
1.04,-0.45,-0.12
1.14,-0.45,-0.05
1.22,-0.46,0
1.23,-0.46,-0.01
1.19,-0.47,-0.04
1.15,-0.49,-0.05
1.12,-0.53,-0.07
1.1,-0.57,-0.07
1.09,-0.58,-0.08
1.1,-0.59,-0.09
1.1,-0.61,-0.11
1.11,-0.64,-0.09
1.15,-0.62,0.02
1.15,-0.64,0.09
1.09,-0.67,0.05
0.99,-0.65,-0.03
0.98,-0.67,-0.11
1,-0.63,-0.1
1,-0.65,-0.05
0.96,-0.77,-0.03
0.98,-0.8,0.03
0.94,-0.81,0.16
0.86,-0.79,0.24
0.84,-0.72,0.26
0.73,-0.75,0.17
0.73,-0.68,0.14
0.79,-0.69,0.1
0.84,-0.74,0.01
0.9,-0.74,0.03
0.91,-0.81,0.04
0.91,-0.79,0.11
0.9,-0.76,0.18
0.85,-0.75,0.18
0.78,-0.76,0.18
0.77,-0.78,0.14
0.78,-0.81,0.11
0.8,-0.81,0.13
0.83,-0.81,0.16
0.88,-0.81,0.17
0.9,-0.8,0.19
0.91,-0.79,0.19
0.92,-0.76,0.2
0.94,-0.76,0.21
0.96,-0.76,0.22
0.98,-0.76,0.21
1.01,-0.77,0.21
1.04,-0.78,0.22
1.07,-0.78,0.22
1.08,-0.77,0.2
1.08,-0.75,0.15
1.08,-0.75,0.13
1.12,-0.75,0.13
1.16,-0.76,0.13
1.18,-0.77,0.13
1.2,-0.77,0.12
1.21,-0.76,0.1
1.21,-0.75,0.06
1.22,-0.76,0.04
1.22,-0.77,0.02
1.22,-0.77,0.01
1.22,-0.75,-0.01
1.2,-0.73,-0.03
1.19,-0.71,-0.04
1.22,-0.7,-0.04
1.23,-0.71,-0.03
1.21,-0.72,-0.02
1.21,-0.71,-0.01
1.24,-0.66,-0.02
1.24,-0.63,-0.04
1.25,-0.61,-0.06
1.26,-0.6,-0.05
1.26,-0.58,-0.03
1.25,-0.57,-0.03
1.23,-0.56,-0.05
1.21,-0.54,-0.09
1.2,-0.52,-0.11
1.2,-0.52,-0.12
1.18,-0.52,-0.14
1.15,-0.52,-0.16
1.16,-0.51,-0.17
1.17,-0.48,-0.18
1.16,-0.46,-0.18
1.14,-0.45,-0.18
1.09,-0.44,-0.2
1.06,-0.43,-0.23
1.08,-0.39,-0.24
1.08,-0.36,-0.26
1.07,-0.34,-0.29
1.07,-0.33,-0.3
1.06,-0.32,-0.3
1.04,-0.29,-0.3
1.01,-0.26,-0.3
0.99,-0.25,-0.29
0.98,-0.24,-0.28
0.93,-0.21,-0.3
0.93,-0.16,-0.32
0.95,-0.12,-0.33
0.96,-0.09,-0.33
0.94,-0.07,-0.33
0.92,-0.05,-0.31
0.9,-0.06,-0.3
0.86,-0.03,-0.29
0.83,0.02,-0.29
0.82,0.08,-0.3
0.82,0.12,-0.32
0.81,0.16,-0.34
0.8,0.18,-0.35
0.78,0.21,-0.35
0.77,0.22,-0.35
0.76,0.24,-0.33
0.76,0.23,-0.32
0.74,0.24,-0.38
0.69,0.28,-0.4
0.68,0.32,-0.36
0.72,0.35,-0.37
0.69,0.4,-0.4
0.67,0.44,-0.37
0.65,0.45,-0.34
0.66,0.45,-0.33
0.65,0.39,-0.43
0.54,0.37,-0.37
0.51,0.42,-0.33
0.49,0.46,-0.32
0.51,0.49,-0.31
0.5,0.5,-0.31
0.47,0.52,-0.31
0.48,0.54,-0.32
0.47,0.59,-0.34
0.45,0.62,-0.37
0.42,0.63,-0.36
0.34,0.64,-0.33
0.28,0.67,-0.29
0.31,0.68,-0.26
0.36,0.7,-0.24
0.36,0.7,-0.21
0.34,0.72,-0.18
0.33,0.74,-0.16
0.33,0.74,-0.17
0.3,0.76,-0.17
0.26,0.79,-0.17
0.25,0.8,-0.16
0.24,0.8,-0.14
0.23,0.81,-0.13
0.2,0.81,-0.12
0.19,0.82,-0.13
0.18,0.82,-0.12
0.12,0.82,-0.1
0.1,0.82,-0.07
0.08,0.84,-0.05
0.06,0.84,-0.04
0.04,0.83,-0.03
0.03,0.82,-0.02
0.01,0.78,0
-0.01,0.77,0.01
-0.02,0.78,0.01
-0.01,0.78,0
-0.01,0.79,0
-0.03,0.79,0.02
-0.06,0.77,0.04
-0.1,0.72,0.06
-0.13,0.68,0.08
-0.16,0.64,0.07
-0.19,0.59,0.07
-0.22,0.57,0.07
-0.24,0.58,0.08
-0.25,0.61,0.11
-0.26,0.63,0.15
-0.3,0.67,0.18
-0.38,0.75,0.23
-0.43,0.79,0.27
-0.44,0.8,0.29
-0.47,0.81,0.32
-0.49,0.84,0.33
-0.51,0.85,0.37
-0.53,0.87,0.4
-0.55,0.89,0.41
-0.55,0.89,0.41
-0.54,0.87,0.41
-0.52,0.86,0.42
-0.49,0.85,0.42
-0.46,0.86,0.4
-0.43,0.85,0.38
-0.4,0.83,0.37
-0.38,0.82,0.36
-0.38,0.82,0.36
-0.37,0.83,0.36
-0.37,0.85,0.35
-0.36,0.9,0.33
-0.34,0.91,0.29
-0.33,0.9,0.27
-0.32,0.87,0.26
-0.32,0.85,0.26
-0.31,0.84,0.25
-0.31,0.83,0.26
-0.31,0.84,0.25
-0.29,0.87,0.23
-0.27,0.87,0.2
-0.26,0.87,0.18
-0.25,0.83,0.2
-0.26,0.81,0.2
-0.26,0.81,0.19
-0.25,0.83,0.17
-0.23,0.83,0.14
-0.21,0.82,0.11
-0.18,0.81,0.09
-0.15,0.78,0.09
-0.15,0.75,0.12
-0.14,0.74,0.13
-0.14,0.77,0.13
-0.13,0.78,0.13
-0.12,0.78,0.11
-0.1,0.77,0.09
-0.07,0.74,0.07
-0.05,0.71,0.06
-0.04,0.68,0.06
-0.02,0.68,0.06
0.02,0.71,0.07
0.07,0.73,0.08
0.12,0.73,0.08
0.14,0.72,0.07
0.14,0.69,0.05
0.17,0.63,0.03
0.19,0.57,0.02
0.22,0.54,0.03
0.32,0.64,0.03
0.37,0.66,0.02
0.42,0.65,0.01
0.46,0.62,-0.01
0.48,0.56,-0.01
0.49,0.49,-0.02
0.5,0.43,-0.03
0.51,0.45,-0.05
0.53,0.52,-0.06
0.59,0.59,-0.08
0.67,0.62,-0.1
0.72,0.62,-0.11
0.73,0.58,-0.11
0.74,0.5,-0.11
0.73,0.42,-0.12
0.7,0.36,-0.15
0.69,0.38,-0.17
0.73,0.45,-0.19
0.8,0.51,-0.2
0.86,0.52,-0.2
0.88,0.48,-0.2
0.89,0.42,-0.22
0.91,0.34,-0.23
0.92,0.27,-0.26
0.94,0.25,-0.31
0.96,0.25,-0.32
0.99,0.3,-0.3
1.02,0.31,-0.28
1.04,0.27,-0.29
1.04,0.2,-0.29
1.05,0.11,-0.3
1.07,0.03,-0.32
1.1,-0.01,-0.36
1.12,-0.02,-0.4
1.15,0.01,-0.42
1.19,0.03,-0.42
1.23,0.01,-0.42
1.26,-0.05,-0.39
1.29,-0.13,-0.36
1.28,-0.2,-0.33
1.23,-0.24,-0.32
1.16,-0.25,-0.33
1.11,-0.21,-0.35
1.12,-0.15,-0.36
1.17,-0.11,-0.33
1.21,-0.11,-0.29
1.24,-0.14,-0.24
1.23,-0.18,-0.22
1.18,-0.2,-0.22
1.17,-0.22,-0.24
1.18,-0.23,-0.26
1.19,-0.23,-0.26
1.15,-0.24,-0.26
1.14,-0.23,-0.29
1.15,-0.24,-0.3
1.18,-0.26,-0.28
1.2,-0.29,-0.26
1.21,-0.32,-0.23
1.19,-0.34,-0.22
1.16,-0.38,-0.23
1.14,-0.42,-0.22
1.12,-0.46,-0.21
1.11,-0.49,-0.18
1.15,-0.52,-0.11
1.2,-0.52,-0.01
1.2,-0.51,0.07
1.15,-0.49,0.08
1.09,-0.5,0.04
1.07,-0.53,-0.02
1.05,-0.57,-0.04
1.01,-0.61,-0.03
0.99,-0.65,-0.03
0.98,-0.69,-0.03
0.99,-0.7,-0.03
1.03,-0.7,0.02
1.04,-0.68,0.08
1.01,-0.59,0.11
0.95,-0.65,0.09
0.93,-0.65,-0.03
0.84,-0.55,-0.11
0.73,-0.8,-0.09
0.78,-0.94,-0.04
0.84,-0.7,0.08
0.8,-0.65,0.11
0.81,-0.7,0.09
0.84,-0.72,0.08
0.82,-0.72,0.07
0.8,-0.71,0.05
0.8,-0.73,0.03
0.79,-0.73,0.02
0.78,-0.74,0.02
0.81,-0.75,0.04
0.82,-0.76,0.07
0.85,-0.74,0.08
0.86,-0.73,0.07
0.88,-0.72,0.06
0.9,-0.73,0.04
0.91,-0.74,0.03
0.94,-0.73,0.03
0.97,-0.72,0.05
0.96,-0.71,0.07
0.99,-0.71,0.08
1.03,-0.72,0.09
1.03,-0.73,0.09
1.04,-0.74,0.1
1.07,-0.75,0.1
1.07,-0.75,0.09
1.08,-0.74,0.09
1.1,-0.73,0.08
1.12,-0.72,0.07
1.14,-0.73,0.07
1.18,-0.74,0.05
1.21,-0.74,0.02
1.24,-0.73,-0.01
1.3,-0.72,-0.03
1.34,-0.73,-0.03
1.38,-0.74,-0.02
1.39,-0.75,-0.02
1.39,-0.75,-0.05
1.39,-0.72,-0.05
1.42,-0.69,-0.04
1.45,-0.66,-0.03
1.43,-0.65,-0.03
1.4,-0.65,-0.05
1.36,-0.66,-0.09
1.35,-0.65,-0.12
1.35,-0.64,-0.14
1.34,-0.61,-0.14
1.32,-0.58,-0.14
1.31,-0.56,-0.17
1.28,-0.48,-0.2
1.28,-0.47,-0.22
1.26,-0.47,-0.25
1.24,-0.44,-0.26
1.21,-0.4,-0.26
1.21,-0.35,-0.24
1.21,-0.32,-0.23
1.2,-0.31,-0.23
1.17,-0.31,-0.24
1.14,-0.31,-0.25
1.13,-0.3,-0.27
1.12,-0.28,-0.28
1.11,-0.27,-0.29
1.08,-0.26,-0.29
1.05,-0.25,-0.3
1.03,-0.23,-0.3
1.01,-0.2,-0.29
1,-0.17,-0.29
0.99,-0.16,-0.28
0.96,-0.13,-0.29
0.93,-0.09,-0.3
0.91,-0.05,-0.3
0.89,-0.03,-0.28
0.88,-0.02,-0.25
0.87,0.01,-0.22
0.85,0.04,-0.22
0.83,0.08,-0.21
0.81,0.15,-0.22
0.79,0.18,-0.22
0.76,0.22,-0.22
0.74,0.25,-0.2
0.74,0.28,-0.18
0.75,0.32,-0.18
0.76,0.33,-0.18
0.77,0.34,-0.2
0.74,0.34,-0.21
0.71,0.33,-0.18
0.7,0.35,-0.15
0.67,0.39,-0.11
0.67,0.45,-0.08
0.7,0.5,-0.09
0.7,0.49,-0.11
0.65,0.47,-0.1
0.6,0.49,-0.09
0.6,0.54,-0.13
0.63,0.61,-0.13
0.6,0.64,-0.1
0.54,0.64,-0.08
0.5,0.61,-0.05
0.48,0.59,-0.05
0.48,0.62,-0.03
0.47,0.65,-0.01
0.44,0.67,-0.05
0.4,0.69,-0.05
0.38,0.69,-0.02
0.35,0.69,-0.01
0.32,0.69,-0.01
0.29,0.7,0.01
0.26,0.71,0.04
0.25,0.71,0.05
0.23,0.72,0.05
0.19,0.74,0.06
0.16,0.75,0.08
0.14,0.73,0.09
0.1,0.73,0.11
0.05,0.75,0.11
0.03,0.79,0.11
0.02,0.84,0.11
0.02,0.84,0.11
0,0.81,0.08
-0.03,0.77,0.07
-0.06,0.75,0.06
-0.08,0.75,0.06
-0.1,0.74,0.07
-0.14,0.74,0.09
-0.15,0.76,0.12
-0.16,0.8,0.15
-0.18,0.82,0.17
-0.2,0.84,0.15
-0.25,0.83,0.14
-0.27,0.81,0.13
-0.3,0.82,0.15
-0.32,0.84,0.2
-0.34,0.84,0.23
-0.37,0.84,0.24
-0.38,0.84,0.25
-0.38,0.83,0.24
-0.4,0.83,0.22
-0.41,0.85,0.22
-0.42,0.87,0.23
-0.44,0.84,0.23
-0.47,0.81,0.23
-0.49,0.81,0.23
-0.51,0.79,0.23
-0.5,0.75,0.23
-0.5,0.72,0.24
-0.5,0.73,0.24
-0.5,0.76,0.24
-0.51,0.78,0.24
-0.52,0.77,0.25
-0.51,0.73,0.27
-0.51,0.69,0.3
-0.51,0.68,0.33
-0.52,0.69,0.35
-0.51,0.72,0.33
-0.5,0.74,0.33
-0.49,0.74,0.33
-0.48,0.73,0.33
-0.47,0.72,0.34
-0.46,0.71,0.36
-0.46,0.71,0.37
-0.44,0.72,0.37
-0.43,0.74,0.36
-0.41,0.75,0.35
-0.4,0.76,0.35
-0.39,0.77,0.35
-0.37,0.76,0.35
-0.34,0.75,0.33
-0.32,0.75,0.33
-0.31,0.75,0.32
-0.29,0.77,0.31
-0.28,0.79,0.3
-0.27,0.8,0.29
-0.26,0.8,0.28
-0.23,0.79,0.28
-0.22,0.78,0.27
-0.21,0.79,0.26
-0.19,0.81,0.27
-0.16,0.83,0.28
-0.15,0.85,0.27
-0.13,0.86,0.26
-0.12,0.83,0.26
-0.11,0.8,0.27
-0.11,0.8,0.27
-0.09,0.82,0.25
-0.05,0.82,0.24
-0.03,0.82,0.23
-0.01,0.83,0.22
0,0.82,0.21
0.02,0.79,0.18
0.03,0.75,0.17
0.04,0.74,0.17
0.05,0.74,0.18
0.09,0.76,0.19
0.12,0.77,0.18
0.15,0.77,0.17
0.16,0.76,0.16
0.18,0.71,0.16
0.21,0.65,0.17
0.22,0.62,0.16
0.22,0.64,0.16
0.24,0.67,0.16
0.26,0.68,0.16
0.28,0.68,0.16
0.29,0.66,0.14
0.3,0.62,0.12
0.31,0.59,0.09
0.32,0.52,0.02
0.37,0.49,0
0.4,0.5,0.01
0.44,0.55,0.04
0.48,0.59,0.06
0.51,0.59,0.06
0.53,0.56,0.04
0.54,0.51,0.01
0.55,0.47,-0.03
0.59,0.43,-0.08
0.64,0.42,-0.1
0.7,0.42,-0.1
0.76,0.46,-0.09
0.8,0.5,-0.08
0.83,0.51,-0.08
0.85,0.45,-0.1
0.86,0.38,-0.14
0.86,0.36,-0.19
0.89,0.35,-0.23
0.93,0.33,-0.26
0.96,0.32,-0.27
0.96,0.3,-0.25
0.99,0.27,-0.22
1.02,0.22,-0.2
1.05,0.17,-0.21
1.05,0.12,-0.24
1.03,0.18,-0.26
1.09,0.24,-0.29
1.1,0.26,-0.3
1.12,0.23,-0.31
1.15,0.15,-0.31
1.16,0.08,-0.32
1.15,0.06,-0.35
1.16,0.08,-0.37
1.2,0.15,-0.41
1.2,0.14,-0.41
1.21,0.09,-0.4
1.21,0.03,-0.4
1.21,-0.02,-0.4
1.2,-0.03,-0.42
1.19,-0.01,-0.43
1.19,-0.01,-0.42
1.2,-0.02,-0.4
1.2,-0.05,-0.39
1.26,-0.21,-0.34
1.26,-0.21,-0.34
1.26,-0.22,-0.32
1.22,-0.22,-0.3
1.17,-0.2,-0.31
1.14,-0.24,-0.39
1.06,-0.26,-0.44
1.03,-0.29,-0.49
1.04,-0.33,-0.5
1.1,-0.36,-0.46
1.17,-0.39,-0.43
1.19,-0.4,-0.4
1.18,-0.41,-0.39
1.16,-0.41,-0.39
1.1,-0.42,-0.4
1.02,-0.44,-0.42
0.97,-0.45,-0.45
0.97,-0.47,-0.45
0.99,-0.5,-0.41
1.03,-0.5,-0.37
1.09,-0.46,-0.34
1.08,-0.46,-0.32
1.03,-0.51,-0.34
1.02,-0.52,-0.33
1.02,-0.52,-0.31
1,-0.55,-0.3
0.99,-0.58,-0.28
0.99,-0.59,-0.27
0.99,-0.59,-0.27
0.99,-0.6,-0.28
0.99,-0.6,-0.29
0.99,-0.62,-0.3
0.98,-0.66,-0.26
0.97,-0.67,-0.2
0.94,-0.67,-0.17
0.9,-0.67,-0.18
0.88,-0.66,-0.22
0.89,-0.66,-0.25
0.93,-0.65,-0.26
0.98,-0.63,-0.26
1.02,-0.59,-0.21
1,-0.6,-0.19
0.96,-0.63,-0.2
0.97,-0.63,-0.2
0.98,-0.64,-0.19
1.01,-0.65,-0.19
1.02,-0.65,-0.19
1.03,-0.65,-0.2
1.04,-0.66,-0.2
1.06,-0.67,-0.19
1.09,-0.67,-0.16
1.09,-0.66,-0.15
1.08,-0.65,-0.16
1.08,-0.65,-0.17
1.11,-0.64,-0.2
1.14,-0.64,-0.21
1.17,-0.65,-0.18
1.21,-0.65,-0.12
1.21,-0.63,-0.14
1.22,-0.62,-0.17
1.25,-0.61,-0.19
1.29,-0.6,-0.19
1.34,-0.59,-0.19
1.37,-0.59,-0.19
1.38,-0.6,-0.2
1.39,-0.61,-0.21
1.39,-0.6,-0.23
1.39,-0.6,-0.25
1.4,-0.59,-0.26
1.4,-0.59,-0.27
1.39,-0.58,-0.29
1.39,-0.59,-0.31
1.39,-0.6,-0.33
1.37,-0.6,-0.36
1.35,-0.59,-0.38
1.33,-0.58,-0.4
1.31,-0.57,-0.4
1.29,-0.57,-0.38
1.26,-0.57,-0.37
1.23,-0.57,-0.37
1.2,-0.57,-0.37
1.16,-0.54,-0.38
1.15,-0.5,-0.37
1.15,-0.45,-0.37
1.12,-0.4,-0.37
1.1,-0.41,-0.36
1.06,-0.42,-0.34
1.02,-0.41,-0.34
1,-0.38,-0.36
0.99,-0.34,-0.37
1,-0.3,-0.38
1,-0.28,-0.38
0.99,-0.27,-0.38
0.97,-0.26,-0.37
0.94,-0.26,-0.37
0.91,-0.24,-0.37
0.88,-0.21,-0.37
0.87,-0.15,-0.38
0.86,-0.1,-0.38
0.86,-0.05,-0.37
0.85,-0.02,-0.35
0.83,0,-0.33
0.81,0.03,-0.3
0.82,0.08,-0.29
0.82,0.12,-0.3
0.81,0.15,-0.3
0.8,0.18,-0.3
0.8,0.21,-0.29
0.81,0.25,-0.28
0.8,0.27,-0.28
0.75,0.32,-0.29
0.75,0.37,-0.28
0.75,0.39,-0.28
0.73,0.37,-0.28
0.69,0.38,-0.28
0.66,0.39,-0.27
0.66,0.42,-0.27
0.63,0.44,-0.28
0.61,0.46,-0.28
0.59,0.47,-0.27
0.55,0.48,-0.26
0.51,0.5,-0.26
0.48,0.52,-0.26
0.46,0.54,-0.26
0.46,0.54,-0.25
0.44,0.54,-0.24
0.42,0.54,-0.23
0.4,0.53,-0.21
0.36,0.56,-0.18
0.34,0.59,-0.16
0.33,0.61,-0.13
0.31,0.6,-0.11
0.28,0.57,-0.09
0.22,0.57,-0.08
0.19,0.58,-0.07
0.17,0.6,-0.05
0.15,0.69,-0.04
0.15,0.73,-0.03
0.14,0.77,-0.01
0.13,0.8,0.01
0.12,0.81,0.03
0.1,0.82,0.05
0.08,0.81,0.07
0.06,0.82,0.08
0.04,0.84,0.07
0.02,0.85,0.08
0.01,0.84,0.08
-0.01,0.84,0.09
-0.04,0.84,0.11
-0.07,0.84,0.12
-0.09,0.85,0.14
-0.1,0.87,0.14
-0.12,0.89,0.15
-0.14,0.88,0.15
-0.16,0.85,0.14
-0.18,0.82,0.14
-0.19,0.79,0.15
-0.21,0.77,0.17
-0.24,0.78,0.18
-0.26,0.81,0.19
-0.29,0.83,0.19
-0.33,0.82,0.17
-0.37,0.76,0.16
-0.37,0.7,0.19
-0.36,0.64,0.24
-0.34,0.64,0.28
-0.33,0.67,0.31
-0.35,0.73,0.34
-0.4,0.76,0.36
-0.44,0.78,0.37
-0.48,0.79,0.38
-0.51,0.79,0.41
-0.54,0.78,0.45
-0.55,0.78,0.47
-0.56,0.8,0.49
-0.57,0.82,0.49
-0.56,0.83,0.48
-0.53,0.82,0.46
-0.5,0.81,0.44
-0.48,0.79,0.42
-0.46,0.78,0.4
-0.44,0.78,0.38
-0.42,0.78,0.35
-0.39,0.78,0.32
-0.37,0.79,0.3
-0.36,0.79,0.29
-0.35,0.79,0.27
-0.34,0.78,0.26
-0.32,0.74,0.24
-0.31,0.76,0.23
-0.3,0.78,0.2
-0.28,0.79,0.18
-0.26,0.8,0.15
-0.24,0.79,0.14
-0.23,0.76,0.13
-0.21,0.72,0.13
-0.19,0.7,0.14
-0.17,0.71,0.14
-0.15,0.73,0.13
-0.14,0.74,0.13
-0.14,0.74,0.13
-0.12,0.72,0.13
-0.11,0.68,0.13
-0.09,0.63,0.13
-0.06,0.6,0.12
-0.02,0.6,0.13
0.01,0.64,0.13
0.05,0.67,0.13
0.09,0.66,0.14
0.13,0.63,0.15
0.16,0.58,0.16
0.18,0.53,0.16
0.21,0.49,0.16
0.26,0.53,0.15
0.34,0.64,0.1
0.41,0.63,0.08
0.41,0.61,0.07
0.39,0.58,0.1
0.38,0.57,0.1
0.42,0.58,0.06
0.46,0.62,0.01
0.49,0.66,-0.02
0.51,0.7,-0.04
0.56,0.7,-0.07
0.59,0.66,-0.11
0.61,0.59,-0.16
0.61,0.54,-0.21
0.62,0.52,-0.24
0.63,0.53,-0.26
0.66,0.56,-0.27
0.7,0.58,-0.28
0.75,0.57,-0.29
0.79,0.52,-0.31
0.83,0.43,-0.33
0.85,0.31,-0.35
0.84,0.22,-0.39
0.82,0.23,-0.43
0.87,0.31,-0.44
0.95,0.38,-0.42
0.96,0.4,-0.4
0.94,0.37,-0.39
0.98,0.23,-0.39
1,0.13,-0.39
0.99,0.04,-0.39
0.95,-0.01,-0.4
0.93,-0.01,-0.4
0.92,0.03,-0.42
0.92,0.06,-0.44
0.93,0.05,-0.47
0.94,0.03,-0.46
0.98,-0.01,-0.41
1.06,-0.08,-0.35
1.1,-0.13,-0.31
1.09,-0.13,-0.33
1.05,-0.11,-0.39
1.04,-0.1,-0.45
1.06,-0.12,-0.48
1.11,-0.15,-0.46
1.2,-0.2,-0.41
1.3,-0.28,-0.33
1.37,-0.35,-0.27
1.36,-0.38,-0.26
1.29,-0.37,-0.29
1.23,-0.37,-0.34
1.22,-0.38,-0.37
1.21,-0.39,-0.38
1.18,-0.43,-0.37
1.17,-0.53,-0.34
1.24,-0.58,-0.29
1.27,-0.59,-0.26
1.23,-0.57,-0.26
1.2,-0.57,-0.26
1.17,-0.6,-0.24
1.13,-0.63,-0.19
1.11,-0.66,-0.14
1.09,-0.69,-0.09
1.04,-0.71,-0.03
1.04,-0.7,0.04
1.05,-0.68,0.06
1.05,-0.66,0.06
1.04,-0.63,0.05
1.03,-0.67,0.01
1.02,-0.73,-0.02
1,-0.75,-0.07
0.99,-0.68,-0.06
0.96,-0.83,0.01
0.95,-0.95,0.07
0.95,-0.77,0.18
0.91,-0.72,0.18
0.89,-0.78,0.11
0.87,-0.82,0.06
0.84,-0.8,0.02
0.85,-0.82,0.01
0.87,-0.82,0.01
0.85,-0.84,0.02
0.86,-0.86,0.05
0.83,-0.87,0.06
0.79,-0.83,0.05
0.8,-0.79,0.06
0.8,-0.8,0.06
0.78,-0.77,0.07
0.77,-0.76,0.05
0.77,-0.83,0
0.78,-0.86,0.01
0.78,-0.86,0.03
0.8,-0.85,0.07
0.83,-0.85,0.09
0.83,-0.84,0.09
0.82,-0.84,0.09
0.83,-0.84,0.13
0.82,-0.84,0.13
0.78,-0.85,0.08
0.77,-0.85,0.06
0.77,-0.85,0.05
0.75,-0.85,0.06
0.72,-0.84,0.06
0.71,-0.84,0.06
0.69,-0.84,0.06
0.64,-0.83,0.04
0.63,-0.83,0.02
0.61,-0.83,0.01
0.59,-0.84,0.01
0.58,-0.84,0.01
0.58,-0.84,0
0.57,-0.84,-0.01
0.56,-0.84,0
0.55,-0.84,0
0.55,-0.84,-0.01
0.54,-0.84,-0.02
0.53,-0.84,-0.01
0.52,-0.85,0
0.53,-0.86,0
0.54,-0.86,0.01
0.55,-0.85,0.02
0.55,-0.86,0.04
0.54,-0.85,0.04
0.54,-0.85,0.05
0.55,-0.85,0.05
0.56,-0.85,0.05
0.56,-0.85,0.06
0.57,-0.85,0.08
0.57,-0.85,0.08
0.58,-0.84,0.08
0.59,-0.84,0.08
0.59,-0.83,0.08
0.61,-0.83,0.08
0.57,-0.84,0.08
0.54,-0.83,0.09
0.55,-0.82,0.1
0.57,-0.84,0.1
0.57,-0.84,0.1
0.58,-0.84,0.09
0.58,-0.85,0.08
0.59,-0.85,0.08
0.6,-0.84,0.07
0.6,-0.84,0.07
0.58,-0.84,0.07
0.57,-0.84,0.07
0.56,-0.84,0.06
0.56,-0.84,0.06
0.56,-0.84,0.05
0.55,-0.84,0.04
0.54,-0.84,0.04
0.55,-0.84,0.04
0.55,-0.83,0.04
0.56,-0.83,0.04
0.56,-0.83,0.03
0.56,-0.83,0.03
0.57,-0.83,0.03
0.57,-0.83,0.04
0.58,-0.84,0.05
0.58,-0.85,0.06
0.59,-0.85,0.06
0.6,-0.85,0.06
0.6,-0.84,0.07
0.6,-0.84,0.07
0.6,-0.84,0.07
0.6,-0.84,0.07
0.6,-0.83,0.07
0.6,-0.84,0.07
0.6,-0.84,0.07
0.6,-0.84,0.07
0.6,-0.84,0.06
0.6,-0.84,0.06
0.6,-0.84,0.06
0.6,-0.84,0.06
0.59,-0.84,0.06
0.59,-0.84,0.05
0.59,-0.84,0.06
0.58,-0.84,0.07
0.58,-0.84,0.06
0.57,-0.83,0.05
0.57,-0.83,0.05
0.58,-0.83,0.05
0.57,-0.83,0.05
0.57,-0.83,0.05
0.57,-0.84,0.05
0.57,-0.84,0.05
0.57,-0.84,0.05
0.57,-0.84,0.05
0.57,-0.83,0.06
0.57,-0.83,0.05
0.57,-0.83,0.06
0.57,-0.83,0.06
0.57,-0.83,0.06
0.57,-0.84,0.07
0.58,-0.84,0.07
0.58,-0.84,0.08
0.59,-0.83,0.08
0.59,-0.83,0.08
0.6,-0.83,0.09
0.62,-0.83,0.1
0.65,-0.83,0.11
0.67,-0.84,0.12
0.69,-0.84,0.14
0.71,-0.83,0.16
0.73,-0.83,0.16
0.75,-0.82,0.15
0.77,-0.82,0.14
0.82,-0.81,0.13
0.89,-0.83,0.16
0.97,-0.86,0.23
1.02,-0.9,0.27
1.03,-0.86,0.22
1.15,-0.83,0.17
1.25,-0.8,0.16
1.34,-0.8,0.18
1.4,-0.82,0.21
1.43,-0.83,0.22
1.44,-0.84,0.2
1.46,-0.85,0.17
1.45,-0.84,0.11
1.41,-0.84,0.08
1.39,-0.84,0.07
1.37,-0.83,0.06
1.34,-0.82,0.05
1.31,-0.82,0.06
1.3,-0.82,0.06
1.32,-0.8,0.06
1.33,-0.78,0.06
1.33,-0.75,0.05
1.32,-0.72,0.03
1.33,-0.7,0.02
1.35,-0.68,0.02
1.35,-0.66,0.01
1.34,-0.63,-0.04
1.34,-0.62,-0.1
1.31,-0.63,-0.14
1.28,-0.65,-0.18
1.26,-0.68,-0.19
1.22,-0.68,-0.18
1.2,-0.65,-0.18
1.18,-0.63,-0.2
1.16,-0.59,-0.23
1.16,-0.55,-0.25
1.14,-0.53,-0.27
1.1,-0.51,-0.27
1.07,-0.49,-0.27
1.03,-0.46,-0.27
1,-0.43,-0.26
0.99,-0.38,-0.25
0.98,-0.35,-0.24
0.95,-0.32,-0.24
0.92,-0.28,-0.24
0.9,-0.24,-0.24
0.9,-0.22,-0.23
0.88,-0.19,-0.22
0.85,-0.15,-0.23
0.83,-0.09,-0.24
0.82,-0.04,-0.24
0.82,-0.01,-0.23
0.81,0,-0.21
0.8,0.02,-0.19
0.8,0.04,-0.17
0.79,0.07,-0.15
0.79,0.12,-0.19
0.73,0.26,-0.2
0.68,0.29,-0.22
0.65,0.33,-0.21
0.68,0.3,-0.2
0.64,0.29,-0.19
0.56,0.3,-0.18
0.55,0.38,-0.17
0.58,0.49,-0.16
0.55,0.53,-0.22
0.52,0.52,-0.21
0.47,0.51,-0.17
0.41,0.53,-0.2
0.4,0.55,-0.2
0.42,0.59,-0.17
0.4,0.61,-0.16
0.39,0.58,-0.16
0.37,0.56,-0.15
0.26,0.62,-0.07
0.22,0.62,-0.07
0.22,0.62,-0.07
0.18,0.64,-0.08
0.15,0.66,-0.09
0.12,0.67,-0.07
0.1,0.66,-0.05
0.08,0.72,0.03
0.04,0.74,0.06
0.03,0.75,0.09
0.01,0.75,0.11
-0.02,0.74,0.13
-0.02,0.76,0.15
-0.03,0.78,0.16
-0.04,0.79,0.16
-0.05,0.8,0.18
-0.05,0.81,0.19
-0.06,0.81,0.2
-0.09,0.81,0.2
-0.12,0.81,0.2
-0.14,0.79,0.19
-0.18,0.79,0.2
-0.23,0.78,0.23
-0.25,0.75,0.22
-0.24,0.77,0.22
-0.24,0.79,0.23
-0.27,0.81,0.25
-0.29,0.82,0.28
-0.3,0.82,0.3
-0.31,0.82,0.31
-0.32,0.81,0.33
-0.35,0.78,0.34
-0.38,0.77,0.33
-0.39,0.77,0.32
-0.36,0.79,0.33
-0.34,0.8,0.35
-0.33,0.79,0.38
-0.34,0.78,0.4
-0.34,0.77,0.41
-0.34,0.77,0.41
-0.34,0.78,0.4
-0.33,0.78,0.38
-0.31,0.79,0.36
-0.3,0.8,0.35
-0.29,0.81,0.34
-0.29,0.81,0.34
-0.28,0.81,0.34
-0.27,0.81,0.34
-0.25,0.82,0.33
-0.23,0.83,0.31
-0.22,0.83,0.3
-0.2,0.84,0.28
-0.19,0.84,0.27
-0.19,0.84,0.27
-0.19,0.85,0.25
-0.18,0.86,0.24
-0.15,0.86,0.23
-0.12,0.86,0.23
-0.12,0.84,0.23
-0.1,0.83,0.22
-0.09,0.82,0.21
-0.08,0.83,0.2
-0.07,0.83,0.19
-0.05,0.81,0.17
-0.05,0.79,0.16
-0.03,0.76,0.17
-0.02,0.71,0.18
-0.02,0.66,0.19
-0.01,0.63,0.21
0.01,0.62,0.23
0.03,0.63,0.24
0.08,0.65,0.23
0.13,0.67,0.22
0.14,0.66,0.23
0.14,0.62,0.23
0.15,0.6,0.21
0.16,0.58,0.16
0.18,0.59,0.13
0.2,0.63,0.11
0.22,0.66,0.09
0.25,0.68,0.06
0.3,0.68,0.04
0.34,0.67,0.02
0.35,0.64,0.01
0.35,0.61,0
0.37,0.62,-0.01
0.39,0.64,-0.07
0.48,0.65,-0.11
0.52,0.63,-0.15
0.56,0.58,-0.18
0.59,0.53,-0.2
0.62,0.47,-0.21
0.63,0.43,-0.2
0.63,0.41,-0.2
0.67,0.4,-0.22
0.71,0.38,-0.23
0.75,0.37,-0.25
0.79,0.36,-0.27
0.83,0.34,-0.29
0.84,0.31,-0.31
0.84,0.27,-0.3
0.87,0.22,-0.27
0.86,0.18,-0.24
0.83,0.18,-0.24
0.81,0.22,-0.24
0.83,0.25,-0.25
0.87,0.24,-0.27
0.92,0.19,-0.27
0.98,0.11,-0.26
1.01,0.03,-0.25
1.02,-0.03,-0.26
1,-0.06,-0.28
1.02,0.06,-0.32
1.13,0.12,-0.29
1.2,0.1,-0.25
1.25,0.04,-0.22
1.24,0,-0.22
1.23,-0.05,-0.26
1.23,-0.08,-0.31
1.25,-0.09,-0.33
1.27,-0.1,-0.33
1.27,-0.11,-0.32
1.28,-0.1,-0.3
1.29,-0.11,-0.25
1.31,-0.16,-0.22
1.32,-0.23,-0.21
1.29,-0.29,-0.22
1.24,-0.33,-0.26
1.21,-0.36,-0.28
1.22,-0.38,-0.28
1.25,-0.38,-0.26
1.28,-0.39,-0.24
1.29,-0.39,-0.23
1.26,-0.38,-0.23
1.24,-0.38,-0.23
1.21,-0.39,-0.23
1.18,-0.42,-0.23
1.15,-0.45,-0.22
1.14,-0.47,-0.22
1.15,-0.46,-0.22
1.15,-0.47,-0.22
1.16,-0.49,-0.22
1.16,-0.53,-0.24
1.14,-0.56,-0.24
1.1,-0.58,-0.25
1.06,-0.57,-0.26
1.04,-0.57,-0.27
1.02,-0.57,-0.27
1.03,-0.56,-0.26
1.05,-0.56,-0.27
1.06,-0.56,-0.29
1.06,-0.57,-0.29
1.06,-0.58,-0.29
1.06,-0.59,-0.29
1.03,-0.61,-0.3
1.01,-0.61,-0.3
0.99,-0.62,-0.3
1,-0.63,-0.29
1,-0.64,-0.27
1,-0.64,-0.26
1.01,-0.65,-0.26
1.02,-0.64,-0.26
1.03,-0.63,-0.25
1.05,-0.62,-0.23
1.08,-0.61,-0.17
1.15,-0.58,-0.15
1.16,-0.6,-0.14
1.15,-0.64,-0.12
1.13,-0.65,-0.14
1.09,-0.65,-0.16
1.04,-0.66,-0.17
0.98,-0.68,-0.18
0.94,-0.69,-0.18
0.92,-0.69,-0.2
0.9,-0.68,-0.2
0.86,-0.67,-0.2
0.84,-0.67,-0.21
0.83,-0.67,-0.23
0.81,-0.67,-0.24
0.79,-0.67,-0.24
0.78,-0.67,-0.24
0.78,-0.67,-0.25
0.78,-0.66,-0.24
0.79,-0.66,-0.21
0.79,-0.65,-0.21
0.81,-0.65,-0.22
0.84,-0.65,-0.22
0.86,-0.64,-0.22
0.9,-0.64,-0.21
0.97,-0.63,-0.2
1.03,-0.62,-0.19
1.14,-0.61,-0.21
1.21,-0.61,-0.27
1.27,-0.62,-0.35
1.33,-0.64,-0.36
1.36,-0.65,-0.33
1.4,-0.63,-0.3
1.47,-0.6,-0.28
1.55,-0.57,-0.26
1.58,-0.55,-0.25
1.58,-0.54,-0.26
1.57,-0.51,-0.27
1.57,-0.49,-0.28
1.57,-0.48,-0.27
1.55,-0.47,-0.23
1.52,-0.47,-0.22
1.5,-0.46,-0.21
1.5,-0.45,-0.21
1.51,-0.43,-0.22
1.5,-0.41,-0.25
1.46,-0.38,-0.28
1.44,-0.36,-0.29
1.42,-0.35,-0.3
1.4,-0.34,-0.32
1.38,-0.32,-0.33
1.36,-0.3,-0.32
1.33,-0.29,-0.29
1.28,-0.29,-0.3
1.26,-0.27,-0.31
1.23,-0.26,-0.32
1.21,-0.24,-0.33
1.18,-0.22,-0.34
1.15,-0.22,-0.33
1.11,-0.22,-0.32
1.07,-0.19,-0.32
1.03,-0.16,-0.31
1.01,-0.12,-0.29
0.98,-0.11,-0.29
0.94,-0.09,-0.29
0.91,-0.06,-0.27
0.89,-0.03,-0.24
0.87,0.01,-0.21
0.84,0.03,-0.19
0.83,0.05,-0.18
0.81,0.06,-0.18
0.78,0.07,-0.19
0.76,0.09,-0.21
0.73,0.13,-0.21
0.72,0.17,-0.19
0.71,0.2,-0.17
0.68,0.21,-0.17
0.64,0.22,-0.16
0.62,0.25,-0.13
0.59,0.29,-0.13
0.58,0.34,-0.12
0.56,0.36,-0.11
0.53,0.39,-0.1
0.51,0.43,-0.1
0.5,0.46,-0.09
0.48,0.48,-0.09
0.46,0.49,-0.08
0.43,0.48,-0.06
0.4,0.51,-0.05
0.39,0.55,-0.05
0.39,0.6,-0.05
0.39,0.64,-0.04
0.38,0.65,-0.03
0.36,0.66,-0.01
0.35,0.66,0
0.35,0.66,0.01
0.33,0.66,0.03
0.31,0.64,0.04
0.28,0.66,0.04
0.26,0.71,0.05
0.27,0.75,0.06
0.27,0.75,0.06
0.26,0.76,0.07
0.24,0.77,0.08
0.2,0.79,0.1
0.17,0.81,0.11
0.15,0.81,0.11
0.12,0.79,0.12
0.07,0.79,0.12
0.04,0.8,0.13
0.03,0.79,0.15
0.02,0.8,0.15
0,0.83,0.16
-0.02,0.86,0.16
-0.04,0.86,0.16
-0.05,0.84,0.16
-0.07,0.81,0.16
-0.09,0.78,0.16
-0.1,0.79,0.17
-0.11,0.82,0.2
-0.13,0.84,0.22
-0.16,0.81,0.21
-0.19,0.78,0.19
-0.2,0.76,0.17
-0.2,0.74,0.19
-0.22,0.74,0.21
-0.23,0.78,0.24
-0.24,0.83,0.25
-0.27,0.87,0.26
-0.31,0.89,0.27
-0.33,0.87,0.28
-0.35,0.81,0.3
-0.39,0.81,0.31
-0.41,0.85,0.32
-0.42,0.88,0.32
-0.43,0.89,0.32
-0.43,0.9,0.32
-0.44,0.89,0.32
-0.44,0.87,0.32
-0.44,0.85,0.31
-0.43,0.83,0.3
-0.41,0.83,0.28
-0.39,0.82,0.27
-0.38,0.82,0.27
-0.36,0.84,0.27
-0.35,0.82,0.26
-0.34,0.81,0.26
-0.33,0.81,0.26
-0.32,0.81,0.28
-0.31,0.82,0.29
-0.31,0.84,0.27
-0.31,0.85,0.25
-0.31,0.85,0.25
-0.31,0.84,0.25
-0.3,0.85,0.25
-0.29,0.86,0.24
-0.26,0.87,0.24
-0.25,0.87,0.25
-0.23,0.87,0.25
-0.23,0.86,0.25
-0.23,0.85,0.25
-0.22,0.84,0.25
-0.21,0.85,0.25
-0.2,0.85,0.25
-0.19,0.85,0.24
-0.17,0.85,0.23
-0.16,0.86,0.22
-0.15,0.86,0.22
-0.13,0.86,0.22
-0.12,0.86,0.22
-0.11,0.84,0.22
-0.1,0.82,0.21
-0.1,0.8,0.2
-0.09,0.79,0.19
-0.07,0.79,0.19
-0.06,0.78,0.2
-0.06,0.78,0.2
-0.04,0.77,0.19
-0.03,0.76,0.18
-0.02,0.76,0.17
-0.01,0.76,0.17
0,0.75,0.17
0,0.74,0.16
0.01,0.73,0.15
0.05,0.73,0.16
0.08,0.74,0.17
0.09,0.73,0.17
0.1,0.7,0.16
0.1,0.67,0.16
0.12,0.67,0.15
0.14,0.69,0.15
0.16,0.71,0.15
0.18,0.72,0.16
0.21,0.71,0.16
0.22,0.7,0.15
0.23,0.66,0.15
0.25,0.63,0.14
0.28,0.6,0.11
0.29,0.59,0.08
0.31,0.61,0.06
0.32,0.62,0.05
0.33,0.62,0.04
0.34,0.59,0.04
0.37,0.54,0.05
0.4,0.49,0.05
0.42,0.47,0.02
0.46,0.49,-0.03
0.53,0.52,-0.05
0.6,0.53,-0.04
0.64,0.51,0
0.7,0.38,0.03
0.7,0.33,0.03
0.7,0.32,-0.01
0.73,0.33,-0.06
0.81,0.31,-0.09
0.89,0.3,-0.09
0.95,0.3,-0.07
1,0.27,-0.05
1.05,0.21,-0.05
1.07,0.15,-0.05
1.06,0.09,-0.04
1.06,0.03,-0.05
1.07,0.02,-0.07
1.11,0.08,-0.06
1.17,0.14,-0.03
1.18,0.18,0
1.19,0.19,0.02
1.23,0.17,0.05
1.27,0.13,0.06
1.27,0.1,0.02
1.23,0.09,-0.05
1.2,0.11,-0.14
1.2,0.11,-0.19
1.23,0.07,-0.18
1.26,0,-0.14
1.26,-0.05,-0.08
1.29,-0.13,-0.09
1.29,-0.16,-0.12
1.28,-0.16,-0.17
1.26,-0.17,-0.21
1.24,-0.2,-0.24
1.24,-0.23,-0.25
1.26,-0.27,-0.23
1.27,-0.3,-0.21
1.27,-0.31,-0.2
1.25,-0.31,-0.21
1.24,-0.29,-0.22
1.21,-0.29,-0.25
1.17,-0.3,-0.26
1.13,-0.32,-0.28
1.11,-0.35,-0.3
1.1,-0.39,-0.31
1.12,-0.42,-0.31
1.15,-0.44,-0.32
1.14,-0.44,-0.33
1.12,-0.46,-0.34
1.09,-0.48,-0.34
1.08,-0.51,-0.32
1.05,-0.53,-0.29
0.98,-0.55,-0.28
0.93,-0.58,-0.29
0.91,-0.6,-0.24
0.98,-0.46,-0.23
0.93,-0.48,-0.2
0.88,-0.55,-0.18
0.92,-0.49,-0.21
0.91,-0.5,-0.26
0.92,-0.52,-0.29
0.93,-0.54,-0.29
0.94,-0.59,-0.26
0.95,-0.63,-0.22
0.98,-0.65,-0.17
1,-0.68,-0.15
0.98,-0.68,-0.13
0.94,-0.68,-0.11
0.98,-0.69,-0.13
1,-0.68,-0.14
0.95,-0.67,-0.16
0.95,-0.68,-0.15
1.02,-0.69,-0.1
1.11,-0.7,-0.03
1.15,-0.67,0.01
1.18,-0.68,0.02
1.23,-0.68,0.04
1.28,-0.7,0.03
1.25,-0.71,0.04
1.18,-0.74,0.06
1.08,-0.75,0
0.99,-0.81,-0.05
0.91,-0.81,-0.06
0.84,-0.82,-0.06
0.78,-0.8,-0.06
0.76,-0.8,-0.06
0.74,-0.79,-0.07
0.7,-0.79,-0.08
0.68,-0.78,-0.11
0.67,-0.79,-0.13
0.67,-0.79,-0.12
0.67,-0.79,-0.12
0.67,-0.8,-0.11
0.67,-0.81,-0.12
0.66,-0.81,-0.12
0.65,-0.81,-0.11
0.64,-0.81,-0.09
0.64,-0.8,-0.09
0.64,-0.8,-0.09
0.63,-0.8,-0.08
0.63,-0.8,-0.07
0.64,-0.8,-0.06
0.66,-0.8,-0.05
0.67,-0.81,-0.05
0.67,-0.81,-0.04
0.67,-0.81,-0.03
0.67,-0.8,-0.03
0.66,-0.81,-0.03
0.66,-0.81,-0.01
0.68,-0.81,0
0.7,-0.8,0
0.72,-0.8,-0.02
0.73,-0.8,-0.04
0.74,-0.8,-0.05
0.73,-0.79,-0.06
0.71,-0.79,-0.08
0.71,-0.79,-0.1
0.72,-0.78,-0.1
0.72,-0.77,-0.11
0.72,-0.77,-0.12
0.72,-0.76,-0.13
0.72,-0.75,-0.13
0.71,-0.75,-0.13
0.69,-0.77,-0.13
0.69,-0.77,-0.11
0.71,-0.75,-0.1
0.72,-0.74,-0.11
0.71,-0.73,-0.11
0.7,-0.74,-0.09
0.72,-0.73,-0.09
0.71,-0.73,-0.1
0.7,-0.74,-0.11
0.71,-0.73,-0.12
0.73,-0.74,-0.1
0.74,-0.74,-0.08
0.76,-0.72,-0.08
0.78,-0.71,-0.08
0.8,-0.71,-0.06
0.83,-0.69,-0.04
0.85,-0.68,-0.03
0.88,-0.68,-0.03
0.9,-0.66,-0.05
0.93,-0.67,-0.07
0.93,-0.69,-0.07
0.95,-0.71,-0.07
0.98,-0.73,-0.05
1.02,-0.74,-0.03
1.04,-0.74,-0.01
1.07,-0.71,0.01
1.11,-0.68,0.03
1.14,-0.65,0.05
1.16,-0.64,0.08
1.18,-0.64,0.09
1.21,-0.62,0.09
1.23,-0.61,0.07
1.25,-0.61,0.03
1.29,-0.61,-0.01
1.32,-0.61,-0.03
1.33,-0.61,-0.03
1.32,-0.61,-0.06
1.29,-0.62,-0.09
1.29,-0.62,-0.12
1.3,-0.61,-0.14
1.3,-0.59,-0.15
1.31,-0.56,-0.16
1.28,-0.58,-0.18
1.28,-0.58,-0.18
1.3,-0.56,-0.17
1.29,-0.56,-0.19
1.29,-0.54,-0.21
1.29,-0.52,-0.24
1.28,-0.51,-0.25
1.26,-0.49,-0.26
1.23,-0.48,-0.27
1.21,-0.47,-0.27
1.18,-0.47,-0.26
1.15,-0.48,-0.25
1.14,-0.46,-0.25
1.11,-0.44,-0.26
1.09,-0.42,-0.26
1.1,-0.4,-0.26
1.09,-0.38,-0.26
1.06,-0.36,-0.26
1.05,-0.34,-0.25
1.04,-0.31,-0.24
1.03,-0.24,-0.23
1.03,-0.22,-0.22
1.03,-0.21,-0.2
1.02,-0.18,-0.19
1,-0.16,-0.18
1,-0.14,-0.17
1,-0.1,-0.16
0.99,-0.05,-0.15
1,-0.01,-0.15
1,0.02,-0.14
0.99,0.02,-0.13
0.98,0.02,-0.12
0.95,0.02,-0.11
0.92,0.05,-0.11
0.91,0.1,-0.1
0.89,0.15,-0.1
0.87,0.19,-0.09
0.84,0.23,-0.09
0.81,0.25,-0.09
0.8,0.27,-0.1
0.79,0.29,-0.1
0.77,0.32,-0.1
0.76,0.35,-0.08
0.74,0.39,-0.09
0.71,0.41,-0.09
0.7,0.4,-0.08
0.7,0.4,-0.07
0.67,0.43,-0.06
0.64,0.42,-0.08
0.63,0.47,-0.07
0.6,0.48,-0.1
0.59,0.49,-0.11
0.59,0.52,-0.08
0.56,0.53,-0.04
0.51,0.52,-0.06
0.47,0.53,-0.08
0.46,0.58,-0.06
0.44,0.61,-0.05
0.43,0.62,-0.04
0.4,0.61,-0.03
0.37,0.62,-0.03
0.34,0.65,-0.03
0.33,0.68,-0.03
0.3,0.7,-0.03
0.27,0.69,-0.03
0.24,0.67,-0.01
0.22,0.64,0.01
0.2,0.62,0.03
0.18,0.61,0.07
0.16,0.6,0.11
0.15,0.6,0.14
0.12,0.61,0.16
0.1,0.65,0.12
0.11,0.73,0.09
0.11,0.74,0.1
0.09,0.73,0.13
0.05,0.74,0.16
0.02,0.76,0.18
-0.01,0.79,0.16
-0.05,0.83,0.15
-0.08,0.85,0.15
-0.12,0.86,0.16
-0.15,0.87,0.17
-0.18,0.88,0.18
-0.2,0.88,0.19
-0.21,0.87,0.2
-0.23,0.85,0.22
-0.25,0.84,0.23
-0.26,0.83,0.25
-0.28,0.82,0.27
-0.3,0.81,0.28
-0.32,0.81,0.28
-0.34,0.8,0.3
-0.35,0.8,0.31
-0.36,0.8,0.32
-0.37,0.79,0.33
-0.37,0.78,0.35
-0.38,0.79,0.36
-0.38,0.8,0.38
-0.38,0.81,0.39
-0.38,0.81,0.39
-0.37,0.81,0.41
-0.36,0.8,0.43
-0.35,0.81,0.44
-0.34,0.82,0.44
-0.32,0.82,0.43
-0.3,0.81,0.42
-0.28,0.82,0.41
-0.27,0.82,0.41
-0.26,0.82,0.42
-0.25,0.82,0.43
-0.23,0.8,0.43
-0.22,0.78,0.41
-0.21,0.77,0.4
-0.2,0.77,0.38
-0.18,0.76,0.35
-0.18,0.76,0.34
-0.18,0.78,0.33
-0.17,0.8,0.32
-0.16,0.81,0.31
-0.16,0.8,0.31
-0.15,0.79,0.3
-0.14,0.78,0.29
-0.13,0.76,0.28
-0.1,0.76,0.26
-0.05,0.78,0.26
-0.03,0.78,0.26
-0.02,0.76,0.26
-0.01,0.72,0.26
0.01,0.68,0.24
0.02,0.67,0.22
0.04,0.67,0.22
0.07,0.69,0.22
0.09,0.68,0.21
0.1,0.66,0.21
0.1,0.63,0.2
0.1,0.6,0.19
0.1,0.58,0.17
0.12,0.61,0.17
0.15,0.65,0.17
0.19,0.7,0.16
0.22,0.73,0.14
0.26,0.72,0.11
0.31,0.68,0.1
0.34,0.63,0.1
0.37,0.59,0.1
0.4,0.58,0.1
0.45,0.58,0.1
0.5,0.58,0.09
0.56,0.56,0.08
0.59,0.55,0.05
0.64,0.49,0.03
0.66,0.46,0.02
0.68,0.43,0
0.71,0.42,-0.03
0.73,0.42,-0.04
0.78,0.42,-0.04
0.82,0.4,-0.05
0.83,0.38,-0.05
0.84,0.34,-0.06
0.84,0.3,-0.09
0.85,0.29,-0.12
0.85,0.32,-0.15
0.86,0.35,-0.17
0.89,0.33,-0.16
0.9,0.29,-0.15
0.93,0.24,-0.12
0.97,0.18,-0.08
1,0.14,-0.05
1.02,0.13,-0.06
1.03,0.12,-0.11
1.05,0.11,-0.17
1.07,0.1,-0.22
1.1,0.09,-0.27
1.13,0.06,-0.32
1.16,0.02,-0.35
1.21,-0.02,-0.34
1.24,-0.11,-0.27
1.23,-0.14,-0.26
1.21,-0.17,-0.28
1.19,-0.19,-0.29
1.18,-0.19,-0.32
1.18,-0.19,-0.35
1.2,-0.21,-0.37
1.22,-0.22,-0.35
1.25,-0.24,-0.32
1.26,-0.25,-0.31
1.25,-0.27,-0.31
1.21,-0.3,-0.32
1.17,-0.33,-0.33
1.17,-0.35,-0.35
1.15,-0.37,-0.37
1.13,-0.36,-0.38
1.13,-0.33,-0.39
1.14,-0.33,-0.4
1.16,-0.33,-0.39
1.17,-0.35,-0.36
1.15,-0.36,-0.32
1.1,-0.38,-0.31
1.06,-0.4,-0.33
1.04,-0.41,-0.34
1.04,-0.41,-0.35
1.08,-0.41,-0.33
1.11,-0.45,-0.23
1.11,-0.45,-0.2
1.07,-0.48,-0.19
1.07,-0.53,-0.16
1.08,-0.55,-0.13
1.05,-0.56,-0.13
1.02,-0.56,-0.12
1.02,-0.56,-0.14
1.03,-0.53,-0.17
1.07,-0.52,-0.2
1.13,-0.57,-0.18
1.12,-0.57,-0.16
1.09,-0.55,-0.15
1.08,-0.6,-0.14
1.03,-0.64,-0.14
0.98,-0.67,-0.1
0.98,-0.67,-0.1
0.98,-0.66,-0.11
0.98,-0.67,-0.12
0.97,-0.69,-0.12
0.97,-0.68,-0.13
0.97,-0.65,-0.13
0.97,-0.66,-0.13
0.96,-0.67,-0.14
0.97,-0.68,-0.15
0.97,-0.69,-0.16
0.96,-0.7,-0.16
0.97,-0.69,-0.14
0.95,-0.68,-0.13
0.94,-0.67,-0.15
0.91,-0.66,-0.17
0.9,-0.66,-0.17
0.91,-0.66,-0.17
0.91,-0.65,-0.15
0.91,-0.66,-0.14
0.93,-0.66,-0.13
0.92,-0.66,-0.13
0.91,-0.66,-0.13
0.91,-0.66,-0.14
0.92,-0.65,-0.15
0.93,-0.65,-0.14
0.95,-0.64,-0.13
0.96,-0.64,-0.12
0.99,-0.64,-0.12
1.04,-0.64,-0.13
1.07,-0.64,-0.14
1.11,-0.64,-0.15
1.14,-0.64,-0.15
1.17,-0.64,-0.15
1.21,-0.64,-0.16
1.25,-0.63,-0.16
1.26,-0.62,-0.15
1.27,-0.59,-0.13
1.25,-0.55,-0.15
1.26,-0.56,-0.18
1.26,-0.58,-0.21
1.25,-0.59,-0.21
1.23,-0.58,-0.21
1.2,-0.55,-0.22
1.19,-0.52,-0.22
1.17,-0.52,-0.23
1.15,-0.53,-0.25
1.18,-0.53,-0.24
1.21,-0.52,-0.23
1.2,-0.51,-0.22
1.2,-0.47,-0.23
1.21,-0.46,-0.24
1.2,-0.48,-0.24
1.16,-0.48,-0.26
1.14,-0.44,-0.28
1.16,-0.41,-0.3
1.19,-0.4,-0.31
1.21,-0.39,-0.31
1.21,-0.39,-0.32
1.18,-0.38,-0.33
1.17,-0.36,-0.33
1.16,-0.36,-0.35
1.14,-0.36,-0.37
1.13,-0.36,-0.43
1.11,-0.35,-0.44
1.08,-0.33,-0.46
1.06,-0.3,-0.47
1.05,-0.27,-0.48
1.05,-0.25,-0.47
1.06,-0.24,-0.45
1.05,-0.24,-0.44
1.02,-0.24,-0.42
1,-0.22,-0.42
0.98,-0.17,-0.43
0.98,-0.14,-0.44
0.98,-0.12,-0.43
0.96,-0.1,-0.42
0.95,-0.06,-0.41
0.95,-0.01,-0.4
0.95,0.03,-0.38
0.94,0.06,-0.37
0.91,0.08,-0.37
0.89,0.11,-0.36
0.89,0.12,-0.35
0.87,0.14,-0.33
0.86,0.18,-0.32
0.86,0.23,-0.32
0.86,0.28,-0.33
0.86,0.33,-0.34
0.88,0.34,-0.3
0.86,0.3,-0.27
0.81,0.3,-0.26
0.78,0.34,-0.26
0.77,0.38,-0.26
0.75,0.39,-0.25
0.73,0.38,-0.25
0.7,0.39,-0.24
0.69,0.42,-0.22
0.67,0.43,-0.2
0.66,0.43,-0.21
0.63,0.46,-0.21
0.6,0.47,-0.2
0.58,0.49,-0.19
0.55,0.49,-0.17
0.51,0.5,-0.16
0.48,0.51,-0.15
0.46,0.52,-0.13
0.46,0.53,-0.11
0.45,0.53,-0.1
0.44,0.55,-0.1
0.43,0.62,-0.1
0.42,0.67,-0.09
0.41,0.67,-0.09
0.4,0.67,-0.06
0.4,0.66,-0.02
0.41,0.65,0.06
0.37,0.75,0.08
0.36,0.83,0.07
0.34,0.87,0.03
0.33,0.89,-0.02
0.31,0.9,-0.06
0.27,0.9,-0.08
0.23,0.89,-0.07
0.19,0.88,-0.06
0.15,0.86,-0.04
0.12,0.86,-0.01
0.08,0.85,0
0.04,0.85,0
0.01,0.83,-0.01
-0.02,0.81,0
-0.03,0.8,0.02
-0.05,0.8,0.02
-0.06,0.78,0.02
-0.08,0.74,0.02
-0.09,0.71,0.03
-0.11,0.69,0.06
-0.13,0.68,0.08
-0.15,0.7,0.1
-0.19,0.71,0.13
-0.22,0.7,0.16
-0.25,0.68,0.18
-0.26,0.66,0.22
-0.28,0.59,0.25
-0.31,0.59,0.28
-0.35,0.63,0.29
-0.38,0.69,0.32
-0.4,0.73,0.35
-0.42,0.76,0.37
-0.45,0.8,0.39
-0.46,0.82,0.4
-0.46,0.8,0.4
-0.46,0.76,0.4
-0.46,0.74,0.44
-0.48,0.77,0.48
-0.5,0.83,0.51
-0.52,0.89,0.49
-0.52,0.93,0.47
-0.51,0.91,0.46
-0.48,0.86,0.45
-0.46,0.82,0.44
-0.44,0.79,0.42
-0.43,0.78,0.41
-0.41,0.79,0.41
-0.39,0.81,0.38
-0.37,0.82,0.35
-0.36,0.84,0.33
-0.34,0.86,0.32
-0.32,0.86,0.31
-0.3,0.82,0.28
-0.25,0.8,0.26
-0.24,0.79,0.25
-0.22,0.8,0.24
-0.2,0.82,0.24
-0.18,0.84,0.24
-0.18,0.83,0.24
-0.16,0.81,0.24
-0.15,0.79,0.23
-0.14,0.79,0.22
-0.12,0.79,0.2
-0.1,0.79,0.2
-0.08,0.79,0.2
-0.06,0.78,0.21
-0.04,0.77,0.22
-0.02,0.75,0.22
0,0.73,0.21
0,0.73,0.2
0,0.74,0.19
0.02,0.77,0.18
0.04,0.77,0.18
0.06,0.74,0.16
0.07,0.7,0.1
0.09,0.67,0.04
0.12,0.67,0.02
0.14,0.69,0.05
0.21,0.73,0.13
0.24,0.72,0.15
0.25,0.71,0.16
0.27,0.68,0.15
0.29,0.65,0.13
0.31,0.62,0.1
0.33,0.62,0.07
0.37,0.64,0.06
0.41,0.67,0.05
0.43,0.68,0.06
0.45,0.68,0.07
0.47,0.65,0.08
0.48,0.61,0.07
0.48,0.58,0.04
0.5,0.58,0
0.55,0.59,-0.03
0.61,0.59,-0.04
0.64,0.57,-0.04
0.67,0.54,-0.04
0.69,0.5,-0.04
0.68,0.44,-0.06
0.66,0.39,-0.11
0.66,0.39,-0.14
0.7,0.4,-0.15
0.74,0.41,-0.18
0.77,0.43,-0.19
0.8,0.39,-0.2
0.82,0.33,-0.21
0.82,0.28,-0.22
0.81,0.31,-0.25
0.81,0.42,-0.29
0.86,0.5,-0.33
0.89,0.5,-0.36
0.89,0.44,-0.37
0.89,0.36,-0.37
0.9,0.27,-0.36
0.91,0.21,-0.36
0.91,0.23,-0.37
0.94,0.32,-0.39
1,0.39,-0.38
1.03,0.37,-0.38
1.04,0.32,-0.38
1.05,0.25,-0.37
1.08,0.16,-0.36
1.09,0.1,-0.37
1.09,0.1,-0.39
1.1,0.14,-0.41
1.14,0.18,-0.42
1.16,0.18,-0.42
1.16,0.15,-0.42
1.14,0.09,-0.43
1.13,0.03,-0.45
1.14,-0.02,-0.43
1.16,-0.1,-0.41
1.15,-0.1,-0.41
1.16,-0.08,-0.42
1.17,-0.05,-0.44
1.17,-0.03,-0.49
1.17,0.01,-0.55
1.18,0.04,-0.61
1.19,0.05,-0.63
1.2,0.04,-0.62
1.22,0.01,-0.59
1.24,-0.05,-0.56
1.24,-0.11,-0.55
1.23,-0.13,-0.56
1.22,-0.14,-0.59
1.24,-0.14,-0.61
1.26,-0.13,-0.58
1.25,-0.13,-0.55
1.22,-0.14,-0.52
1.2,-0.15,-0.49
1.19,-0.18,-0.44
1.18,-0.21,-0.4
1.16,-0.24,-0.37
1.11,-0.26,-0.37
1.07,-0.27,-0.39
1.05,-0.28,-0.38
1.04,-0.29,-0.36
1.06,-0.32,-0.35
1.04,-0.34,-0.33
1.03,-0.36,-0.29
1.02,-0.37,-0.26
1,-0.38,-0.25
0.97,-0.39,-0.24
0.96,-0.4,-0.24
0.93,-0.41,-0.25
0.9,-0.42,-0.25
0.89,-0.43,-0.25
0.89,-0.44,-0.24
0.9,-0.45,-0.24
0.9,-0.45,-0.23
0.9,-0.46,-0.22
0.89,-0.47,-0.21
0.88,-0.48,-0.2
0.86,-0.49,-0.2
0.83,-0.51,-0.2
0.83,-0.53,-0.19
0.83,-0.55,-0.18
0.85,-0.57,-0.19
0.85,-0.52,-0.18
0.86,-0.57,-0.18
0.85,-0.68,-0.25
0.88,-0.62,-0.19
0.94,-0.57,-0.18
0.85,-0.66,-0.18
0.85,-0.57,-0.19
0.81,-0.59,-0.18
0.8,-0.65,-0.16
0.81,-0.65,-0.13
0.81,-0.65,-0.14
0.82,-0.65,-0.14
0.83,-0.65,-0.14
0.82,-0.65,-0.13
0.83,-0.66,-0.13
0.82,-0.66,-0.11
0.79,-0.65,-0.05
0.78,-0.66,-0.02
0.79,-0.69,-0.05
0.74,-0.72,-0.09
0.65,-0.64,-0.07
0.67,-0.66,-0.04
0.75,-0.83,-0.09
0.72,-0.78,-0.02
0.7,-0.69,0.06
0.74,-0.75,0.01
0.77,-0.77,0.01
0.72,-0.77,-0.01
0.68,-0.81,-0.02
0.7,-0.81,-0.01
0.71,-0.82,0
0.66,-0.8,0.03
0.69,-0.8,0.02
0.75,-0.82,0.07
0.74,-0.83,0.09
0.79,-0.85,0.15
0.77,-0.84,0.15
0.75,-0.8,0.11
0.74,-0.83,0.1
0.7,-0.86,0.06
0.71,-0.86,0.07
0.7,-0.86,0.09
0.7,-0.86,0.09
0.69,-0.85,0.1
0.72,-0.85,0.1
0.72,-0.84,0.1
0.7,-0.83,0.09
0.7,-0.79,0.1
0.68,-0.79,0.1
0.7,-0.85,0.04
0.68,-0.85,0.07
0.64,-0.84,0.09
0.65,-0.84,0.07
0.65,-0.84,0.06
0.64,-0.84,0.05
0.63,-0.84,0.05
0.63,-0.84,0.04
0.62,-0.84,0.04
0.63,-0.84,0.03
0.63,-0.84,0.02
0.62,-0.84,0.02
0.61,-0.84,0.02
0.59,-0.84,0.02
0.59,-0.85,0.02
0.58,-0.85,0.02
0.58,-0.85,0.03
0.58,-0.86,0.04
0.58,-0.86,0.04
0.58,-0.85,0.06
0.57,-0.85,0.07
0.56,-0.85,0.08
0.56,-0.85,0.09
0.56,-0.86,0.1
0.56,-0.86,0.1
0.56,-0.86,0.11
0.57,-0.86,0.12
0.59,-0.86,0.13
0.59,-0.86,0.14
0.59,-0.85,0.14
0.59,-0.85,0.15
0.59,-0.85,0.15
0.58,-0.85,0.15
0.57,-0.85,0.15
0.55,-0.85,0.14
0.53,-0.85,0.14
0.52,-0.84,0.14
0.52,-0.85,0.15
0.53,-0.85,0.16
0.55,-0.85,0.16
0.56,-0.85,0.16
0.57,-0.84,0.15
0.57,-0.84,0.14
0.57,-0.83,0.13
0.56,-0.83,0.13
0.55,-0.83,0.13
0.55,-0.82,0.14
0.54,-0.82,0.13
0.54,-0.82,0.13
0.53,-0.82,0.13
0.54,-0.82,0.13
0.55,-0.82,0.13
0.55,-0.82,0.14
0.54,-0.83,0.14
0.54,-0.83,0.14
0.54,-0.83,0.14
0.54,-0.82,0.14
0.55,-0.82,0.15
0.55,-0.83,0.14
0.54,-0.83,0.15
0.54,-0.83,0.15
0.55,-0.82,0.15
0.56,-0.82,0.15
0.56,-0.82,0.16
0.56,-0.83,0.16
0.56,-0.83,0.16
0.56,-0.83,0.16
0.55,-0.84,0.15
0.55,-0.84,0.15
0.57,-0.83,0.16
0.57,-0.83,0.16
0.57,-0.83,0.16
0.58,-0.84,0.16
0.57,-0.83,0.17
0.57,-0.83,0.18
0.59,-0.83,0.18
0.58,-0.83,0.18
0.55,-0.85,0.16
0.56,-0.81,0.18
0.53,-0.81,0.21
0.51,-0.84,0.19
0.55,-0.83,0.18
0.56,-0.84,0.19
0.58,-0.84,0.18
0.58,-0.84,0.18
0.59,-0.84,0.17
0.59,-0.84,0.16
0.59,-0.83,0.16
0.58,-0.83,0.16
0.57,-0.83,0.16
0.57,-0.83,0.16
0.57,-0.84,0.16
0.58,-0.84,0.16
0.58,-0.84,0.16
0.57,-0.83,0.16
0.57,-0.83,0.16
0.56,-0.83,0.16
0.56,-0.84,0.16
0.55,-0.84,0.16
0.55,-0.84,0.17
0.54,-0.84,0.17
0.54,-0.84,0.18
0.54,-0.84,0.19
0.54,-0.84,0.19
0.54,-0.84,0.2
0.54,-0.85,0.2
0.55,-0.85,0.2
0.54,-0.85,0.2
0.54,-0.85,0.21
0.53,-0.85,0.22
0.53,-0.85,0.22
0.53,-0.84,0.22
0.54,-0.84,0.23
0.54,-0.84,0.23
0.54,-0.85,0.24
0.53,-0.85,0.24
0.53,-0.85,0.25
0.53,-0.84,0.25
0.53,-0.85,0.24
0.54,-0.85,0.23
0.54,-0.84,0.23
0.54,-0.83,0.23
0.53,-0.83,0.22
0.53,-0.83,0.21
0.53,-0.83,0.21
0.54,-0.83,0.2
0.54,-0.83,0.19
0.54,-0.84,0.18
0.54,-0.84,0.17
0.53,-0.83,0.17
0.52,-0.84,0.17
0.52,-0.83,0.17
0.52,-0.83,0.17
0.52,-0.83,0.17
0.52,-0.83,0.17
0.53,-0.83,0.17
0.55,-0.84,0.18
0.55,-0.84,0.18
0.56,-0.84,0.19
0.56,-0.84,0.19
0.56,-0.84,0.19
0.56,-0.84,0.2
0.56,-0.84,0.2
0.57,-0.84,0.21
0.57,-0.84,0.21
0.57,-0.84,0.22
0.57,-0.84,0.22
0.57,-0.84,0.21
0.57,-0.84,0.21
0.57,-0.84,0.21
0.57,-0.84,0.21
0.57,-0.84,0.2
0.56,-0.84,0.2
0.56,-0.84,0.2
0.56,-0.84,0.2
0.56,-0.84,0.19
0.56,-0.84,0.19
0.55,-0.84,0.19
0.55,-0.84,0.18
0.55,-0.84,0.18
0.55,-0.83,0.19
0.54,-0.83,0.19
0.54,-0.83,0.18
0.54,-0.83,0.19
0.54,-0.83,0.19
0.55,-0.83,0.19
0.54,-0.84,0.2
0.54,-0.84,0.2
0.54,-0.84,0.21
0.54,-0.83,0.22
0.55,-0.84,0.22
0.54,-0.84,0.23
0.55,-0.84,0.23
0.54,-0.84,0.22
0.54,-0.84,0.22
0.54,-0.84,0.21
0.54,-0.84,0.21
0.54,-0.84,0.21
0.53,-0.83,0.21
0.53,-0.83,0.2
0.53,-0.83,0.2
0.53,-0.83,0.2
0.53,-0.84,0.2
0.54,-0.83,0.2
0.54,-0.83,0.2
0.55,-0.83,0.2
0.55,-0.83,0.2
0.55,-0.84,0.2
0.55,-0.84,0.2
0.55,-0.84,0.2
0.55,-0.84,0.2
0.56,-0.84,0.2
0.56,-0.84,0.2
0.57,-0.84,0.2
0.57,-0.84,0.2
0.56,-0.83,0.2
0.56,-0.84,0.2
0.56,-0.84,0.2
0.56,-0.84,0.19
0.56,-0.84,0.19
0.55,-0.83,0.19
0.56,-0.83,0.19
0.56,-0.83,0.19
0.56,-0.84,0.19
0.56,-0.84,0.2
0.56,-0.83,0.2
0.56,-0.83,0.19
0.56,-0.83,0.19
0.56,-0.83,0.19
0.55,-0.83,0.2
0.55,-0.83,0.2
0.55,-0.83,0.2
0.54,-0.83,0.2
0.54,-0.84,0.2
0.55,-0.83,0.2
0.55,-0.84,0.2
0.55,-0.84,0.2
0.54,-0.84,0.21
0.55,-0.84,0.21
0.54,-0.84,0.21
0.54,-0.84,0.21
0.55,-0.83,0.21
0.54,-0.84,0.2
