Acc_x,Acc_y,Acc_z
0,0,0
0,0,0
0,0,0
0,0,0
0,0,0
0,0,0
0,0,0
0,0,0
0,0,0
0,0,0
0,0,0
0,0,0
0,0,0
0,0,0
0,0,0
0,0,0
0,0,0
0,0,0
0,0,0
0,0,0
0,0,0
0,0,0
0,0,0
0,0,0
0,0,0
0,0,0
0,0,0
0,0,0
0,0,0
0,0,0
0,0,0
0,0,0
0,0,0
0,0,0
0,0,0
0,0,0
0,0,0
0,0,0
0,0,0
0,0,0
0,0,0
0,0,0
0,0,0
0,0,0
0,0,0
0,0,0
0,0,0
0,0,0
0,0,0
0,0,0
0,0,0
0,0,0
0.84,-0.46,0.35
0.4,0.7,0.22
0.34,0.69,0.22
0.3,0.7,0.21
0.29,0.71,0.19
0.26,0.7,0.18
0.23,0.68,0.19
0.22,0.68,0.22
0.2,0.69,0.22
0.16,0.7,0.23
0.14,0.69,0.27
0.15,0.68,0.31
0.16,0.67,0.35
0.14,0.66,0.36
0.11,0.69,0.33
0.1,0.71,0.32
0.11,0.7,0.3
0.1,0.68,0.28
0.1,0.66,0.26
0.03,0.69,0.28
-0.04,0.74,0.31
-0.09,0.77,0.34
-0.12,0.79,0.34
-0.15,0.81,0.33
-0.17,0.83,0.33
-0.17,0.83,0.31
-0.16,0.83,0.3
-0.17,0.82,0.31
-0.2,0.83,0.34
-0.25,0.84,0.36
-0.28,0.85,0.37
-0.3,0.87,0.37
-0.32,0.89,0.37
-0.32,0.87,0.37
-0.32,0.86,0.38
-0.35,0.85,0.39
-0.39,0.84,0.4
-0.4,0.83,0.41
-0.41,0.83,0.41
-0.43,0.83,0.42
-0.47,0.83,0.42
-0.48,0.83,0.42
-0.46,0.81,0.42
-0.47,0.8,0.42
-0.46,0.78,0.42
-0.46,0.76,0.46
-0.5,0.75,0.47
-0.51,0.74,0.48
-0.49,0.74,0.5
-0.48,0.73,0.52
-0.47,0.72,0.54
-0.47,0.72,0.55
-0.48,0.71,0.55
-0.47,0.72,0.55
-0.46,0.72,0.53
-0.44,0.73,0.52
-0.43,0.74,0.54
-0.42,0.74,0.55
-0.42,0.72,0.57
-0.43,0.71,0.59
-0.44,0.7,0.6
-0.44,0.7,0.59
-0.43,0.7,0.57
-0.41,0.72,0.55
-0.38,0.71,0.53
-0.36,0.7,0.52
-0.35,0.69,0.52
-0.34,0.67,0.52
-0.33,0.66,0.52
-0.31,0.66,0.51
-0.3,0.67,0.51
-0.29,0.68,0.5
-0.25,0.67,0.49
-0.24,0.65,0.48
-0.22,0.63,0.48
-0.2,0.62,0.48
-0.18,0.62,0.48
-0.15,0.61,0.47
-0.13,0.6,0.45
-0.11,0.58,0.45
-0.1,0.55,0.45
-0.09,0.54,0.47
-0.09,0.54,0.49
-0.07,0.56,0.49
-0.03,0.59,0.47
0,0.6,0.46
0.04,0.59,0.45
0.07,0.57,0.45
0.08,0.56,0.43
0.1,0.56,0.42
0.13,0.57,0.42
0.16,0.59,0.42
0.2,0.62,0.44
0.23,0.63,0.44
0.25,0.63,0.43
0.25,0.63,0.41
0.28,0.63,0.39
0.32,0.6,0.35
0.38,0.57,0.34
0.42,0.56,0.34
0.45,0.58,0.34
0.48,0.6,0.35
0.51,0.63,0.33
0.52,0.65,0.31
0.53,0.64,0.3
0.52,0.61,0.3
0.52,0.57,0.29
0.53,0.55,0.27
0.56,0.54,0.25
0.59,0.54,0.24
0.62,0.56,0.22
0.65,0.59,0.21
0.69,0.61,0.23
0.73,0.61,0.28
0.74,0.59,0.33
0.72,0.58,0.33
0.7,0.57,0.28
0.68,0.61,0.2
0.68,0.65,0.17
0.71,0.63,0.18
0.75,0.58,0.21
0.8,0.52,0.23
0.84,0.47,0.23
0.85,0.44,0.19
0.86,0.48,0.16
0.87,0.49,0.13
0.89,0.47,0.11
0.92,0.43,0.12
0.92,0.37,0.13
0.94,0.31,0.17
0.95,0.25,0.21
0.96,0.22,0.22
0.97,0.23,0.19
0.99,0.23,0.14
1.01,0.2,0.08
1.02,0.18,0
1.03,0.12,-0.03
1.04,0.1,0.05
1.08,0.05,0.14
1.16,-0.05,0.25
1.2,-0.12,0.35
1.21,-0.16,0.38
1.19,-0.19,0.32
1.12,-0.2,0.19
1.02,-0.22,0.05
0.95,-0.27,-0.06
0.95,-0.32,-0.04
1.05,-0.36,0.08
1.14,-0.42,0.19
1.2,-0.41,0.24
1.33,-0.45,0.2
1.21,-0.49,0.2
1.13,-0.53,0.24
1.13,-0.56,0.3
1.13,-0.6,0.31
1.12,-0.64,0.29
1.07,-0.67,0.26
1.05,-0.74,0.23
1.05,-0.79,0.21
1.05,-0.82,0.24
1.07,-0.82,0.3
1.09,-0.88,0.37
1.09,-0.89,0.48
1.08,-0.85,0.53
1.02,-0.81,0.49
0.9,-0.83,0.43
0.81,-0.91,0.33
0.77,-0.91,0.25
0.76,-0.91,0.21
0.78,-0.93,0.2
0.83,-0.94,0.22
0.88,-0.95,0.28
0.91,-0.96,0.35
0.9,-0.95,0.42
0.85,-0.92,0.44
0.78,-0.92,0.44
0.72,-0.94,0.48
0.68,-0.91,0.52
0.63,-0.9,0.52
0.63,-0.92,0.49
0.64,-0.94,0.46
0.69,-0.91,0.47
0.73,-0.89,0.5
0.74,-0.87,0.56
0.75,-0.86,0.58
0.76,-0.88,0.56
0.77,-0.88,0.53
0.78,-0.87,0.5
0.8,-0.86,0.47
0.82,-0.87,0.46
0.85,-0.88,0.49
0.88,-0.9,0.51
0.88,-0.9,0.5
0.86,-0.89,0.46
0.84,-0.89,0.44
0.85,-0.92,0.43
0.88,-0.94,0.42
0.95,-0.94,0.41
1.03,-0.95,0.43
1.07,-0.95,0.44
1.09,-0.93,0.45
1.11,-0.9,0.42
1.16,-0.84,0.38
1.19,-0.82,0.37
1.23,-0.8,0.37
1.29,-0.77,0.38
1.36,-0.73,0.39
1.4,-0.71,0.4
1.39,-0.68,0.41
1.35,-0.65,0.41
1.29,-0.63,0.38
1.27,-0.63,0.33
1.31,-0.63,0.32
1.34,-0.62,0.31
1.34,-0.6,0.29
1.3,-0.58,0.27
1.24,-0.55,0.27
1.17,-0.48,0.26
1.14,-0.42,0.24
1.12,-0.36,0.22
1.11,-0.32,0.2
1.09,-0.29,0.18
1.04,-0.26,0.17
1.01,-0.23,0.16
1,-0.2,0.14
0.99,-0.16,0.13
0.99,-0.13,0.12
0.98,-0.1,0.11
0.96,-0.05,0.13
0.94,-0.03,0.13
0.94,0,0.13
0.93,0.02,0.13
0.91,0.05,0.12
0.88,0.07,0.12
0.87,0.1,0.13
0.86,0.13,0.14
0.84,0.17,0.16
0.83,0.19,0.17
0.83,0.2,0.17
0.82,0.21,0.18
0.81,0.22,0.19
0.79,0.24,0.19
0.78,0.27,0.19
0.78,0.3,0.18
0.76,0.32,0.17
0.75,0.32,0.17
0.73,0.33,0.19
0.72,0.35,0.21
0.69,0.35,0.2
0.68,0.35,0.2
0.68,0.39,0.2
0.68,0.43,0.21
0.68,0.43,0.21
0.69,0.44,0.24
0.7,0.37,0.3
0.74,0.39,0.33
0.73,0.46,0.31
0.69,0.51,0.23
0.64,0.52,0.14
0.6,0.52,0.09
0.53,0.52,0.09
0.51,0.53,0.14
0.53,0.58,0.22
0.51,0.6,0.25
0.48,0.59,0.25
0.46,0.59,0.25
0.46,0.61,0.26
0.46,0.65,0.28
0.46,0.67,0.3
0.44,0.66,0.32
0.42,0.66,0.36
0.39,0.67,0.4
0.35,0.67,0.41
0.3,0.67,0.42
0.28,0.7,0.41
0.3,0.74,0.4
0.29,0.74,0.41
0.26,0.73,0.42
0.23,0.72,0.44
0.2,0.74,0.45
0.2,0.76,0.44
0.18,0.75,0.44
0.17,0.75,0.42
0.14,0.75,0.41
0.11,0.76,0.42
0.11,0.78,0.42
0.09,0.79,0.42
0.1,0.79,0.43
0.08,0.77,0.44
0.06,0.76,0.44
0.04,0.75,0.44
0.02,0.77,0.43
0.03,0.77,0.42
0.02,0.78,0.42
0,0.79,0.4
-0.02,0.76,0.38
-0.03,0.73,0.39
-0.02,0.72,0.39
-0.02,0.73,0.38
-0.04,0.73,0.39
-0.04,0.75,0.41
-0.04,0.78,0.43
-0.06,0.77,0.45
-0.07,0.76,0.44
-0.08,0.76,0.42
-0.1,0.77,0.42
-0.12,0.77,0.44
-0.11,0.78,0.45
-0.12,0.79,0.44
-0.13,0.79,0.45
-0.14,0.79,0.45
-0.14,0.79,0.46
-0.15,0.78,0.45
-0.15,0.78,0.45
-0.16,0.79,0.45
-0.17,0.8,0.44
-0.17,0.8,0.44
-0.17,0.78,0.44
-0.19,0.78,0.45
-0.2,0.78,0.44
-0.2,0.78,0.42
-0.21,0.78,0.41
-0.22,0.79,0.41
-0.23,0.79,0.4
-0.23,0.8,0.39
-0.24,0.8,0.39
-0.25,0.79,0.38
-0.25,0.78,0.37
-0.25,0.78,0.38
-0.26,0.77,0.38
-0.27,0.77,0.38
-0.27,0.79,0.37
-0.26,0.81,0.37
-0.24,0.82,0.37
-0.24,0.81,0.37
-0.24,0.8,0.36
-0.23,0.8,0.36
-0.22,0.8,0.36
-0.2,0.8,0.37
-0.18,0.81,0.37
-0.17,0.81,0.37
-0.15,0.81,0.38
-0.14,0.8,0.4
-0.13,0.8,0.42
-0.13,0.81,0.43
-0.12,0.82,0.43
-0.11,0.81,0.44
-0.1,0.79,0.45
-0.11,0.78,0.46
-0.12,0.78,0.46
-0.12,0.8,0.46
-0.11,0.82,0.47
-0.11,0.83,0.48
-0.1,0.82,0.48
-0.09,0.79,0.47
-0.09,0.75,0.47
-0.09,0.7,0.46
-0.09,0.67,0.46
-0.09,0.66,0.46
-0.07,0.72,0.46
-0.06,0.75,0.45
-0.05,0.75,0.44
-0.03,0.73,0.44
-0.02,0.71,0.42
-0.01,0.69,0.4
0,0.67,0.39
0.01,0.66,0.38
0.03,0.66,0.36
0.06,0.66,0.37
0.09,0.69,0.39
0.11,0.74,0.4
0.13,0.77,0.41
0.14,0.76,0.41
0.15,0.71,0.39
0.15,0.66,0.35
0.15,0.66,0.31
0.18,0.68,0.31
0.22,0.68,0.31
0.26,0.68,0.33
0.28,0.69,0.37
0.29,0.7,0.4
0.29,0.71,0.39
0.28,0.71,0.38
0.29,0.67,0.36
0.3,0.64,0.27
0.37,0.66,0.25
0.43,0.68,0.24
0.49,0.71,0.23
0.53,0.72,0.24
0.56,0.69,0.29
0.56,0.62,0.33
0.54,0.56,0.32
0.54,0.58,0.27
0.56,0.65,0.24
0.59,0.68,0.23
0.62,0.67,0.24
0.65,0.62,0.25
0.66,0.56,0.26
0.66,0.51,0.27
0.65,0.52,0.25
0.65,0.57,0.24
0.68,0.6,0.24
0.73,0.58,0.25
0.76,0.54,0.26
0.79,0.5,0.27
0.81,0.45,0.3
0.81,0.41,0.29
0.8,0.41,0.24
0.78,0.45,0.21
0.8,0.53,0.21
0.84,0.58,0.23
0.91,0.52,0.28
0.92,0.45,0.31
0.94,0.38,0.33
0.97,0.34,0.34
1,0.32,0.34
0.99,0.32,0.31
0.99,0.32,0.3
0.98,0.31,0.3
1.01,0.28,0.33
1.07,0.25,0.4
1.11,0.22,0.42
1.14,0.17,0.4
1.15,0.13,0.37
1.15,0.12,0.33
1.14,0.09,0.29
1.11,0.06,0.26
1.1,0.02,0.26
1.09,-0.01,0.3
1.1,-0.06,0.35
1.13,-0.11,0.38
1.18,-0.13,0.36
1.21,-0.14,0.34
1.21,-0.15,0.32
1.21,-0.17,0.28
1.23,-0.18,0.23
1.24,-0.21,0.21
1.22,-0.3,0.27
1.22,-0.33,0.34
1.22,-0.34,0.34
1.23,-0.34,0.3
1.25,-0.35,0.27
1.27,-0.33,0.28
1.29,-0.32,0.27
1.28,-0.32,0.25
1.25,-0.33,0.25
1.21,-0.31,0.25
1.17,-0.3,0.26
1.15,-0.32,0.29
1.14,-0.33,0.33
1.13,-0.35,0.37
1.12,-0.35,0.38
1.11,-0.32,0.4
1.08,-0.34,0.42
1.06,-0.34,0.41
1.05,-0.32,0.41
1.03,-0.32,0.4
1.02,-0.3,0.37
1,-0.31,0.35
0.99,-0.33,0.35
0.99,-0.35,0.38
0.99,-0.35,0.4
0.98,-0.37,0.43
0.97,-0.39,0.48
0.95,-0.41,0.47
0.96,-0.44,0.47
0.98,-0.47,0.45
1,-0.5,0.39
1.01,-0.52,0.36
1.01,-0.54,0.36
1.02,-0.56,0.37
1.03,-0.57,0.38
1.03,-0.58,0.41
1.02,-0.57,0.42
1,-0.55,0.42
0.98,-0.54,0.43
0.97,-0.53,0.43
0.95,-0.54,0.43
0.93,-0.56,0.44
0.91,-0.57,0.44
0.87,-0.57,0.43
0.84,-0.57,0.41
0.83,-0.55,0.4
0.82,-0.54,0.39
0.82,-0.54,0.37
0.83,-0.55,0.36
0.82,-0.55,0.37
0.81,-0.55,0.38
0.79,-0.56,0.39
0.77,-0.56,0.4
0.74,-0.56,0.42
0.73,-0.56,0.42
0.72,-0.56,0.4
0.71,-0.55,0.39
0.71,-0.55,0.38
0.71,-0.55,0.4
0.71,-0.55,0.41
0.71,-0.55,0.43
0.69,-0.55,0.43
0.68,-0.54,0.43
0.68,-0.54,0.43
0.67,-0.54,0.44
0.67,-0.55,0.45
0.67,-0.55,0.46
0.67,-0.54,0.47
0.68,-0.52,0.48
0.68,-0.51,0.49
0.69,-0.49,0.48
0.69,-0.48,0.47
0.69,-0.48,0.46
0.7,-0.48,0.44
0.7,-0.48,0.43
0.7,-0.49,0.42
0.7,-0.53,0.43
0.7,-0.56,0.44
0.68,-0.48,0.44
0.62,-0.44,0.42
0.64,-0.46,0.41
0.68,-0.46,0.4
0.72,-0.46,0.41
0.75,-0.51,0.42
0.74,-0.51,0.42
0.73,-0.51,0.42
0.72,-0.54,0.41
0.7,-0.54,0.4
0.7,-0.54,0.4
0.71,-0.53,0.39
0.76,-0.56,0.38
0.8,-0.56,0.39
0.79,-0.51,0.42
0.77,-0.5,0.45
0.73,-0.51,0.44
0.73,-0.5,0.45
0.74,-0.5,0.5
0.74,-0.54,0.49
0.8,-0.58,0.49
0.72,-0.64,0.5
0.71,-0.49,0.52
0.97,-0.67,0.42
1.03,-0.69,0.42
0.82,-0.35,0.5
0.75,-0.35,0.42
0.83,-0.62,0.39
0.91,-0.44,0.35
0.89,-0.07,0.39
0.85,0.06,0.41
0.8,-0.93,0.36
0.69,-1.2,0.39
0.76,-0.37,0.44
0.7,-0.31,0.46
0.71,-0.61,0.45
0.77,-0.56,0.61
0.71,-0.5,0.5
0.72,-0.78,0.34
0.83,-0.63,0.47
0.9,-0.45,0.39
0.91,-0.47,0.31
0.83,-0.52,0.34
0.77,-0.61,0.3
0.82,-0.59,0.25
0.84,-0.51,0.26
0.8,-0.53,0.28
0.78,-0.56,0.3
0.74,-0.54,0.33
0.72,-0.53,0.31
0.75,-0.52,0.26
0.77,-0.53,0.26
0.78,-0.53,0.31
0.77,-0.55,0.36
0.77,-0.56,0.42
0.78,-0.57,0.46
0.79,-0.6,0.47
0.8,-0.69,0.43
0.65,-0.58,0.45
0.68,-0.47,0.49
0.88,-0.61,0.45
0.95,-0.64,0.44
1,-0.58,0.43
0.99,-0.5,0.44
0.95,-0.51,0.46
0.92,-0.53,0.47
0.88,-0.52,0.48
0.87,-0.49,0.46
0.89,-0.45,0.43
0.92,-0.41,0.4
0.96,-0.39,0.39
1,-0.39,0.39
1.03,-0.39,0.39
1.04,-0.38,0.36
1.05,-0.37,0.32
1.08,-0.33,0.28
1.12,-0.3,0.26
1.15,-0.29,0.26
1.16,-0.29,0.26
1.2,-0.28,0.22
1.21,-0.27,0.2
1.24,-0.24,0.18
1.26,-0.23,0.13
1.28,-0.23,0.06
1.29,-0.27,0.02
1.29,-0.31,-0.03
1.33,-0.32,-0.07
1.38,-0.31,-0.07
1.41,-0.27,-0.09
1.41,-0.28,-0.11
1.38,-0.3,-0.1
1.36,-0.3,-0.11
1.36,-0.29,-0.11
1.34,-0.28,-0.11
1.34,-0.27,-0.1
1.33,-0.27,-0.09
1.33,-0.25,-0.09
1.33,-0.24,-0.09
1.33,-0.23,-0.09
1.34,-0.23,-0.11
1.33,-0.23,-0.13
1.31,-0.23,-0.14
1.29,-0.2,-0.15
1.3,-0.16,-0.16
1.3,-0.17,-0.15
1.28,-0.14,-0.17
1.28,-0.12,-0.18
1.25,-0.1,-0.17
1.21,-0.1,-0.15
1.18,-0.09,-0.13
1.15,-0.07,-0.11
1.13,-0.05,-0.1
1.12,-0.02,-0.1
1.11,0,-0.09
1.08,-0.01,-0.06
1.07,0,-0.04
1.04,0.01,-0.02
1.01,0.03,-0.02
0.99,0.05,-0.02
0.98,0.08,-0.01
0.97,0.1,-0.01
0.96,0.12,0.01
0.95,0.14,0.02
0.93,0.16,0.02
0.91,0.17,0.03
0.89,0.18,0.03
0.88,0.21,0.03
0.86,0.24,0.04
0.84,0.27,0.06
0.81,0.29,0.08
0.79,0.31,0.1
0.76,0.35,0.04
0.81,0.37,0.08
0.76,0.39,0.1
0.74,0.41,0.11
0.73,0.43,0.11
0.72,0.46,0.12
0.68,0.47,0.14
0.67,0.47,0.15
0.7,0.48,0.14
0.7,0.49,0.16
0.64,0.48,0.21
0.64,0.47,0.2
0.61,0.48,0.19
0.6,0.54,0.15
0.57,0.57,0.13
0.5,0.57,0.15
0.49,0.57,0.14
0.48,0.58,0.13
0.45,0.59,0.12
0.43,0.63,0.12
0.4,0.67,0.12
0.37,0.7,0.13
0.36,0.71,0.14
0.35,0.71,0.14
0.34,0.71,0.15
0.33,0.7,0.16
0.32,0.83,0.19
0.29,0.82,0.18
0.23,0.82,0.16
0.24,0.84,0.17
0.24,0.85,0.17
0.2,0.83,0.16
0.19,0.84,0.17
0.2,0.87,0.2
0.21,0.91,0.25
0.18,0.88,0.27
0.16,0.87,0.27
0.11,0.88,0.25
0.1,0.87,0.25
0.09,0.87,0.26
0.08,0.87,0.23
0.08,0.88,0.23
0.07,0.89,0.25
0.06,0.9,0.26
0.05,0.89,0.26
0.03,0.9,0.27
0.01,0.89,0.27
-0.01,0.89,0.27
-0.02,0.89,0.27
-0.03,0.89,0.28
-0.03,0.87,0.3
-0.05,0.85,0.3
-0.06,0.82,0.27
-0.11,0.81,0.26
-0.11,0.81,0.26
-0.12,0.8,0.26
-0.12,0.78,0.26
-0.14,0.76,0.25
-0.16,0.72,0.26
-0.19,0.69,0.28
-0.2,0.66,0.3
-0.21,0.66,0.3
-0.23,0.68,0.3
-0.26,0.71,0.29
-0.3,0.74,0.29
-0.33,0.75,0.3
-0.36,0.75,0.33
-0.38,0.74,0.35
-0.39,0.74,0.37
-0.4,0.75,0.38
-0.41,0.77,0.38
-0.43,0.77,0.38
-0.45,0.78,0.38
-0.46,0.79,0.39
-0.45,0.81,0.38
-0.46,0.8,0.38
-0.47,0.79,0.39
-0.49,0.78,0.4
-0.5,0.75,0.4
-0.48,0.77,0.4
-0.46,0.79,0.39
-0.46,0.79,0.38
-0.46,0.79,0.38
-0.46,0.79,0.37
-0.45,0.78,0.38
-0.45,0.8,0.39
-0.45,0.82,0.4
-0.45,0.82,0.39
-0.43,0.81,0.38
-0.4,0.8,0.36
-0.39,0.8,0.34
-0.38,0.82,0.34
-0.37,0.84,0.35
-0.37,0.85,0.36
-0.37,0.86,0.35
-0.37,0.87,0.35
-0.37,0.86,0.34
-0.36,0.85,0.33
-0.35,0.84,0.32
-0.34,0.84,0.32
-0.33,0.84,0.32
-0.32,0.85,0.32
-0.32,0.86,0.31
-0.32,0.87,0.31
-0.31,0.87,0.29
-0.3,0.84,0.29
-0.29,0.82,0.28
-0.28,0.82,0.27
-0.27,0.84,0.27
-0.27,0.85,0.27
-0.27,0.84,0.28
-0.27,0.84,0.28
-0.26,0.82,0.27
-0.26,0.79,0.26
-0.24,0.77,0.25
-0.23,0.78,0.26
-0.21,0.8,0.26
-0.19,0.82,0.27
-0.18,0.83,0.28
-0.17,0.82,0.29
-0.17,0.79,0.29
-0.17,0.77,0.29
-0.16,0.77,0.29
-0.15,0.8,0.27
-0.13,0.82,0.26
-0.11,0.84,0.26
-0.08,0.83,0.26
-0.06,0.8,0.27
-0.06,0.77,0.27
-0.06,0.76,0.26
-0.05,0.79,0.24
0,0.86,0.24
0.02,0.84,0.23
0.03,0.81,0.22
0.03,0.77,0.22
0.04,0.73,0.21
0.05,0.72,0.19
0.06,0.76,0.19
0.07,0.8,0.21
0.09,0.82,0.23
0.1,0.81,0.25
0.11,0.78,0.25
0.11,0.72,0.23
0.11,0.67,0.17
0.11,0.66,0.14
0.14,0.68,0.14
0.19,0.73,0.17
0.24,0.76,0.2
0.28,0.76,0.23
0.29,0.73,0.25
0.28,0.68,0.23
0.27,0.64,0.19
0.26,0.63,0.15
0.27,0.65,0.12
0.29,0.69,0.13
0.34,0.71,0.16
0.38,0.7,0.23
0.4,0.64,0.23
0.4,0.61,0.2
0.39,0.63,0.15
0.41,0.69,0.12
0.45,0.72,0.12
0.49,0.7,0.13
0.53,0.66,0.16
0.57,0.61,0.18
0.6,0.55,0.19
0.6,0.54,0.17
0.62,0.61,0.15
0.67,0.65,0.15
0.71,0.62,0.16
0.74,0.59,0.17
0.76,0.54,0.18
0.79,0.48,0.19
0.82,0.4,0.21
0.83,0.35,0.19
0.81,0.37,0.14
0.81,0.46,0.11
0.87,0.53,0.12
0.93,0.53,0.16
0.97,0.49,0.17
0.98,0.43,0.16
0.99,0.37,0.14
1.02,0.32,0.02
1.07,0.34,0
1.09,0.34,0.04
1.11,0.33,0.06
1.12,0.29,0.07
1.13,0.25,0.09
1.15,0.21,0.12
1.16,0.18,0.14
1.18,0.16,0.12
1.22,0.18,0.05
1.26,0.22,0.04
1.29,0.23,0.05
1.29,0.2,0.02
1.26,0.16,0.03
1.21,0.1,0.08
1.21,0.04,0.17
1.23,0,0.23
1.24,-0.02,0.24
1.23,-0.01,0.21
1.2,0.01,0.12
1.16,0,0.03
1.1,-0.04,-0.04
1.09,-0.11,0.02
1.17,-0.17,0.17
1.24,-0.2,0.27
1.25,-0.21,0.29
1.25,-0.22,0.28
1.2,-0.18,0.15
1.13,-0.18,0.08
1.05,-0.2,0.03
1.02,-0.24,0.04
1.05,-0.29,0.1
1.13,-0.35,0.18
1.17,-0.38,0.24
1.14,-0.39,0.25
1.1,-0.42,0.22
1.08,-0.44,0.15
1.02,-0.43,0.1
0.96,-0.43,0.12
0.92,-0.51,0.1
0.89,-0.57,0.06
0.94,-0.62,0.12
1,-0.68,0.19
1.01,-0.69,0.22
1.01,-0.69,0.21
0.99,-0.71,0.16
0.96,-0.72,0.09
0.92,-0.71,0.05
0.89,-0.71,0.04
0.88,-0.72,0.04
0.87,-0.73,0.07
0.87,-0.75,0.1
0.87,-0.77,0.13
0.89,-0.8,0.14
0.83,-0.81,0.13
0.79,-0.81,0.12
0.76,-0.81,0.11
0.76,-0.84,0.1
0.76,-0.84,0.11
0.74,-0.84,0.13
0.74,-0.84,0.13
0.73,-0.83,0.12
0.72,-0.83,0.12
0.7,-0.83,0.12
0.69,-0.83,0.14
0.68,-0.83,0.17
0.68,-0.82,0.19
0.68,-0.82,0.19
0.68,-0.83,0.19
0.68,-0.83,0.18
0.68,-0.83,0.18
0.7,-0.81,0.2
0.71,-0.82,0.18
0.7,-0.82,0.21
0.73,-0.82,0.25
0.79,-0.84,0.26
0.8,-0.88,0.29
0.77,-0.9,0.32
0.71,-0.88,0.36
0.67,-0.87,0.32
0.64,-0.88,0.28
0.62,-0.87,0.25
0.61,-0.86,0.24
0.61,-0.86,0.22
0.62,-0.85,0.22
0.63,-0.86,0.22
0.63,-0.86,0.23
0.63,-0.86,0.23
0.61,-0.86,0.24
0.59,-0.87,0.24
0.58,-0.87,0.26
0.56,-0.87,0.26
0.53,-0.87,0.23
0.53,-0.87,0.21
0.55,-0.88,0.21
0.57,-0.87,0.22
0.59,-0.87,0.23
0.61,-0.86,0.25
0.62,-0.87,0.28
0.63,-0.86,0.31
0.63,-0.85,0.31
0.63,-0.84,0.31
0.65,-0.84,0.33
0.67,-0.84,0.34
0.7,-0.82,0.35
0.73,-0.82,0.39
0.79,-0.83,0.39
0.82,-0.84,0.39
0.85,-0.83,0.37
0.87,-0.83,0.37
0.89,-0.83,0.37
0.92,-0.82,0.35
0.96,-0.81,0.32
1.01,-0.79,0.29
1.06,-0.78,0.24
1.11,-0.78,0.22
1.15,-0.79,0.22
1.16,-0.78,0.2
1.16,-0.77,0.16
1.17,-0.74,0.13
1.2,-0.73,0.11
1.21,-0.73,0.09
1.2,-0.73,0.07
1.19,-0.72,0.03
1.19,-0.72,0
1.19,-0.71,-0.02
1.18,-0.7,-0.03
1.18,-0.67,-0.03
1.19,-0.64,-0.02
1.19,-0.62,0
1.2,-0.6,0.01
1.2,-0.58,-0.01
1.18,-0.54,-0.04
1.18,-0.51,-0.05
1.2,-0.5,-0.05
1.19,-0.49,-0.05
1.17,-0.47,-0.08
1.14,-0.46,-0.09
1.12,-0.44,-0.08
1.12,-0.4,-0.08
1.14,-0.37,-0.08
1.16,-0.35,-0.09
1.16,-0.34,-0.12
1.14,-0.33,-0.16
1.1,-0.31,-0.2
1.08,-0.27,-0.23
1.08,-0.24,-0.24
1.08,-0.21,-0.23
1.07,-0.2,-0.23
1.05,-0.18,-0.23
1.02,-0.16,-0.23
0.99,-0.14,-0.24
0.96,-0.1,-0.25
0.94,-0.06,-0.27
0.94,-0.02,-0.26
0.95,0,-0.22
0.95,0,-0.18
0.94,0.01,-0.17
0.9,0.06,-0.18
0.9,0.11,-0.19
0.89,0.14,-0.18
0.9,0.17,-0.18
0.9,0.18,-0.16
0.89,0.18,-0.13
0.89,0.18,-0.08
0.88,0.2,-0.04
0.87,0.23,-0.01
0.84,0.25,-0.01
0.83,0.28,-0.02
0.81,0.3,-0.03
0.78,0.34,-0.03
0.74,0.39,-0.02
0.72,0.44,-0.02
0.7,0.49,-0.01
0.69,0.54,0
0.67,0.57,0
0.66,0.59,-0.01
0.66,0.59,-0.01
0.65,0.59,-0.02
0.62,0.59,-0.04
0.61,0.61,-0.06
0.6,0.64,-0.08
0.6,0.64,-0.07
0.59,0.65,-0.07
0.58,0.67,-0.08
0.56,0.68,-0.04
0.54,0.7,-0.06
0.53,0.71,-0.12
0.5,0.69,-0.11
0.51,0.7,-0.07
0.51,0.7,-0.04
0.47,0.69,-0.02
0.44,0.7,-0.03
0.42,0.74,-0.03
0.42,0.76,-0.02
0.42,0.76,-0.01
0.4,0.75,0
0.37,0.74,0.01
0.35,0.74,0.02
0.32,0.76,0.04
0.28,0.78,0.05
0.25,0.8,0.06
0.25,0.81,0.07
0.23,0.79,0.08
0.2,0.79,0.09
0.17,0.81,0.09
0.15,0.84,0.09
0.15,0.87,0.08
0.16,0.87,0.08
0.15,0.87,0.1
0.11,0.85,0.12
0.1,0.83,0.15
0.09,0.83,0.16
0.07,0.82,0.16
0.06,0.83,0.14
0.08,0.84,0.14
0.08,0.85,0.13
0.07,0.84,0.13
0.06,0.81,0.14
0.04,0.78,0.16
0,0.77,0.17
-0.02,0.8,0.17
-0.03,0.82,0.17
-0.03,0.83,0.17
-0.05,0.81,0.18
-0.07,0.78,0.19
-0.09,0.74,0.19
-0.13,0.76,0.2
-0.15,0.81,0.22
-0.17,0.85,0.24
-0.19,0.84,0.25
-0.2,0.81,0.27
-0.23,0.78,0.29
-0.24,0.76,0.3
-0.25,0.76,0.31
-0.25,0.77,0.32
-0.26,0.83,0.38
-0.27,0.84,0.42
-0.28,0.81,0.47
-0.32,0.78,0.51
-0.38,0.75,0.51
-0.42,0.75,0.5
-0.43,0.78,0.5
-0.43,0.79,0.5
-0.43,0.79,0.49
-0.44,0.79,0.49
-0.45,0.78,0.49
-0.48,0.75,0.49
-0.5,0.73,0.5
-0.51,0.7,0.5
-0.5,0.7,0.5
-0.49,0.73,0.49
-0.48,0.76,0.46
-0.49,0.76,0.43
-0.51,0.73,0.4
-0.51,0.7,0.38
-0.52,0.68,0.38
-0.52,0.68,0.39
-0.51,0.69,0.39
-0.51,0.72,0.38
-0.52,0.74,0.37
-0.52,0.76,0.36
-0.51,0.75,0.35
-0.5,0.74,0.34
-0.49,0.74,0.32
-0.49,0.75,0.33
-0.49,0.76,0.34
-0.49,0.77,0.35
-0.48,0.78,0.35
-0.47,0.78,0.35
-0.46,0.78,0.34
-0.45,0.78,0.33
-0.43,0.78,0.33
-0.41,0.78,0.35
-0.4,0.77,0.35
-0.39,0.78,0.35
-0.38,0.81,0.36
-0.36,0.82,0.38
-0.35,0.82,0.38
-0.34,0.82,0.38
-0.32,0.81,0.38
-0.29,0.8,0.37
-0.29,0.8,0.37
-0.29,0.8,0.37
-0.28,0.8,0.37
-0.26,0.82,0.36
-0.25,0.84,0.36
-0.25,0.85,0.36
-0.25,0.83,0.35
-0.24,0.82,0.34
-0.23,0.8,0.33
-0.21,0.81,0.33
-0.2,0.84,0.32
-0.19,0.85,0.3
-0.17,0.85,0.28
-0.16,0.83,0.27
-0.16,0.81,0.27
-0.16,0.77,0.27
-0.16,0.75,0.27
-0.14,0.77,0.27
-0.12,0.8,0.26
-0.11,0.81,0.25
-0.1,0.79,0.23
-0.09,0.77,0.22
-0.09,0.72,0.22
-0.08,0.66,0.22
-0.08,0.59,0.23
-0.09,0.55,0.23
-0.07,0.57,0.23
-0.03,0.63,0.23
0.01,0.68,0.23
0.04,0.69,0.23
0.06,0.66,0.24
0.07,0.61,0.25
0.07,0.51,0.22
0.09,0.53,0.18
0.12,0.62,0.17
0.17,0.71,0.17
0.2,0.75,0.17
0.22,0.75,0.17
0.23,0.72,0.17
0.24,0.67,0.16
0.25,0.64,0.16
0.26,0.65,0.14
0.27,0.68,0.1
0.3,0.71,0.06
0.35,0.72,0.05
0.4,0.69,0.06
0.44,0.65,0.07
0.48,0.6,0.08
0.52,0.54,0.11
0.55,0.52,0.12
0.57,0.54,0.11
0.61,0.6,0.12
0.64,0.62,0.14
0.68,0.58,0.14
0.72,0.52,0.15
0.73,0.44,0.16
0.73,0.37,0.13
0.76,0.36,0.08
0.82,0.4,0.08
0.95,0.49,0.1
0.96,0.46,0.13
0.94,0.41,0.19
0.95,0.36,0.22
0.97,0.33,0.19
0.98,0.35,0.14
1.01,0.39,0.1
1.07,0.41,0.08
1.11,0.41,0.08
1.12,0.39,0.09
1.13,0.35,0.12
1.15,0.29,0.17
1.16,0.26,0.18
1.15,0.31,0.16
1.16,0.4,0.14
1.19,0.43,0.12
1.23,0.39,0.08
1.27,0.33,0.08
1.32,0.27,0.12
1.34,0.24,0.15
1.35,0.24,0.11
1.36,0.26,0.07
1.36,0.26,0.07
1.34,0.24,0.07
1.3,0.2,0.07
1.26,0.15,0.07
1.19,0.08,0.06
1.21,0.06,0.07
1.22,0.05,0.08
1.24,0.04,0.09
1.24,0.02,0.08
1.23,0.01,0.05
1.19,-0.01,0.01
1.16,-0.04,0
1.13,-0.07,-0.01
1.1,-0.1,0
1.09,-0.13,0.04
1.09,-0.15,0.08
1.09,-0.17,0.11
1.08,-0.2,0.13
1.06,-0.24,0.13
1.06,-0.28,0.11
1.05,-0.31,0.07
1.04,-0.34,0.03
1.01,-0.37,0.03
1.02,-0.4,0.06
1.04,-0.41,0.1
1.05,-0.4,0.12
1.04,-0.39,0.05
0.99,-0.39,0.01
0.9,-0.39,0.01
0.88,-0.42,-0.03
0.94,-0.52,0.03
0.98,-0.56,0.12
1.03,-0.59,0.24
1.04,-0.61,0.3
1.01,-0.62,0.29
0.96,-0.61,0.28
0.88,-0.61,0.28
0.81,-0.65,0.24
0.76,-0.71,0.2
0.75,-0.74,0.25
0.81,-0.77,0.32
0.87,-0.81,0.37
0.96,-0.82,0.46
1.04,-0.8,0.53
1.03,-0.77,0.51
0.99,-0.79,0.46
0.94,-0.87,0.43
0.88,-0.83,0.39
0.85,-0.76,0.38
0.83,-0.86,0.37
0.78,-0.91,0.33
0.68,-0.85,0.35
0.65,-0.82,0.39
0.64,-0.82,0.35
0.6,-0.8,0.34
0.61,-0.8,0.31
0.49,-0.83,0.34
0.51,-0.82,0.32
0.55,-0.84,0.29
0.57,-0.82,0.33
0.6,-0.81,0.39
0.6,-0.82,0.39
0.59,-0.82,0.35
0.57,-0.83,0.33
0.53,-0.83,0.34
0.5,-0.83,0.35
0.49,-0.84,0.36
0.51,-0.83,0.36
0.49,-0.84,0.37
0.46,-0.85,0.36
0.47,-0.84,0.36
0.5,-0.84,0.36
0.51,-0.82,0.37
0.48,-0.81,0.4
0.5,-0.84,0.41
0.53,-0.83,0.43
0.54,-0.84,0.38
0.47,-0.83,0.39
0.45,-0.8,0.47
0.5,-0.82,0.48
0.49,-0.82,0.48
0.52,-0.85,0.48
0.5,-0.84,0.51
0.51,-0.84,0.49
0.49,-0.83,0.47
0.49,-0.83,0.46
0.52,-0.84,0.46
0.5,-0.83,0.47
0.47,-0.82,0.47
0.47,-0.83,0.47
0.47,-0.82,0.46
0.47,-0.83,0.45
0.47,-0.83,0.43
0.47,-0.84,0.41
0.47,-0.84,0.39
0.47,-0.84,0.38
0.47,-0.85,0.37
0.46,-0.85,0.36
0.44,-0.84,0.36
0.44,-0.85,0.35
0.44,-0.85,0.34
0.44,-0.85,0.32
0.45,-0.85,0.32
0.44,-0.85,0.31
0.45,-0.85,0.32
0.47,-0.86,0.34
0.48,-0.85,0.36
0.48,-0.85,0.36
0.49,-0.85,0.36
0.51,-0.84,0.35
0.52,-0.83,0.35
0.54,-0.82,0.37
0.56,-0.82,0.42
0.57,-0.83,0.43
0.56,-0.83,0.44
0.56,-0.84,0.46
0.57,-0.83,0.46
0.6,-0.83,0.46
0.64,-0.82,0.48
0.67,-0.81,0.5
0.71,-0.82,0.5
0.75,-0.85,0.53
0.79,-0.86,0.52
0.8,-0.85,0.47
0.82,-0.83,0.46
0.86,-0.82,0.46
0.93,-0.83,0.47
0.96,-0.85,0.51
1,-0.84,0.54
1.04,-0.82,0.49
1.01,-0.79,0.43
1,-0.72,0.42
0.99,-0.68,0.44
0.96,-0.71,0.4
1.08,-0.69,0.42
1.06,-0.69,0.41
1.12,-0.67,0.39
1.17,-0.71,0.33
1.24,-0.7,0.24
1.28,-0.66,0.19
1.28,-0.64,0.17
1.29,-0.61,0.16
1.29,-0.61,0.17
1.29,-0.62,0.18
1.28,-0.66,0.14
1.27,-0.63,0.12
1.28,-0.6,0.13
1.27,-0.59,0.13
1.29,-0.54,0.09
1.27,-0.54,0.07
1.26,-0.5,0.07
1.26,-0.44,0.08
1.23,-0.42,0.1
1.22,-0.37,0.06
1.23,-0.33,0
1.22,-0.31,-0.04
1.21,-0.3,-0.07
1.2,-0.3,-0.1
1.19,-0.25,-0.12
1.21,-0.18,-0.13
1.24,-0.1,-0.09
1.22,-0.07,-0.07
1.19,-0.05,-0.07
1.16,-0.03,-0.09
1.15,-0.01,-0.1
1.14,0.01,-0.11
1.13,0.02,-0.11
1.11,0.03,-0.09
1.09,0.03,-0.06
1.07,0.05,-0.04
1.04,0.08,-0.02
1.01,0.1,0
0.99,0.13,0.03
0.97,0.14,0.06
0.94,0.15,0.06
0.9,0.17,0.04
0.87,0.19,0.04
0.85,0.2,0.05
0.83,0.2,0.08
0.8,0.2,0.1
0.78,0.22,0.11
0.75,0.24,0.11
0.73,0.28,0.11
0.71,0.31,0.14
0.7,0.32,0.16
0.69,0.31,0.16
0.65,0.31,0.14
0.59,0.36,0.13
0.58,0.39,0.15
0.59,0.42,0.17
0.58,0.45,0.2
0.57,0.47,0.23
0.54,0.48,0.24
0.52,0.5,0.24
0.5,0.51,0.24
0.5,0.52,0.23
0.37,0.51,0.2
0.35,0.56,0.24
0.45,0.62,0.24
0.48,0.65,0.16
0.49,0.68,0.17
0.45,0.67,0.16
0.43,0.62,0.06
0.37,0.61,0.04
0.36,0.61,0.11
0.35,0.6,0.11
0.31,0.61,0.09
0.28,0.63,0.12
0.26,0.63,0.14
0.24,0.65,0.17
0.23,0.65,0.2
0.23,0.67,0.21
0.23,0.7,0.25
0.21,0.73,0.29
0.19,0.72,0.33
0.17,0.71,0.37
0.15,0.72,0.4
0.13,0.74,0.42
0.12,0.75,0.42
0.11,0.75,0.41
0.11,0.74,0.42
0.1,0.72,0.43
0.07,0.72,0.43
0.06,0.74,0.42
0.03,0.73,0.42
0.01,0.72,0.41
-0.01,0.7,0.41
-0.04,0.69,0.42
-0.07,0.71,0.44
-0.12,0.73,0.46
-0.17,0.75,0.48
-0.2,0.77,0.49
-0.23,0.77,0.48
-0.26,0.76,0.47
-0.28,0.75,0.46
-0.29,0.75,0.46
-0.3,0.75,0.49
-0.34,0.76,0.51
-0.38,0.77,0.52
-0.45,0.76,0.52
-0.45,0.77,0.53
-0.45,0.77,0.53
-0.45,0.77,0.53
-0.46,0.75,0.52
-0.48,0.73,0.49
-0.48,0.73,0.47
-0.47,0.73,0.46
-0.45,0.74,0.46
-0.43,0.75,0.45
-0.41,0.76,0.44
-0.4,0.75,0.43
-0.39,0.73,0.43
-0.38,0.72,0.41
-0.37,0.72,0.41
-0.36,0.72,0.41
-0.36,0.72,0.41
-0.35,0.74,0.4
-0.33,0.76,0.39
-0.32,0.78,0.39
-0.31,0.8,0.4
-0.3,0.81,0.4
-0.28,0.81,0.4
-0.27,0.8,0.4
-0.26,0.8,0.41
-0.26,0.81,0.42
-0.25,0.82,0.42
-0.24,0.83,0.41
-0.23,0.83,0.4
-0.21,0.82,0.39
-0.21,0.81,0.38
-0.2,0.79,0.38
-0.2,0.76,0.38
-0.2,0.75,0.38
-0.21,0.77,0.38
-0.2,0.79,0.38
-0.18,0.78,0.37
-0.17,0.78,0.36
-0.17,0.76,0.37
-0.16,0.73,0.38
-0.16,0.7,0.39
-0.14,0.71,0.4
-0.13,0.73,0.41
-0.11,0.75,0.42
-0.09,0.74,0.42
-0.08,0.71,0.42
-0.08,0.67,0.41
-0.08,0.62,0.4
-0.08,0.57,0.38
-0.07,0.52,0.36
-0.05,0.47,0.33
-0.03,0.45,0.3
0.04,0.47,0.24
0.06,0.48,0.22
0.04,0.49,0.23
0.04,0.52,0.24
0.05,0.54,0.26
0.09,0.57,0.26
0.12,0.61,0.26
0.15,0.65,0.24
0.17,0.68,0.24
0.19,0.67,0.26
0.18,0.66,0.29
0.18,0.65,0.32
0.18,0.65,0.33
0.19,0.72,0.32
0.24,0.77,0.34
0.31,0.77,0.35
0.36,0.75,0.37
0.39,0.71,0.38
0.4,0.66,0.39
0.42,0.62,0.41
0.45,0.62,0.41
0.48,0.68,0.4
0.53,0.73,0.39
0.58,0.74,0.38
0.62,0.72,0.37
0.68,0.68,0.36
0.74,0.55,0.34
0.81,0.51,0.33
0.83,0.51,0.29
0.85,0.54,0.27
0.87,0.58,0.26
0.9,0.59,0.28
0.93,0.54,0.31
0.94,0.48,0.33
0.94,0.43,0.31
0.95,0.42,0.26
0.96,0.43,0.21
0.97,0.44,0.21
0.98,0.42,0.23
1.01,0.37,0.27
1.05,0.32,0.32
1.09,0.28,0.32
1.11,0.26,0.27
1.11,0.29,0.18
1.1,0.36,0.09
1.09,0.41,0.07
1.08,0.4,0.08
1.07,0.35,0.08
1.03,0.31,0.07
1.04,0.25,0.13
1.07,0.19,0.18
1.08,0.18,0.1
1.08,0.29,0.06
1.12,0.33,0.05
1.15,0.32,0.05
1.14,0.27,0.07
1.1,0.23,0.13
1.08,0.19,0.13
1.11,0.18,0.09
1.15,0.23,0.08
1.18,0.27,0.13
1.21,0.26,0.18
1.24,0.21,0.2
1.24,0.17,0.21
1.24,0.13,0.17
1.3,0.1,0.15
1.3,0.1,0.14
1.5,0.09,0.16
1.47,0.12,0.2
1.31,0.15,0.19
1.2,0.13,0.27
0.93,0.12,0.21
1.11,0.1,0.02
1.37,0.03,0.03
1.49,-0.08,0.14
1.49,-0.15,0.25
1.39,-0.15,0.26
1.27,-0.12,0.23
1.17,-0.08,0.22
1.12,-0.05,0.18
1.11,-0.03,0.17
1.11,-0.02,0.18
1.07,-0.03,0.2
1.02,-0.03,0.2
0.96,-0.02,0.16
0.93,-0.03,0.11
0.9,-0.03,0.05
0.88,-0.05,0.01
0.9,-0.07,0.02
0.94,-0.1,0.03
0.99,-0.14,0.06
1.02,-0.16,0.09
1.01,-0.18,0.1
0.99,-0.2,0.12
0.99,-0.21,0.15
0.97,-0.21,0.16
0.93,-0.2,0.14
0.89,-0.2,0.08
0.9,-0.22,0.02
0.94,-0.25,0
0.97,-0.28,0.01
0.98,-0.31,0.05
0.97,-0.34,0.1
0.95,-0.36,0.13
0.95,-0.38,0.18
0.93,-0.41,0.18
0.94,-0.44,0.16
0.94,-0.46,0.16
0.92,-0.49,0.16
0.91,-0.52,0.14
0.94,-0.53,0.12
0.95,-0.54,0.1
0.95,-0.55,0.1
0.94,-0.55,0.09
0.9,-0.57,0.08
0.88,-0.57,0.07
0.88,-0.59,0.07
0.89,-0.61,0.08
0.9,-0.63,0.1
0.89,-0.65,0.12
0.87,-0.66,0.13
0.85,-0.66,0.13
0.84,-0.67,0.15
0.85,-0.65,0.16
0.82,-0.66,0.14
0.78,-0.68,0.15
0.79,-0.69,0.15
0.77,-0.72,0.14
0.77,-0.73,0.14
0.77,-0.73,0.15
0.78,-0.76,0.13
0.74,-0.78,0.13
0.72,-0.77,0.15
0.76,-0.77,0.22
0.76,-0.76,0.25
0.76,-0.78,0.24
0.74,-0.83,0.21
0.74,-0.75,0.23
0.75,-0.78,0.25
0.72,-0.85,0.2
0.72,-0.82,0.23
0.68,-0.8,0.26
0.66,-0.82,0.27
0.7,-0.84,0.27
0.68,-0.81,0.3
0.66,-0.81,0.34
0.62,-0.85,0.33
0.56,-0.84,0.32
0.6,-0.84,0.3
0.62,-0.83,0.29
0.59,-0.83,0.29
0.61,-0.83,0.29
0.59,-0.82,0.29
0.6,-0.83,0.28
0.63,-0.84,0.28
0.64,-0.83,0.29
0.64,-0.82,0.27
0.65,-0.82,0.25
0.66,-0.81,0.24
0.66,-0.81,0.22
0.66,-0.81,0.22
0.66,-0.8,0.21
0.67,-0.8,0.21
0.67,-0.8,0.22
0.65,-0.8,0.23
0.64,-0.8,0.24
0.64,-0.8,0.25
0.64,-0.81,0.25
0.64,-0.81,0.25
0.63,-0.81,0.25
0.62,-0.81,0.25
0.62,-0.81,0.25
0.61,-0.81,0.24
0.61,-0.81,0.24
0.6,-0.82,0.25
0.58,-0.82,0.26
0.58,-0.82,0.26
0.58,-0.82,0.25
0.58,-0.82,0.25
0.59,-0.82,0.24
0.59,-0.82,0.26
0.58,-0.82,0.27
0.58,-0.82,0.26
0.58,-0.82,0.28
0.58,-0.82,0.3
0.58,-0.82,0.32
0.59,-0.82,0.34
0.62,-0.82,0.36
0.64,-0.82,0.39
0.65,-0.83,0.42
0.69,-0.83,0.46
0.71,-0.84,0.5
0.72,-0.84,0.52
0.74,-0.83,0.52
0.76,-0.81,0.53
0.82,-0.78,0.56
0.88,-0.74,0.56
0.96,-0.7,0.48
1.01,-0.69,0.52
1.01,-0.7,0.59
1.02,-0.71,0.61
1.02,-0.71,0.64
1.06,-0.72,0.61
1.11,-0.74,0.56
1.14,-0.75,0.51
1.17,-0.76,0.48
1.2,-0.77,0.43
1.24,-0.76,0.4
1.24,-0.75,0.39
1.25,-0.73,0.32
1.24,-0.74,0.3
1.24,-0.74,0.3
1.26,-0.71,0.3
1.26,-0.7,0.29
1.27,-0.67,0.28
1.24,-0.65,0.3
1.23,-0.65,0.31
1.24,-0.63,0.31
1.26,-0.61,0.32
1.24,-0.59,0.3
1.23,-0.55,0.2
1.2,-0.52,0.11
1.2,-0.51,0.07
1.23,-0.51,0.06
1.22,-0.54,0.07
1.2,-0.54,0.1
1.2,-0.52,0.1
1.18,-0.5,0.07
1.15,-0.47,0.02
1.16,-0.44,-0.03
1.17,-0.43,-0.05
1.13,-0.42,-0.07
1.09,-0.4,-0.06
1.07,-0.37,-0.06
1.1,-0.32,-0.06
1.11,-0.27,-0.06
1.05,-0.24,-0.09
1.02,-0.22,-0.09
1.01,-0.19,-0.07
0.99,-0.16,-0.06
0.96,-0.14,-0.06
0.96,-0.12,-0.02
0.95,-0.1,-0.01
0.91,-0.06,0
0.91,-0.01,0.02
0.91,0.02,0.02
0.88,0.05,0.03
0.85,0.1,0.04
0.84,0.14,0.04
0.82,0.19,0.05
0.78,0.21,0.05
0.78,0.23,0.05
0.77,0.27,0.07
0.72,0.31,0.08
0.72,0.34,0.07
0.72,0.36,0.06
0.72,0.37,0.06
0.69,0.4,0.07
0.67,0.41,0.07
0.68,0.42,0.09
0.64,0.47,0.09
0.61,0.49,0.08
0.66,0.52,0.07
0.6,0.52,0.01
0.55,0.51,0.03
0.59,0.49,0.01
0.57,0.48,0.01
0.56,0.5,0.02
0.52,0.55,0.02
0.47,0.58,0.03
0.42,0.61,0.05
0.39,0.65,0.06
0.39,0.67,0.08
0.39,0.63,0.09
0.37,0.6,0.1
0.33,0.59,0.11
0.29,0.61,0.11
0.26,0.65,0.11
0.23,0.68,0.1
0.18,0.7,0.09
0.12,0.7,0.09
0.07,0.71,0.1
0.02,0.72,0.11
0,0.74,0.14
-0.02,0.76,0.15
-0.04,0.76,0.15
-0.06,0.76,0.12
-0.08,0.77,0.09
-0.13,0.82,0.1
-0.13,0.8,0.11
-0.15,0.77,0.11
-0.18,0.76,0.11
-0.2,0.78,0.13
-0.2,0.82,0.15
-0.2,0.84,0.18
-0.2,0.82,0.22
-0.21,0.75,0.25
-0.23,0.67,0.26
-0.28,0.63,0.27
-0.32,0.67,0.28
-0.35,0.77,0.29
-0.36,0.82,0.29
-0.37,0.83,0.28
-0.39,0.82,0.27
-0.44,0.8,0.28
-0.48,0.78,0.29
-0.52,0.77,0.28
-0.55,0.8,0.28
-0.56,0.84,0.28
-0.57,0.86,0.28
-0.58,0.87,0.27
-0.59,0.87,0.26
-0.59,0.87,0.25
-0.58,0.87,0.24
-0.53,0.83,0.24
-0.53,0.83,0.24
-0.52,0.85,0.22
-0.5,0.85,0.2
-0.46,0.84,0.19
-0.44,0.84,0.19
-0.42,0.85,0.19
-0.39,0.85,0.19
-0.35,0.84,0.19
-0.32,0.82,0.19
-0.3,0.82,0.19
-0.29,0.83,0.19
-0.28,0.82,0.2
-0.26,0.8,0.22
-0.24,0.76,0.24
-0.22,0.7,0.25
-0.22,0.65,0.27
-0.22,0.63,0.25
-0.22,0.66,0.21
-0.18,0.7,0.17
-0.14,0.71,0.17
-0.11,0.7,0.19
-0.1,0.67,0.22
-0.1,0.64,0.25
-0.09,0.59,0.25
-0.09,0.58,0.23
-0.05,0.7,0.24
-0.03,0.73,0.25
-0.01,0.74,0.24
0.01,0.73,0.22
0.01,0.7,0.2
0.02,0.67,0.18
0.04,0.66,0.16
0.08,0.67,0.14
0.13,0.69,0.13
0.18,0.72,0.14
0.21,0.72,0.16
0.23,0.7,0.17
0.25,0.67,0.16
0.27,0.64,0.12
0.3,0.64,0.07
0.34,0.64,0.04
0.38,0.64,0.04
0.4,0.62,0.05
0.42,0.57,0.07
0.45,0.5,0.07
0.47,0.44,0.06
0.48,0.42,0.04
0.5,0.44,0.04
0.55,0.47,0.05
0.61,0.5,0.07
0.66,0.52,0.14
0.73,0.42,0.17
0.75,0.35,0.19
0.76,0.29,0.19
0.75,0.28,0.18
0.78,0.3,0.14
0.83,0.33,0.12
0.91,0.36,0.13
0.97,0.34,0.16
1.02,0.29,0.19
1.05,0.24,0.22
1.07,0.2,0.22
1.06,0.16,0.19
1.03,0.14,0.15
1.03,0.14,0.14
1.06,0.16,0.18
1.12,0.18,0.25
1.17,0.19,0.27
1.19,0.17,0.3
1.21,0.11,0.32
1.24,0.06,0.33
1.24,0.02,0.28
1.22,-0.01,0.19
1.21,-0.02,0.16
1.21,-0.04,0.19
1.24,-0.08,0.27
1.24,-0.09,0.33
1.22,-0.13,0.32
1.21,-0.18,0.3
1.21,-0.25,0.29
1.21,-0.29,0.3
1.19,-0.31,0.31
1.16,-0.33,0.32
1.16,-0.36,0.32
1.17,-0.41,0.32
1.16,-0.46,0.3
1.13,-0.49,0.29
1.1,-0.5,0.31
1.1,-0.48,0.34
1.13,-0.46,0.38
1.19,-0.44,0.43
1.24,-0.44,0.45
1.22,-0.46,0.41
1.17,-0.48,0.34
1.13,-0.52,0.25
1.08,-0.57,0.17
1.06,-0.63,0.18
1.06,-0.66,0.28
1.08,-0.65,0.37
1.09,-0.62,0.4
1.06,-0.61,0.4
1.01,-0.61,0.39
0.98,-0.64,0.37
0.95,-0.72,0.3
0.82,-0.76,0.27
0.8,-0.79,0.28
0.83,-0.75,0.33
0.87,-0.71,0.38
0.87,-0.7,0.41
0.88,-0.7,0.39
0.87,-0.72,0.37
0.86,-0.74,0.34
0.82,-0.76,0.32
0.75,-0.78,0.31
0.73,-0.81,0.27
0.76,-0.83,0.26
0.77,-0.82,0.29
0.79,-0.81,0.33
0.8,-0.8,0.32
0.79,-0.81,0.32
0.78,-0.82,0.31
0.78,-0.82,0.29
0.76,-0.82,0.28
0.73,-0.83,0.27
0.7,-0.85,0.26
0.68,-0.86,0.26
0.67,-0.87,0.27
0.67,-0.87,0.27
0.68,-0.86,0.28
0.69,-0.85,0.3
0.69,-0.85,0.31
0.7,-0.86,0.29
0.68,-0.85,0.28
0.64,-0.85,0.29
0.64,-0.86,0.3
0.65,-0.88,0.29
0.65,-0.88,0.27
0.63,-0.87,0.26
0.62,-0.86,0.26
0.61,-0.85,0.25
0.6,-0.84,0.24
0.58,-0.84,0.23
0.57,-0.84,0.22
0.57,-0.84,0.22
0.56,-0.84,0.21
0.56,-0.84,0.21
0.55,-0.84,0.22
0.54,-0.84,0.22
0.53,-0.84,0.22
0.52,-0.85,0.22
0.52,-0.85,0.22
0.51,-0.85,0.22
0.5,-0.85,0.21
0.49,-0.85,0.21
0.49,-0.85,0.22
0.49,-0.85,0.21
0.49,-0.85,0.21
0.49,-0.85,0.21
0.49,-0.84,0.22
0.5,-0.84,0.23
0.5,-0.84,0.22
0.49,-0.83,0.22
0.49,-0.83,0.23
0.5,-0.83,0.24
0.5,-0.83,0.26
0.5,-0.83,0.26
0.51,-0.83,0.26
0.5,-0.83,0.25
0.5,-0.83,0.25
0.5,-0.83,0.25
0.5,-0.83,0.25
0.5,-0.84,0.24
0.51,-0.84,0.24
0.51,-0.84,0.24
0.51,-0.84,0.24
0.52,-0.84,0.25
0.52,-0.84,0.25
0.52,-0.84,0.25
0.52,-0.84,0.24
0.53,-0.84,0.24
0.53,-0.84,0.24
0.53,-0.85,0.24
0.54,-0.85,0.24
0.54,-0.86,0.24
0.54,-0.86,0.25
0.54,-0.86,0.25
0.54,-0.85,0.27
0.55,-0.85,0.28
0.57,-0.85,0.29
0.59,-0.86,0.31
0.63,-0.86,0.32
0.65,-0.84,0.34
0.68,-0.83,0.33
0.7,-0.82,0.31
0.72,-0.83,0.35
0.77,-0.84,0.39
0.81,-0.85,0.44
0.83,-0.85,0.48
0.87,-0.85,0.49
0.89,-0.85,0.47
0.91,-0.84,0.47
0.95,-0.84,0.48
1,-0.83,0.51
1.03,-0.84,0.52
1.03,-0.84,0.51
1.03,-0.84,0.49
1.04,-0.85,0.47
1.04,-0.85,0.43
1.03,-0.83,0.42
1.02,-0.82,0.41
1.01,-0.83,0.4
1,-0.83,0.39
1,-0.81,0.36
0.98,-0.8,0.32
0.96,-0.8,0.3
0.97,-0.79,0.28
1,-0.77,0.29
1.02,-0.74,0.28
0.98,-0.73,0.23
1.01,-0.73,0.2
1.07,-0.71,0.18
1.04,-0.71,0.17
1.01,-0.71,0.17
1.03,-0.7,0.15
1.05,-0.68,0.13
1.04,-0.65,0.11
1.05,-0.65,0.11
1.06,-0.64,0.1
1.03,-0.62,0.1
1.04,-0.6,0.06
1.08,-0.56,0.03
1.07,-0.52,0.04
1.07,-0.5,0
1.1,-0.48,-0.06
1.09,-0.45,-0.06
1.1,-0.44,-0.07
1.09,-0.42,-0.06
1.08,-0.4,-0.05
1.06,-0.38,-0.05
1.05,-0.35,-0.07
1.04,-0.32,-0.09
1.03,-0.29,-0.11
1.04,-0.26,-0.11
1.04,-0.24,-0.11
1.04,-0.22,-0.1
1.03,-0.19,-0.1
1.01,-0.17,-0.11
0.99,-0.14,-0.12
0.99,-0.09,-0.14
0.99,-0.05,-0.13
0.98,-0.01,-0.12
0.96,0,-0.1
0.96,0.01,-0.08
0.96,0.05,-0.08
0.95,0.08,-0.08
0.95,0.11,-0.07
0.96,0.15,-0.07
0.94,0.18,-0.08
0.92,0.19,-0.08
0.9,0.2,-0.07
0.89,0.2,-0.06
0.87,0.24,-0.05
0.86,0.26,-0.05
0.87,0.29,-0.06
0.87,0.32,-0.07
0.86,0.35,-0.06
0.83,0.36,-0.07
0.82,0.36,-0.07
0.82,0.38,-0.09
0.82,0.4,-0.09
0.8,0.43,-0.09
0.77,0.45,-0.1
0.74,0.44,-0.1
0.72,0.43,-0.1
0.68,0.43,-0.09
0.64,0.46,-0.08
0.63,0.49,-0.1
0.63,0.5,-0.09
0.59,0.51,-0.06
0.57,0.53,-0.08
0.55,0.55,-0.1
0.52,0.57,-0.1
0.53,0.61,-0.07
0.51,0.62,-0.04
0.49,0.63,-0.04
0.46,0.66,-0.02
0.41,0.71,-0.02
0.38,0.75,-0.02
0.37,0.77,-0.02
0.36,0.79,-0.02
0.34,0.82,-0.02
0.32,0.8,0
0.29,0.78,0.03
0.26,0.77,0.05
0.24,0.77,0.06
0.21,0.79,0.06
0.19,0.83,0.05
0.16,0.86,0.05
0.14,0.89,0.07
0.13,0.9,0.08
0.1,0.88,0.09
0.09,0.83,0.08
0.07,0.8,0.08
0.05,0.78,0.07
0.05,0.8,0.08
0.04,0.84,0.08
0.03,0.86,0.1
0.01,0.83,0.1
-0.01,0.79,0.1
-0.03,0.79,0.1
-0.06,0.79,0.11
-0.09,0.77,0.13
-0.11,0.71,0.14
-0.15,0.68,0.16
-0.16,0.69,0.18
-0.17,0.73,0.19
-0.18,0.75,0.19
-0.2,0.75,0.2
-0.21,0.78,0.21
-0.22,0.8,0.21
-0.24,0.8,0.22
-0.26,0.8,0.24
-0.27,0.79,0.25
-0.28,0.79,0.29
-0.29,0.82,0.32
-0.29,0.87,0.34
-0.31,0.89,0.34
-0.32,0.88,0.34
-0.31,0.87,0.34
-0.31,0.86,0.33
-0.3,0.87,0.34
-0.31,0.89,0.37
-0.32,0.91,0.39
-0.33,0.91,0.39
-0.35,0.91,0.39
-0.34,0.91,0.39
-0.34,0.9,0.39
-0.33,0.9,0.39
-0.31,0.9,0.39
-0.29,0.89,0.39
-0.28,0.88,0.38
-0.27,0.88,0.38
-0.25,0.87,0.36
-0.23,0.86,0.34
-0.21,0.85,0.33
-0.2,0.84,0.33
-0.19,0.84,0.32
-0.18,0.84,0.3
-0.15,0.85,0.28
-0.14,0.86,0.27
-0.14,0.86,0.27
-0.12,0.85,0.28
-0.1,0.83,0.27
-0.1,0.82,0.26
-0.09,0.82,0.26
-0.08,0.84,0.25
-0.07,0.86,0.24
-0.06,0.88,0.22
-0.04,0.88,0.22
-0.02,0.87,0.23
-0.01,0.84,0.23
0,0.82,0.23
0.01,0.82,0.21
0.03,0.84,0.2
0.05,0.83,0.2
0.08,0.81,0.19
0.09,0.77,0.19
0.1,0.72,0.18
0.11,0.68,0.17
0.12,0.68,0.15
0.15,0.71,0.14
0.17,0.72,0.13
0.18,0.71,0.12
0.18,0.69,0.09
0.19,0.66,0.08
0.2,0.61,0.08
0.2,0.59,0.07
0.17,0.6,0.05
0.17,0.65,0.03
0.22,0.69,-0.01
0.3,0.73,-0.03
0.35,0.74,-0.03
0.38,0.71,-0.01
0.4,0.65,0.02
0.4,0.58,0.04
0.39,0.53,0.03
0.4,0.58,0
0.44,0.66,-0.01
0.49,0.7,-0.03
0.52,0.68,-0.03
0.53,0.65,0.01
0.55,0.52,0.02
0.57,0.46,0.02
0.59,0.43,0
0.61,0.47,-0.03
0.64,0.57,-0.04
0.71,0.63,-0.03
0.75,0.6,-0.01
0.75,0.54,0.02
0.76,0.46,0.03
0.78,0.39,-0.02
0.79,0.38,-0.08
0.81,0.45,-0.09
0.87,0.51,-0.07
0.93,0.51,-0.05
0.96,0.48,-0.02
0.95,0.43,0.02
0.96,0.36,0.06
0.97,0.28,0.07
0.97,0.27,0.02
0.99,0.36,-0.01
1.06,0.44,-0.02
1.1,0.43,-0.01
1.1,0.39,0.03
1.08,0.33,0.07
1.07,0.26,0.1
1.06,0.17,0.08
1.03,0.14,0.03
1.08,0.23,0
1.15,0.27,-0.02
1.19,0.24,-0.03
1.2,0.2,-0.02
1.2,0.15,-0.01
1.2,0.08,-0.01
1.19,0.03,-0.03
1.17,0.01,-0.04
1.18,0.04,-0.05
1.2,0.08,-0.05
1.22,0.09,-0.06
1.23,0.07,-0.09
1.21,0.06,-0.11
1.21,0.04,-0.1
1.22,0.01,-0.1
1.22,-0.01,-0.11
1.21,-0.02,-0.1
1.2,-0.03,-0.1
1.19,-0.04,-0.1
1.18,-0.07,-0.09
1.17,-0.11,-0.08
1.16,-0.14,-0.09
1.14,-0.17,-0.1
1.12,-0.19,-0.09
1.13,-0.2,-0.04
1.14,-0.21,-0.03
1.13,-0.25,-0.04
1.11,-0.28,-0.06
1.09,-0.32,-0.09
1.08,-0.35,-0.13
1.07,-0.38,-0.17
1.06,-0.42,-0.2
1.07,-0.43,-0.22
1.09,-0.46,-0.2
1.09,-0.49,-0.14
1.08,-0.51,-0.09
1.07,-0.52,-0.06
1.05,-0.51,-0.06
1.02,-0.52,-0.1
1,-0.55,-0.14
0.97,-0.59,-0.17
0.93,-0.62,-0.19
0.93,-0.63,-0.18
0.97,-0.63,-0.14
0.99,-0.62,-0.09
0.99,-0.61,-0.07
0.98,-0.6,-0.08
0.96,-0.61,-0.09
0.97,-0.61,-0.1
0.99,-0.63,-0.09
1.04,-0.65,0.05
1.16,-0.66,0.13
1.18,-0.65,0.18
1.17,-0.66,0.19
1.14,-0.68,0.15
1.07,-0.71,0.11
0.96,-0.72,0.08
0.9,-0.72,0.03
0.88,-0.75,0.02
0.83,-0.77,0.02
0.81,-0.77,0.06
0.82,-0.75,0.1
0.81,-0.72,0.11
0.81,-0.71,0.1
0.78,-0.73,0.07
0.74,-0.76,0.05
0.75,-0.76,0.01
0.74,-0.75,0.03
0.74,-0.74,0.08
0.78,-0.75,0.07
0.81,-0.74,0.08
0.83,-0.72,0.08
0.83,-0.73,0.08
0.8,-0.74,0.07
0.78,-0.73,0.07
0.78,-0.74,0.05
0.77,-0.74,0.04
0.73,-0.75,0.09
0.74,-0.75,0.09
0.73,-0.75,0.09
0.73,-0.74,0.09
0.74,-0.74,0.08
0.75,-0.74,0.08
0.74,-0.75,0.08
0.73,-0.76,0.09
0.71,-0.76,0.09
0.71,-0.76,0.08
0.7,-0.76,0.08
0.7,-0.76,0.08
0.69,-0.76,0.08
0.68,-0.76,0.09
0.68,-0.76,0.09
0.68,-0.76,0.09
0.67,-0.75,0.09
0.67,-0.75,0.08
0.67,-0.75,0.07
0.67,-0.75,0.07
0.67,-0.75,0.08
0.67,-0.75,0.08
0.67,-0.75,0.07
0.66,-0.75,0.07
0.67,-0.74,0.06
0.68,-0.74,0.07
0.68,-0.75,0.08
0.68,-0.75,0.1
0.67,-0.75,0.1
0.67,-0.74,0.1
0.7,-0.74,0.1
0.72,-0.73,0.1
0.74,-0.73,0.12
0.76,-0.74,0.13
0.79,-0.74,0.15
0.81,-0.73,0.17
0.83,-0.73,0.2
0.87,-0.73,0.25
0.91,-0.74,0.29
0.93,-0.75,0.29
0.93,-0.75,0.25
0.99,-0.77,0.23
1.1,-0.78,0.22
1.12,-0.77,0.21
1.11,-0.78,0.28
1.17,-0.76,0.29
1.22,-0.75,0.26
1.23,-0.72,0.26
1.24,-0.67,0.2
1.27,-0.64,0.14
1.32,-0.63,0.09
1.37,-0.66,0.07
1.41,-0.65,0.09
1.43,-0.64,0.1
1.45,-0.63,0.09
1.42,-0.64,0.07
1.38,-0.64,0.03
1.37,-0.65,0
1.37,-0.63,0.01
1.36,-0.61,0.02
1.34,-0.6,0.01
1.33,-0.59,-0.02
1.31,-0.58,-0.05
1.3,-0.58,-0.08
1.31,-0.58,-0.1
1.28,-0.59,-0.09
1.26,-0.57,-0.11
1.24,-0.55,-0.12
1.19,-0.54,-0.13
1.15,-0.53,-0.15
1.15,-0.51,-0.18
1.17,-0.48,-0.21
1.16,-0.47,-0.22
1.14,-0.46,-0.23
1.12,-0.44,-0.25
1.13,-0.42,-0.27
1.1,-0.42,-0.27
1.06,-0.39,-0.29
1.06,-0.33,-0.29
1.03,-0.31,-0.29
1.01,-0.29,-0.28
1,-0.26,-0.28
0.99,-0.22,-0.27
0.99,-0.18,-0.27
0.97,-0.14,-0.27
0.94,-0.12,-0.27
0.92,-0.1,-0.25
0.9,-0.08,-0.23
0.87,-0.05,-0.22
0.88,-0.01,-0.22
0.87,0.01,-0.21
0.84,0.04,-0.19
0.83,0.09,-0.16
0.82,0.12,-0.12
0.81,0.13,-0.08
0.77,0.15,-0.07
0.75,0.19,-0.07
0.77,0.22,-0.08
0.74,0.25,-0.08
0.69,0.27,-0.08
0.66,0.3,-0.07
0.63,0.34,-0.06
0.6,0.38,-0.07
0.59,0.42,-0.08
0.57,0.47,-0.07
0.51,0.53,-0.06
0.48,0.54,-0.05
0.44,0.56,-0.06
0.43,0.61,-0.07
0.39,0.66,-0.07
0.33,0.69,-0.08
0.34,0.74,-0.06
0.34,0.77,-0.03
0.34,0.77,0.01
0.33,0.73,0.06
0.3,0.71,0.1
0.26,0.72,0.11
0.23,0.75,0.1
0.22,0.8,0.07
0.22,0.86,0.04
0.21,0.9,0.03
0.21,0.91,0.03
0.19,0.9,0.03
0.14,0.92,0.03
0.1,0.92,0.03
0.08,0.88,0.04
0.08,0.86,0.06
0.07,0.85,0.06
0.04,0.83,0.04
0.02,0.82,0.03
0.02,0.82,0.01
-0.01,0.79,0.03
-0.03,0.76,0.04
-0.06,0.73,0.04
-0.09,0.7,0.06
-0.12,0.69,0.07
-0.15,0.7,0.09
-0.18,0.71,0.1
-0.21,0.7,0.11
-0.22,0.7,0.11
-0.24,0.7,0.12
-0.26,0.71,0.13
-0.28,0.73,0.15
-0.29,0.75,0.17
-0.32,0.76,0.18
-0.36,0.76,0.19
-0.4,0.77,0.2
-0.41,0.78,0.2
-0.42,0.77,0.21
-0.42,0.75,0.22
-0.44,0.76,0.23
-0.44,0.79,0.23
-0.44,0.83,0.22
-0.45,0.85,0.21
-0.44,0.86,0.21
-0.44,0.86,0.21
-0.43,0.85,0.23
-0.4,0.84,0.24
-0.38,0.85,0.23
-0.36,0.86,0.22
-0.35,0.85,0.23
-0.34,0.85,0.23
-0.33,0.86,0.22
-0.3,0.86,0.21
-0.28,0.85,0.22
-0.27,0.84,0.22
-0.25,0.84,0.22
-0.23,0.84,0.21
-0.21,0.84,0.21
-0.2,0.84,0.2
-0.19,0.83,0.2
-0.18,0.82,0.2
-0.18,0.8,0.21
-0.18,0.78,0.22
-0.18,0.77,0.21
-0.17,0.77,0.19
-0.16,0.77,0.18
-0.14,0.77,0.17
-0.13,0.77,0.15
-0.12,0.76,0.15
-0.11,0.74,0.17
-0.09,0.74,0.21
-0.06,0.75,0.25
-0.02,0.74,0.26
0,0.71,0.25
0.02,0.69,0.24
0.03,0.67,0.22
0.06,0.65,0.2
0.1,0.66,0.2
0.13,0.67,0.2
0.16,0.68,0.2
0.18,0.67,0.2
0.19,0.65,0.18
0.19,0.62,0.15
0.2,0.58,0.12
0.21,0.54,0.11
0.23,0.5,0.1
0.24,0.49,0.09
0.26,0.5,0.09
0.31,0.5,0.11
0.39,0.48,0.13
0.45,0.46,0.14
0.49,0.45,0.12
0.53,0.43,0.11
0.56,0.41,0.09
0.58,0.37,0.08
0.6,0.34,0.08
0.63,0.32,0.11
0.67,0.33,0.12
0.76,0.38,0.1
0.8,0.36,0.09
0.83,0.33,0.08
0.84,0.3,0.04
0.84,0.27,0
0.85,0.24,-0.03
0.88,0.23,-0.03
0.92,0.26,-0.01
0.98,0.28,0.02
1.04,0.27,0.03
1.09,0.23,0.03
1.11,0.2,0.01
1.12,0.16,-0.01
1.12,0.11,-0.05
1.13,0.08,-0.08
1.17,0.05,-0.07
1.22,0.04,-0.04
1.25,0.06,-0.01
1.26,0.06,0
1.26,0.03,-0.02
1.26,-0.02,-0.07
1.25,-0.05,-0.12
1.22,-0.08,-0.18
1.21,-0.1,-0.23
1.2,-0.12,-0.24
1.22,-0.13,-0.24
1.27,-0.2,-0.17
1.33,-0.26,-0.11
1.32,-0.29,-0.07
1.28,-0.31,-0.07
1.24,-0.31,-0.1
1.22,-0.31,-0.14
1.2,-0.33,-0.17
1.19,-0.36,-0.17
1.2,-0.41,-0.15
1.23,-0.47,-0.1
1.27,-0.5,-0.03
1.26,-0.51,0.02
1.22,-0.5,0.04
1.19,-0.49,0.01
1.16,-0.49,-0.04
1.15,-0.51,-0.09
1.17,-0.53,-0.13
1.18,-0.56,-0.13
1.17,-0.59,-0.1
1.17,-0.62,-0.06
1.16,-0.65,-0.03
1.15,-0.67,-0.01
1.13,-0.68,0.01
1.11,-0.69,0.03
1.07,-0.72,0.01
1.04,-0.72,0
1.03,-0.73,0.02
1.03,-0.74,0.04
1.02,-0.75,0.05
1,-0.76,0.09
0.99,-0.74,0.14
0.94,-0.74,0.18
0.91,-0.73,0.2
0.94,-0.7,0.18
0.93,-0.7,0.14
0.88,-0.7,0.13
0.88,-0.71,0.09
0.87,-0.72,0.08
0.87,-0.75,0.16
0.89,-0.77,0.24
0.88,-0.76,0.27
0.87,-0.76,0.24
0.85,-0.78,0.21
0.82,-0.78,0.21
0.81,-0.78,0.15
0.82,-0.78,0.1
0.83,-0.79,0.08
0.81,-0.79,0.08
0.79,-0.74,0.17
0.81,-0.76,0.19
0.83,-0.78,0.18
0.81,-0.76,0.2
0.79,-0.8,0.15
0.79,-0.8,0.14
0.78,-0.8,0.14
0.78,-0.8,0.14
0.77,-0.8,0.13
0.77,-0.8,0.12
0.77,-0.8,0.12
0.77,-0.81,0.14
0.76,-0.8,0.16
0.74,-0.8,0.16
0.73,-0.8,0.16
0.74,-0.8,0.16
0.75,-0.79,0.17
0.77,-0.79,0.19
0.79,-0.79,0.22
0.79,-0.79,0.24
0.8,-0.79,0.25
0.82,-0.78,0.28
0.85,-0.77,0.3
0.88,-0.77,0.31
0.89,-0.76,0.32
0.9,-0.78,0.32
0.9,-0.79,0.27
0.92,-0.8,0.25
0.99,-0.8,0.27
1.06,-0.79,0.31
1.11,-0.77,0.38
1.13,-0.77,0.39
1.14,-0.79,0.4
1.16,-0.82,0.4
1.19,-0.82,0.4
1.2,-0.82,0.39
1.22,-0.8,0.38
1.25,-0.77,0.36
1.27,-0.76,0.35
1.27,-0.75,0.34
1.27,-0.74,0.34
1.29,-0.73,0.33
1.3,-0.72,0.32
1.31,-0.7,0.3
1.32,-0.69,0.27
1.31,-0.69,0.25
1.29,-0.7,0.23
1.29,-0.71,0.25
1.3,-0.69,0.27
1.29,-0.67,0.27
1.26,-0.64,0.25
1.27,-0.59,0.25
1.29,-0.57,0.24
1.28,-0.56,0.23
1.24,-0.58,0.22
1.21,-0.6,0.19
1.18,-0.6,0.15
1.14,-0.55,0.14
1.13,-0.52,0.14
1.11,-0.48,0.14
1.09,-0.44,0.14
1.06,-0.43,0.12
1.05,-0.41,0.09
1.06,-0.39,0.09
1.05,-0.37,0.1
1.03,-0.33,0.09
1.02,-0.3,0.1
1,-0.28,0.11
0.99,-0.25,0.13
0.97,-0.22,0.13
0.94,-0.18,0.1
0.92,-0.15,0.08
0.91,-0.12,0.06
0.89,-0.09,0.04
0.87,-0.06,0.05
0.84,-0.03,0.07
0.82,0.02,0.07
0.79,0.07,0.06
0.76,0.11,0.05
0.74,0.13,0.04
0.71,0.15,0.04
0.67,0.16,0.03
0.65,0.19,0.05
0.64,0.29,0.06
0.63,0.33,0.06
0.61,0.35,0.04
0.58,0.37,0.04
0.54,0.38,0.04
0.52,0.38,0.04
0.5,0.41,0.05
0.49,0.42,0.04
0.51,0.47,0.06
0.51,0.5,0.04
0.48,0.5,0.01
0.47,0.53,0.04
0.45,0.58,0.03
0.43,0.6,0.04
0.4,0.59,0.05
0.37,0.6,0.07
0.33,0.61,0.07
0.28,0.63,0.08
0.25,0.67,0.11
0.23,0.7,0.13
0.21,0.74,0.15
0.17,0.76,0.17
0.12,0.76,0.17
0.09,0.76,0.14
0.08,0.74,0.12
0.07,0.72,0.17
0.01,0.74,0.21
-0.01,0.77,0.24
-0.02,0.78,0.24
-0.02,0.77,0.25
-0.03,0.77,0.25
-0.04,0.77,0.25
-0.06,0.79,0.25
-0.1,0.81,0.26
-0.14,0.83,0.26
-0.16,0.83,0.25
-0.17,0.81,0.24
-0.18,0.78,0.24
-0.21,0.77,0.23
-0.26,0.77,0.21
-0.3,0.82,0.21
-0.34,0.9,0.2
-0.37,0.93,0.19
-0.39,0.92,0.17
-0.4,0.89,0.16
-0.4,0.86,0.18
-0.41,0.83,0.2
-0.42,0.82,0.22
-0.41,0.84,0.21
-0.41,0.85,0.21
-0.42,0.84,0.22
-0.43,0.84,0.24
-0.41,0.84,0.3
-0.42,0.83,0.3
-0.4,0.82,0.29
-0.37,0.8,0.28
-0.32,0.78,0.29
-0.3,0.76,0.3
-0.29,0.75,0.3
-0.27,0.75,0.31
-0.26,0.75,0.32
-0.25,0.76,0.33
-0.24,0.79,0.32
-0.21,0.8,0.31
-0.19,0.81,0.3
-0.17,0.82,0.31
-0.16,0.84,0.32
-0.14,0.85,0.32
-0.11,0.85,0.32
-0.09,0.84,0.32
-0.08,0.85,0.33
-0.07,0.85,0.33
-0.05,0.85,0.33
-0.03,0.85,0.35
0,0.85,0.35
0,0.86,0.34
0.01,0.87,0.32
0.02,0.88,0.3
0.04,0.88,0.3
0.06,0.88,0.31
0.06,0.87,0.31
0.06,0.85,0.31
0.06,0.81,0.3
0.05,0.78,0.3
0.04,0.76,0.29
0.06,0.75,0.27
0.07,0.76,0.26
0.08,0.77,0.24
0.08,0.75,0.24
0.07,0.73,0.23
0.07,0.71,0.23
0.07,0.7,0.23
0.09,0.69,0.22
0.12,0.7,0.2
0.15,0.73,0.2
0.17,0.75,0.21
0.19,0.75,0.22
0.21,0.74,0.22
0.24,0.7,0.24
0.25,0.66,0.24
0.25,0.63,0.23
0.26,0.64,0.22
0.28,0.69,0.22
0.33,0.74,0.23
0.4,0.71,0.27
0.41,0.67,0.28
0.41,0.63,0.28
0.41,0.59,0.26
0.41,0.58,0.23
0.46,0.59,0.21
0.52,0.63,0.23
0.58,0.67,0.26
0.63,0.67,0.29
0.66,0.64,0.29
0.65,0.6,0.26
0.64,0.55,0.23
0.62,0.53,0.18
0.62,0.56,0.13
0.66,0.61,0.14
0.71,0.62,0.18
0.74,0.59,0.23
0.75,0.56,0.25
0.75,0.53,0.25
0.76,0.49,0.23
0.78,0.47,0.19
0.8,0.49,0.14
0.81,0.54,0.12
0.84,0.57,0.12
0.87,0.55,0.14
0.88,0.51,0.15
0.89,0.39,0.17
0.92,0.34,0.15
0.91,0.35,0.13
0.9,0.42,0.1
0.93,0.47,0.09
0.94,0.44,0.1
0.94,0.39,0.12
0.96,0.33,0.12
1,0.28,0.11
1.05,0.23,0.12
1.1,0.19,0.12
1.13,0.19,0.1
1.13,0.23,0.1
1.13,0.26,0.09
1.13,0.25,0.07
1.14,0.21,0.07
1.15,0.15,0.09
1.18,0.09,0.12
1.22,0.05,0.12
1.24,0.02,0.1
1.22,0.02,0.06
1.18,0.04,0.04
1.14,0.04,0.04
1.11,0.04,0.04
1.11,0.03,0.08
1.14,0.01,0.12
1.17,-0.02,0.03
1.18,0,0
1.2,-0.02,-0.04
1.19,-0.06,-0.09
1.15,-0.07,-0.11
1.12,-0.07,-0.13
1.11,-0.05,-0.14
1.11,-0.04,-0.13
1.11,-0.03,-0.11
1.11,-0.04,-0.12
1.12,-0.08,-0.14
1.12,-0.11,-0.12
1.11,-0.14,-0.11
1.11,-0.17,-0.13
1.1,-0.18,-0.11
1.08,-0.18,-0.1
1.07,-0.19,-0.11
1.09,-0.21,-0.12
1.1,-0.23,-0.12
1.11,-0.25,-0.11
1.1,-0.27,-0.11
1.11,-0.3,-0.09
1.11,-0.32,-0.06
1.1,-0.34,-0.04
1.1,-0.34,-0.03
1.1,-0.34,0.01
1.1,-0.33,0.02
1.1,-0.38,0.04
1.1,-0.41,0.07
1.09,-0.41,0.1
1.05,-0.41,0.11
1.04,-0.41,0.11
1.05,-0.41,0.12
1.06,-0.42,0.12
1.06,-0.44,0.12
1.05,-0.47,0.12
1.03,-0.49,0.11
1.02,-0.52,0.1
1.01,-0.56,0.09
1.01,-0.59,0.08
1.01,-0.6,0.09
1,-0.6,0.1
0.99,-0.61,0.09
0.99,-0.61,0.1
0.97,-0.61,0.11
0.93,-0.63,0.1
0.91,-0.64,0.12
0.9,-0.65,0.12
0.89,-0.66,0.13
0.88,-0.66,0.16
0.86,-0.65,0.14
0.83,-0.66,0.11
0.82,-0.66,0.09
0.82,-0.67,0.09
0.81,-0.68,0.09
0.82,-0.68,0.11
0.81,-0.68,0.13
0.81,-0.68,0.14
0.81,-0.67,0.12
0.8,-0.67,0.1
0.8,-0.66,0.09
0.8,-0.65,0.09
0.8,-0.66,0.1
0.8,-0.68,0.1
0.8,-0.68,0.11
0.8,-0.67,0.12
0.8,-0.67,0.12
0.81,-0.67,0.1
0.81,-0.68,0.09
0.8,-0.68,0.09
0.8,-0.68,0.09
0.8,-0.68,0.1
0.81,-0.67,0.1
0.8,-0.66,0.1
0.8,-0.67,0.11
0.79,-0.69,0.1
0.79,-0.7,0.09
0.79,-0.7,0.09
0.78,-0.71,0.1
0.79,-0.71,0.1
0.76,-0.72,0.07
0.74,-0.72,0.07
0.75,-0.7,0.11
0.75,-0.71,0.11
0.74,-0.72,0.11
0.73,-0.7,0.15
0.72,-0.7,0.14
0.72,-0.73,0.1
0.72,-0.74,0.09
0.7,-0.75,0.07
0.68,-0.75,0.05
0.71,-0.72,0.08
0.71,-0.72,0.12
0.7,-0.75,0.11
0.7,-0.75,0.14
0.7,-0.75,0.16
0.69,-0.74,0.18
0.68,-0.77,0.12
0.7,-0.73,0.15
0.7,-0.7,0.23
0.68,-0.69,0.26
0.7,-0.7,0.26
0.73,-0.75,0.22
0.71,-0.75,0.24
0.68,-0.75,0.24
0.69,-0.76,0.23
0.68,-0.77,0.23
0.71,-0.8,0.19
0.71,-0.77,0.23
0.67,-0.73,0.26
0.68,-0.76,0.23
0.69,-0.76,0.23
0.68,-0.76,0.23
0.67,-0.76,0.23
0.65,-0.75,0.23
0.66,-0.75,0.22
0.67,-0.75,0.22
0.66,-0.75,0.21
0.65,-0.76,0.21
0.65,-0.76,0.2
0.64,-0.76,0.2
0.63,-0.76,0.2
0.62,-0.77,0.2
0.64,-0.76,0.23
0.66,-0.75,0.22
0.64,-0.74,0.21
0.62,-0.74,0.23
0.64,-0.76,0.22
0.66,-0.75,0.22
0.66,-0.75,0.23
0.66,-0.76,0.25
0.64,-0.76,0.28
0.62,-0.75,0.28
0.64,-0.75,0.28
