Acc_x,Acc_y,Acc_z
0,0,0
0,0,0
0,0,0
0,0,0
0,0,0
0,0,0
0,0,0
0,0,0
0,0,0
0,0,0
0,0,0
0,0,0
0,0,0
0,0,0
0,0,0
0,0,0
0,0,0
0,0,0
0,0,0
0,0,0
0,0,0
0,0,0
0,0,0
0,0,0
0,0,0
0,0,0
0,0,0
0,0,0
0,0,0
0,0,0
0,0,0
0,0,0
0,0,0
0,0,0
0,0,0
0,0,0
0,0,0
0,0,0
0,0,0
0,0,0
0,0,0
0,0,0
0,0,0
0,0,0
0,0,0
0,0,0
0,0,0
0,0,0
0,0,0
0,0,0
0,0,0
0,0,0
0,0,0
0,0,0
0,0,0
0,0,0
0,0,0
0,0,0
0,0,0
0,0,0
0,0,0
0,0,0
0,0,0
0,0,0
0,0,0
0.17,0.26,0.87
0.18,0.27,0.87
0.18,0.27,0.87
0.17,0.28,0.86
0.16,0.29,0.86
0.16,0.3,0.85
0.16,0.3,0.83
0.16,0.3,0.83
0.19,0.32,0.84
0.2,0.33,0.83
0.19,0.34,0.81
0.19,0.35,0.79
0.19,0.36,0.78
0.2,0.34,0.77
0.25,0.33,0.79
0.27,0.34,0.82
0.23,0.34,0.82
0.2,0.34,0.82
0.19,0.35,0.81
0.18,0.36,0.79
0.17,0.35,0.78
0.17,0.34,0.79
0.17,0.32,0.8
0.18,0.31,0.82
0.18,0.31,0.83
0.15,0.31,0.83
0.11,0.3,0.84
0.08,0.27,0.86
0.08,0.26,0.86
0.08,0.25,0.87
0.09,0.23,0.89
0.09,0.21,0.89
0.09,0.19,0.91
0.1,0.17,0.93
0.11,0.15,0.95
0.11,0.14,0.97
0.09,0.13,0.99
0.09,0.12,1
0.13,0.1,1.01
0.21,0.08,1.06
0.29,0.05,1.12
0.34,0.05,1.18
0.33,0.08,1.18
0.3,0.1,1.11
0.27,0.09,1.02
0.3,0.05,0.99
0.41,0.01,1.03
0.53,-0.02,1.11
0.61,-0.05,1.19
0.65,-0.06,1.26
0.65,-0.05,1.29
0.62,-0.05,1.25
0.57,-0.01,1.09
0.42,0.07,1.04
0.39,0.04,1.01
0.44,-0.02,1.02
0.53,-0.04,1.09
0.62,-0.04,1.15
0.65,-0.04,1.17
0.62,-0.04,1.16
0.56,-0.05,1.14
0.51,-0.06,1.1
0.46,-0.07,1.06
0.42,-0.07,1
0.4,-0.08,0.94
0.38,-0.09,0.89
0.38,-0.09,0.86
0.38,-0.1,0.83
0.39,-0.11,0.8
0.4,-0.1,0.79
0.4,-0.09,0.79
0.39,-0.1,0.8
0.43,-0.12,0.79
0.49,-0.12,0.8
0.58,-0.13,0.85
0.69,-0.16,0.91
0.7,-0.17,0.96
0.63,-0.16,0.99
0.57,-0.16,0.94
0.53,-0.14,0.89
0.51,-0.14,0.83
0.5,-0.14,0.81
0.49,-0.15,0.81
0.53,-0.17,0.83
0.55,-0.2,0.86
0.55,-0.2,0.87
0.55,-0.19,0.87
0.53,-0.19,0.9
0.52,-0.18,0.91
0.51,-0.18,0.91
0.49,-0.17,0.91
0.46,-0.17,0.92
0.44,-0.15,0.91
0.44,-0.14,0.91
0.44,-0.13,0.9
0.44,-0.13,0.9
0.44,-0.12,0.89
0.45,-0.12,0.9
0.47,-0.12,0.9
0.47,-0.11,0.9
0.48,-0.11,0.9
0.48,-0.1,0.89
0.48,-0.1,0.88
0.48,-0.1,0.87
0.48,-0.1,0.87
0.49,-0.09,0.86
0.49,-0.09,0.86
0.5,-0.09,0.86
0.5,-0.09,0.86
0.5,-0.09,0.86
0.49,-0.09,0.86
0.49,-0.09,0.86
0.49,-0.09,0.87
0.49,-0.09,0.87
0.48,-0.09,0.87
0.48,-0.09,0.87
0.49,-0.09,0.87
0.49,-0.09,0.88
0.49,-0.09,0.88
0.48,-0.1,0.88
0.48,-0.1,0.89
0.48,-0.1,0.9
0.48,-0.1,0.89
0.48,-0.1,0.89
0.48,-0.1,0.89
0.48,-0.1,0.89
0.48,-0.1,0.88
0.48,-0.1,0.88
0.49,-0.1,0.88
0.49,-0.1,0.88
0.49,-0.1,0.88
0.49,-0.09,0.88
0.49,-0.09,0.87
0.49,-0.09,0.87
0.49,-0.09,0.88
0.5,-0.09,0.88
0.5,-0.09,0.88
0.5,-0.09,0.88
0.5,-0.1,0.88
0.5,-0.1,0.88
0.5,-0.1,0.88
0.5,-0.1,0.88
0.49,-0.1,0.88
0.49,-0.1,0.87
0.49,-0.09,0.87
0.49,-0.09,0.86
0.49,-0.09,0.87
0.49,-0.09,0.87
0.49,-0.09,0.87
0.49,-0.09,0.88
0.49,-0.09,0.88
0.48,-0.09,0.88
0.48,-0.09,0.89
0.48,-0.09,0.89
0.48,-0.09,0.89
0.48,-0.1,0.89
0.48,-0.1,0.89
0.47,-0.09,0.89
0.48,-0.1,0.89
0.48,-0.09,0.89
0.48,-0.09,0.89
0.48,-0.09,0.89
0.49,-0.09,0.88
0.49,-0.09,0.88
0.49,-0.09,0.87
0.5,-0.09,0.87
0.5,-0.09,0.86
0.5,-0.09,0.86
0.5,-0.09,0.87
0.5,-0.09,0.87
0.5,-0.09,0.87
0.49,-0.09,0.88
0.49,-0.09,0.88
0.48,-0.09,0.88
0.48,-0.09,0.88
0.48,-0.1,0.89
0.48,-0.1,0.89
0.47,-0.1,0.89
0.47,-0.1,0.9
0.46,-0.09,0.9
0.46,-0.09,0.9
0.46,-0.09,0.9
0.46,-0.09,0.89
0.47,-0.1,0.89
0.48,-0.1,0.88
0.49,-0.1,0.88
0.5,-0.1,0.88
0.5,-0.1,0.87
0.5,-0.09,0.87
0.49,-0.09,0.87
0.49,-0.09,0.87
0.5,-0.09,0.88
0.5,-0.09,0.88
0.49,-0.1,0.88
0.49,-0.1,0.88
0.48,-0.09,0.89
0.48,-0.09,0.89
0.47,-0.09,0.9
0.48,-0.09,0.9
0.47,-0.08,0.9
0.46,-0.08,0.89
0.46,-0.09,0.89
0.46,-0.08,0.89
0.46,-0.09,0.89
0.47,-0.09,0.89
0.47,-0.09,0.89
0.47,-0.1,0.89
0.48,-0.1,0.89
0.49,-0.1,0.88
0.49,-0.09,0.87
0.5,-0.09,0.87
0.5,-0.09,0.87
0.5,-0.09,0.87
0.5,-0.09,0.87
0.5,-0.09,0.87
0.49,-0.09,0.88
0.49,-0.09,0.88
0.48,-0.08,0.88
0.48,-0.08,0.89
0.47,-0.08,0.9
0.47,-0.08,0.9
0.46,-0.08,0.91
0.46,-0.08,0.91
0.45,-0.08,0.9
0.46,-0.08,0.9
0.46,-0.09,0.89
0.47,-0.09,0.89
0.47,-0.1,0.88
0.49,-0.1,0.88
0.5,-0.1,0.88
0.5,-0.1,0.87
0.5,-0.1,0.86
0.5,-0.09,0.86
0.5,-0.09,0.86
0.5,-0.09,0.87
0.5,-0.09,0.87
0.49,-0.08,0.88
0.48,-0.08,0.88
0.48,-0.08,0.89
0.47,-0.08,0.9
0.45,-0.08,0.91
0.44,-0.08,0.91
0.44,-0.08,0.91
0.44,-0.09,0.91
0.44,-0.09,0.91
0.45,-0.09,0.91
0.46,-0.1,0.9
0.48,-0.1,0.89
0.49,-0.11,0.88
0.5,-0.1,0.87
0.51,-0.1,0.86
0.51,-0.1,0.85
0.51,-0.1,0.85
0.51,-0.09,0.86
0.51,-0.09,0.86
0.5,-0.09,0.87
0.5,-0.09,0.87
0.49,-0.08,0.88
0.48,-0.09,0.89
0.48,-0.08,0.9
0.46,-0.08,0.91
0.45,-0.08,0.91
0.44,-0.08,0.91
0.44,-0.08,0.91
0.45,-0.09,0.91
0.46,-0.09,0.9
0.47,-0.1,0.9
0.48,-0.1,0.89
0.49,-0.1,0.88
0.49,-0.1,0.87
0.5,-0.1,0.86
0.51,-0.1,0.86
0.51,-0.1,0.86
0.5,-0.09,0.86
0.5,-0.09,0.87
0.5,-0.09,0.88
0.49,-0.09,0.88
0.48,-0.09,0.89
0.48,-0.09,0.89
0.47,-0.09,0.9
0.46,-0.08,0.9
0.46,-0.08,0.9
0.45,-0.08,0.91
0.45,-0.08,0.91
0.45,-0.08,0.91
0.45,-0.08,0.91
0.45,-0.09,0.9
0.46,-0.09,0.89
0.48,-0.1,0.89
0.49,-0.1,0.88
0.5,-0.1,0.87
0.51,-0.1,0.86
0.51,-0.1,0.86
0.51,-0.09,0.85
0.51,-0.09,0.86
0.51,-0.09,0.86
0.51,-0.09,0.87
0.5,-0.09,0.87
0.49,-0.09,0.88
0.48,-0.08,0.89
0.47,-0.08,0.89
0.46,-0.08,0.89
0.45,-0.08,0.9
0.45,-0.08,0.91
0.44,-0.08,0.91
0.44,-0.08,0.92
0.44,-0.08,0.92
0.44,-0.08,0.92
0.43,-0.08,0.91
0.44,-0.09,0.9
0.47,-0.11,0.89
0.49,-0.12,0.89
0.5,-0.13,0.89
0.52,-0.13,0.89
0.55,-0.13,0.9
0.56,-0.13,0.91
0.55,-0.12,0.92
0.56,-0.13,0.93
0.6,-0.14,0.93
0.64,-0.13,0.94
0.67,-0.12,0.95
0.68,-0.11,0.97
0.66,-0.1,0.97
0.62,-0.08,1
0.59,-0.07,1.03
0.55,-0.07,1.04
0.52,-0.05,1.05
0.5,-0.04,1.04
0.48,-0.03,1.02
0.48,-0.03,1.01
0.51,-0.03,0.99
0.53,-0.02,0.99
0.54,-0.02,0.98
0.55,-0.01,0.97
0.56,0,0.97
0.55,0.02,0.95
0.54,0.03,0.92
0.53,0.05,0.9
0.53,0.06,0.88
0.54,0.07,0.87
0.54,0.09,0.89
0.52,0.09,0.88
0.51,0.11,0.87
0.51,0.12,0.84
0.5,0.13,0.79
0.49,0.14,0.75
0.5,0.15,0.73
0.52,0.16,0.73
0.55,0.17,0.73
0.56,0.18,0.73
0.54,0.2,0.73
0.51,0.21,0.73
0.49,0.22,0.72
0.48,0.24,0.71
0.48,0.25,0.7
0.49,0.26,0.69
0.49,0.27,0.68
0.51,0.27,0.68
0.52,0.28,0.67
0.52,0.29,0.65
0.5,0.29,0.64
0.48,0.3,0.63
0.47,0.31,0.64
0.49,0.31,0.65
0.49,0.32,0.65
0.49,0.32,0.63
0.48,0.34,0.61
0.46,0.34,0.59
0.44,0.35,0.57
0.42,0.35,0.55
0.4,0.36,0.53
0.38,0.36,0.51
0.36,0.36,0.5
0.38,0.35,0.51
0.41,0.35,0.53
0.47,0.34,0.55
0.52,0.33,0.57
0.54,0.32,0.56
0.53,0.31,0.54
0.5,0.3,0.51
0.45,0.3,0.48
0.39,0.29,0.44
0.34,0.28,0.41
0.32,0.26,0.4
0.38,0.22,0.44
0.51,0.18,0.52
0.59,0.15,0.59
0.56,0.13,0.6
0.51,0.11,0.59
0.48,0.07,0.57
0.46,0.04,0.55
0.51,0.01,0.61
0.58,-0.04,0.77
0.63,-0.09,0.86
0.67,-0.16,0.96
0.66,-0.19,1
0.65,-0.2,1
0.67,-0.2,0.98
0.66,-0.2,0.92
0.68,-0.25,0.91
1.15,-0.35,1.56
1.35,-0.4,2.19
1.37,-0.27,2.24
1.27,-0.17,2.22
0.82,-0.25,1.88
0.59,-0.28,1.38
0.43,-0.19,1.01
0.35,-0.12,0.74
0.35,-0.12,0.54
0.35,-0.14,0.43
0.36,-0.16,0.41
0.38,-0.17,0.44
0.43,-0.21,0.5
0.51,-0.25,0.59
0.6,-0.28,0.71
0.68,-0.31,0.83
0.72,-0.32,0.91
0.74,-0.31,0.96
0.73,-0.28,0.93
0.63,-0.21,0.87
0.58,-0.18,0.8
0.55,-0.16,0.73
0.53,-0.15,0.7
0.53,-0.16,0.7
0.54,-0.17,0.73
0.57,-0.18,0.77
0.59,-0.19,0.82
0.61,-0.2,0.86
0.61,-0.2,0.89
0.6,-0.2,0.89
0.59,-0.2,0.88
0.57,-0.19,0.84
0.56,-0.19,0.81
0.57,-0.19,0.79
0.57,-0.19,0.77
0.58,-0.2,0.78
0.59,-0.2,0.79
0.6,-0.21,0.8
0.61,-0.2,0.81
0.6,-0.2,0.81
0.6,-0.21,0.82
0.59,-0.21,0.82
0.59,-0.21,0.81
0.58,-0.21,0.82
0.58,-0.21,0.85
0.58,-0.21,0.84
0.58,-0.2,0.82
0.58,-0.2,0.8
0.58,-0.19,0.79
0.58,-0.19,0.8
0.59,-0.19,0.82
0.6,-0.19,0.83
0.59,-0.2,0.85
0.59,-0.21,0.88
0.59,-0.23,0.89
0.6,-0.22,0.88
0.61,-0.22,0.86
0.63,-0.21,0.84
0.65,-0.2,0.83
0.68,-0.2,0.84
0.68,-0.2,0.87
0.66,-0.21,0.91
0.66,-0.22,0.94
0.66,-0.22,0.96
0.66,-0.21,0.96
0.68,-0.2,0.96
0.7,-0.19,0.95
0.71,-0.18,0.94
0.72,-0.16,0.92
0.71,-0.13,0.92
0.7,-0.11,0.92
0.66,-0.06,0.92
0.65,-0.05,0.93
0.65,-0.03,0.93
0.64,-0.02,0.92
0.64,-0.01,0.91
0.65,-0.01,0.9
0.63,0,0.88
0.61,0.01,0.86
0.61,0.02,0.85
0.61,0.03,0.82
0.59,0.04,0.8
0.59,0.04,0.8
0.6,0.05,0.81
0.59,0.05,0.82
0.6,0.05,0.83
0.6,0.06,0.81
0.59,0.07,0.78
0.6,0.08,0.78
0.62,0.08,0.77
0.61,0.08,0.74
0.58,0.1,0.71
0.58,0.12,0.69
0.56,0.13,0.67
0.54,0.14,0.63
0.53,0.17,0.59
0.54,0.19,0.6
0.55,0.21,0.6
0.54,0.22,0.6
0.53,0.23,0.61
0.52,0.25,0.62
0.51,0.26,0.62
0.49,0.27,0.61
0.48,0.27,0.6
0.46,0.28,0.59
0.46,0.3,0.58
0.46,0.31,0.58
0.45,0.31,0.56
0.41,0.32,0.53
0.38,0.32,0.49
0.37,0.32,0.48
0.38,0.31,0.5
0.39,0.3,0.53
0.44,0.28,0.59
0.49,0.26,0.64
0.51,0.25,0.66
0.5,0.24,0.65
0.47,0.24,0.61
0.42,0.24,0.57
0.38,0.24,0.52
0.35,0.23,0.47
0.35,0.22,0.45
0.38,0.19,0.5
0.67,0.05,0.85
0.73,0.01,0.93
0.67,0.01,0.9
0.59,0.03,0.81
0.54,0.02,0.7
0.51,0,0.63
0.48,0,0.61
0.46,0,0.62
0.46,0,0.65
0.47,-0.01,0.7
0.48,-0.02,0.75
0.48,-0.01,0.75
0.46,-0.01,0.71
0.45,-0.04,0.66
0.46,-0.08,0.6
0.45,-0.12,0.54
0.47,-0.21,0.36
1.39,-0.61,1.02
2.01,-0.73,2.3
1.34,-0.41,2.73
0.86,-0.37,2.51
0.7,-0.43,1.96
0.48,-0.28,1.35
0.27,-0.13,0.95
0.22,-0.13,0.67
0.27,-0.15,0.46
0.32,-0.16,0.31
0.38,-0.18,0.37
0.44,-0.21,0.46
0.54,-0.25,0.57
0.66,-0.28,0.69
0.74,-0.31,0.84
0.76,-0.31,0.98
0.71,-0.28,1.07
0.65,-0.25,1.09
0.59,-0.22,1.03
0.54,-0.19,0.94
0.5,-0.17,0.84
0.48,-0.16,0.76
0.48,-0.15,0.71
0.5,-0.15,0.69
0.53,-0.15,0.7
0.57,-0.16,0.74
0.6,-0.18,0.8
0.62,-0.19,0.86
0.62,-0.19,0.91
0.6,-0.2,0.93
0.57,-0.2,0.92
0.55,-0.2,0.89
0.52,-0.19,0.84
0.52,-0.19,0.8
0.53,-0.18,0.78
0.54,-0.19,0.78
0.56,-0.18,0.8
0.57,-0.18,0.82
0.58,-0.19,0.83
0.57,-0.19,0.84
0.57,-0.19,0.85
0.56,-0.2,0.85
0.55,-0.2,0.84
0.55,-0.19,0.84
0.56,-0.2,0.84
0.57,-0.19,0.83
0.58,-0.19,0.82
0.58,-0.2,0.84
0.58,-0.2,0.87
0.57,-0.2,0.88
0.56,-0.19,0.88
0.56,-0.2,0.88
0.59,-0.22,0.9
0.64,-0.24,0.93
0.69,-0.29,0.99
0.7,-0.32,1.01
0.65,-0.32,0.98
0.59,-0.31,0.93
0.56,-0.29,0.88
0.58,-0.26,0.86
0.64,-0.22,0.87
0.68,-0.15,0.95
0.7,-0.12,0.99
0.69,-0.08,1.02
0.67,-0.05,1.03
0.66,-0.03,1.02
0.65,-0.01,1
0.64,0.01,0.97
0.65,0.02,0.93
0.65,0.03,0.9
0.66,0.03,0.86
0.66,0.03,0.84
0.67,0.03,0.83
0.68,0.04,0.83
0.68,0.04,0.83
0.67,0.05,0.83
0.65,0.06,0.82
0.65,0.08,0.81
0.64,0.09,0.79
0.63,0.1,0.79
0.62,0.1,0.78
0.6,0.11,0.78
0.59,0.13,0.75
0.59,0.16,0.71
0.6,0.16,0.7
0.6,0.18,0.66
0.59,0.19,0.63
0.59,0.21,0.58
0.58,0.22,0.57
0.58,0.23,0.58
0.57,0.24,0.58
0.58,0.26,0.58
0.57,0.28,0.57
0.53,0.29,0.56
0.51,0.31,0.55
0.5,0.32,0.55
0.49,0.33,0.54
0.48,0.33,0.53
0.48,0.33,0.53
0.48,0.33,0.53
0.46,0.34,0.52
0.43,0.34,0.51
0.4,0.35,0.49
0.38,0.37,0.48
0.38,0.37,0.47
0.39,0.36,0.48
0.4,0.35,0.5
0.43,0.33,0.54
0.46,0.32,0.57
0.49,0.3,0.59
0.49,0.29,0.61
0.47,0.28,0.6
0.46,0.28,0.59
0.44,0.29,0.58
0.47,0.26,0.6
0.51,0.24,0.62
0.53,0.22,0.65
0.53,0.2,0.67
0.52,0.18,0.68
0.49,0.16,0.68
0.46,0.15,0.65
0.45,0.13,0.63
0.47,0.11,0.64
0.53,0.08,0.67
0.58,0.04,0.68
0.61,0,0.73
0.65,-0.04,0.78
0.64,-0.05,0.78
0.6,-0.06,0.75
0.56,-0.07,0.72
0.56,-0.08,0.71
0.56,-0.1,0.73
0.56,-0.11,0.74
0.57,-0.12,0.74
0.61,-0.14,0.77
0.63,-0.17,0.79
0.96,-0.33,0.97
1.44,-0.49,1.75
1.74,-0.38,2.2
1.51,-0.17,1.99
0.68,-0.2,1.56
0.6,-0.12,1.05
0.51,-0.07,0.72
0.41,-0.06,0.52
0.37,-0.08,0.42
0.37,-0.12,0.38
0.36,-0.15,0.38
0.38,-0.17,0.42
0.47,-0.21,0.53
0.6,-0.25,0.65
0.73,-0.28,0.77
0.81,-0.29,0.87
0.81,-0.28,0.93
0.76,-0.24,0.96
0.69,-0.2,0.96
0.63,-0.16,0.9
0.58,-0.14,0.83
0.56,-0.13,0.76
0.55,-0.12,0.71
0.56,-0.12,0.7
0.59,-0.14,0.72
0.63,-0.16,0.76
0.67,-0.18,0.81
0.69,-0.19,0.85
0.67,-0.19,0.87
0.64,-0.18,0.82
0.6,-0.16,0.78
0.6,-0.15,0.75
0.61,-0.16,0.75
0.63,-0.17,0.76
0.64,-0.17,0.77
0.65,-0.17,0.78
0.65,-0.17,0.8
0.65,-0.16,0.8
0.64,-0.16,0.8
0.63,-0.17,0.8
0.62,-0.16,0.8
0.62,-0.16,0.8
0.62,-0.17,0.78
0.62,-0.16,0.78
0.62,-0.16,0.78
0.64,-0.15,0.77
0.64,-0.15,0.78
0.64,-0.15,0.78
0.63,-0.16,0.78
0.63,-0.16,0.78
0.63,-0.16,0.79
0.62,-0.15,0.81
0.63,-0.16,0.84
0.64,-0.17,0.85
0.66,-0.18,0.85
0.68,-0.18,0.85
0.69,-0.18,0.85
0.68,-0.19,0.85
0.68,-0.19,0.85
0.69,-0.2,0.88
0.73,-0.21,0.93
0.76,-0.21,0.97
0.78,-0.2,0.99
0.78,-0.17,0.98
0.78,-0.14,0.96
0.77,-0.1,0.94
0.76,-0.07,0.92
0.76,-0.04,0.92
0.78,-0.02,0.93
0.76,-0.01,0.91
0.71,0.02,0.89
0.71,0.03,0.89
0.72,0.03,0.88
0.7,0.04,0.85
0.71,0.03,0.83
0.71,0.02,0.83
0.68,0.03,0.81
0.68,0.05,0.78
0.69,0.05,0.77
0.69,0.06,0.74
0.65,0.07,0.74
0.63,0.08,0.74
0.61,0.1,0.71
0.56,0.11,0.72
0.6,0.13,0.72
0.63,0.14,0.7
0.65,0.16,0.67
0.64,0.18,0.64
0.65,0.19,0.64
0.64,0.19,0.65
0.63,0.21,0.65
0.62,0.23,0.67
0.6,0.25,0.67
0.59,0.27,0.67
0.61,0.28,0.67
0.64,0.29,0.66
0.64,0.31,0.64
0.62,0.32,0.62
0.59,0.33,0.61
0.59,0.34,0.61
0.58,0.35,0.6
0.58,0.36,0.61
0.59,0.36,0.61
0.57,0.37,0.59
0.55,0.39,0.57
0.55,0.41,0.56
0.54,0.43,0.55
0.54,0.43,0.54
0.54,0.45,0.53
0.52,0.45,0.52
0.5,0.45,0.49
0.48,0.46,0.48
0.48,0.46,0.47
0.48,0.47,0.46
0.46,0.48,0.44
0.44,0.48,0.42
0.43,0.48,0.41
0.43,0.47,0.43
0.43,0.47,0.46
0.43,0.45,0.5
0.46,0.43,0.55
0.48,0.41,0.58
0.5,0.4,0.57
0.49,0.4,0.54
0.47,0.4,0.5
0.44,0.4,0.47
0.42,0.39,0.45
0.42,0.38,0.44
0.44,0.36,0.44
0.48,0.35,0.46
0.53,0.31,0.5
0.59,0.27,0.55
0.63,0.24,0.6
0.63,0.21,0.6
0.59,0.2,0.53
0.6,0.18,0.51
0.6,0.15,0.5
0.63,0.11,0.56
0.79,0.05,0.69
0.9,-0.01,0.78
0.89,-0.02,0.83
0.89,0,0.88
0.83,0.02,0.88
0.71,0.04,0.82
0.6,0.04,0.74
0.54,0.02,0.69
0.53,0.01,0.68
0.56,-0.02,0.72
0.62,-0.05,0.8
0.68,-0.09,0.89
0.76,-0.13,1
0.77,-0.16,1.02
0.71,-0.17,0.97
0.64,-0.18,0.92
0.64,-0.19,0.91
0.91,-0.25,1.16
1.11,-0.35,1.49
1.11,-0.23,1.63
1.1,-0.11,1.65
0.94,-0.17,1.5
0.77,-0.16,0.99
0.49,-0.11,0.76
0.46,-0.11,0.59
0.46,-0.13,0.52
0.46,-0.14,0.49
0.48,-0.16,0.49
0.53,-0.18,0.54
0.61,-0.21,0.63
0.69,-0.24,0.73
0.74,-0.27,0.8
0.74,-0.28,0.86
0.71,-0.28,0.9
0.66,-0.26,0.9
0.61,-0.22,0.87
0.57,-0.19,0.83
0.55,-0.17,0.77
0.55,-0.16,0.73
0.57,-0.16,0.71
0.59,-0.16,0.71
0.64,-0.17,0.74
0.67,-0.17,0.78
0.67,-0.17,0.82
0.65,-0.17,0.85
0.63,-0.18,0.85
0.61,-0.18,0.84
0.6,-0.18,0.83
0.6,-0.18,0.81
0.62,-0.18,0.8
0.63,-0.18,0.79
0.64,-0.19,0.8
0.66,-0.2,0.84
0.67,-0.21,0.88
0.66,-0.22,0.9
0.63,-0.23,0.89
0.63,-0.22,0.87
0.65,-0.22,0.85
0.68,-0.22,0.84
0.72,-0.23,0.85
0.73,-0.23,0.86
0.74,-0.23,0.88
0.77,-0.23,0.88
0.78,-0.22,0.89
0.77,-0.19,0.9
0.77,-0.15,0.92
0.75,-0.12,0.95
0.74,-0.09,0.97
0.74,-0.06,0.98
0.73,-0.03,0.97
0.73,-0.01,0.97
0.74,0,0.99
0.72,0.02,0.98
0.71,0.02,0.96
0.71,0.01,0.93
0.71,0.01,0.89
0.72,0.02,0.86
0.72,0.02,0.85
0.7,0.02,0.83
0.67,0.03,0.78
0.66,0.05,0.74
0.65,0.06,0.73
0.66,0.07,0.72
0.65,0.09,0.72
0.64,0.11,0.71
0.64,0.13,0.69
0.64,0.19,0.65
0.65,0.2,0.62
0.65,0.19,0.64
0.6,0.22,0.63
0.57,0.23,0.59
0.58,0.26,0.56
0.61,0.28,0.54
0.62,0.28,0.52
0.6,0.3,0.52
0.61,0.32,0.52
0.59,0.34,0.51
0.56,0.36,0.51
0.57,0.37,0.52
0.55,0.38,0.52
0.55,0.39,0.55
0.56,0.41,0.55
0.54,0.42,0.52
0.54,0.42,0.5
0.55,0.43,0.49
0.55,0.44,0.47
0.56,0.45,0.47
0.57,0.45,0.47
0.58,0.46,0.49
0.55,0.47,0.51
0.52,0.48,0.5
0.49,0.49,0.49
0.47,0.5,0.49
0.46,0.49,0.47
0.45,0.49,0.46
0.47,0.49,0.47
0.48,0.49,0.48
0.48,0.48,0.5
0.5,0.47,0.52
0.53,0.46,0.54
0.54,0.45,0.55
0.54,0.45,0.55
0.53,0.45,0.53
0.51,0.46,0.51
0.49,0.46,0.49
0.47,0.45,0.47
0.44,0.44,0.46
0.5,0.4,0.5
0.55,0.36,0.56
0.6,0.33,0.62
0.62,0.32,0.64
0.6,0.31,0.64
0.58,0.31,0.6
0.56,0.31,0.56
0.52,0.31,0.51
0.48,0.31,0.48
0.49,0.29,0.53
0.62,0.24,0.66
0.72,0.18,0.76
0.75,0.15,0.81
0.75,0.15,0.83
0.7,0.16,0.78
0.64,0.17,0.71
0.57,0.17,0.63
0.5,0.16,0.56
0.43,0.14,0.51
0.38,0.12,0.48
0.39,0.07,0.51
0.44,0,0.58
0.54,-0.08,0.69
0.6,-0.12,0.76
0.56,-0.12,0.74
0.48,-0.12,0.68
0.38,-0.19,0.58
0.86,-0.44,1.1
1.42,-0.74,2.15
2,-0.46,2.47
1.86,-0.19,2.28
1.18,-0.32,2.1
0.97,-0.31,1.59
0.67,-0.2,1.1
0.48,-0.11,0.74
0.38,-0.08,0.48
0.32,-0.11,0.36
0.29,-0.14,0.33
0.28,-0.15,0.34
0.3,-0.16,0.4
0.4,-0.19,0.51
0.55,-0.23,0.63
0.7,-0.24,0.75
0.8,-0.26,0.88
0.86,-0.26,0.98
0.86,-0.23,1.03
0.8,-0.19,1.02
0.69,-0.16,0.96
0.62,-0.15,0.87
0.57,-0.14,0.79
0.53,-0.13,0.72
0.52,-0.13,0.68
0.53,-0.14,0.69
0.59,-0.15,0.74
0.64,-0.17,0.8
0.67,-0.17,0.86
0.67,-0.18,0.88
0.65,-0.17,0.88
0.62,-0.16,0.84
0.6,-0.15,0.8
0.6,-0.15,0.77
0.6,-0.15,0.76
0.61,-0.16,0.76
0.61,-0.17,0.77
0.62,-0.17,0.78
0.63,-0.17,0.79
0.63,-0.18,0.82
0.63,-0.19,0.84
0.63,-0.19,0.84
0.62,-0.18,0.83
0.61,-0.18,0.83
0.6,-0.18,0.83
0.61,-0.18,0.83
0.62,-0.18,0.85
0.61,-0.18,0.86
0.6,-0.17,0.83
0.61,-0.17,0.8
0.63,-0.17,0.79
0.64,-0.18,0.84
0.67,-0.19,0.88
0.68,-0.19,0.91
0.69,-0.21,0.93
0.69,-0.21,0.94
0.72,-0.2,0.93
0.73,-0.18,0.91
0.71,-0.16,0.88
0.67,-0.15,0.84
0.66,-0.14,0.82
0.68,-0.12,0.82
0.69,-0.09,0.82
0.7,-0.07,0.85
0.72,-0.04,0.88
0.73,-0.02,0.9
0.72,0,0.9
0.71,0.01,0.9
0.69,0.02,0.89
0.67,0.03,0.87
0.66,0.03,0.86
0.67,0.02,0.86
0.65,0.02,0.84
0.67,0.03,0.82
0.7,0.03,0.82
0.68,0.03,0.82
0.68,0.05,0.8
0.68,0.04,0.77
0.65,0.04,0.76
0.67,0.07,0.73
0.65,0.09,0.72
0.63,0.1,0.7
0.6,0.11,0.68
0.6,0.12,0.67
0.64,0.13,0.66
0.66,0.15,0.66
0.66,0.16,0.68
0.65,0.18,0.68
0.63,0.19,0.67
0.62,0.21,0.67
0.62,0.23,0.68
0.59,0.24,0.67
0.59,0.26,0.66
0.6,0.27,0.68
0.61,0.28,0.68
0.61,0.3,0.68
0.62,0.31,0.69
0.61,0.32,0.68
0.6,0.33,0.66
0.59,0.35,0.63
0.57,0.37,0.62
0.57,0.39,0.63
0.57,0.39,0.63
0.55,0.4,0.6
0.55,0.43,0.59
0.55,0.43,0.6
0.54,0.43,0.6
0.53,0.43,0.58
0.54,0.42,0.56
0.54,0.41,0.56
0.53,0.41,0.56
0.52,0.41,0.57
0.52,0.42,0.58
0.51,0.42,0.58
0.51,0.43,0.58
0.51,0.44,0.58
0.5,0.44,0.57
0.51,0.45,0.56
0.51,0.45,0.57
0.51,0.45,0.59
0.51,0.45,0.61
0.53,0.44,0.63
0.53,0.44,0.64
0.53,0.44,0.65
0.53,0.43,0.64
0.54,0.42,0.63
0.54,0.43,0.62
0.53,0.43,0.59
0.51,0.42,0.56
0.48,0.43,0.49
0.47,0.41,0.5
0.5,0.39,0.52
0.5,0.37,0.56
0.53,0.35,0.61
0.56,0.32,0.65
0.55,0.31,0.64
0.51,0.32,0.59
0.46,0.31,0.54
0.45,0.3,0.5
0.45,0.27,0.48
0.45,0.23,0.47
0.5,0.19,0.52
0.6,0.15,0.62
0.63,0.11,0.67
0.6,0.09,0.68
0.56,0.08,0.69
0.52,0.08,0.68
0.45,0.08,0.65
0.4,0.07,0.6
0.37,0.06,0.57
0.42,0.02,0.6
0.46,-0.04,0.63
0.45,-0.08,0.64
0.45,-0.12,0.67
0.49,-0.17,0.71
0.51,-0.21,0.75
1.1,-0.45,1.35
1.74,-0.69,2.24
2.02,-0.38,2.36
1.84,-0.16,2.2
1.23,-0.29,2
0.9,-0.23,1.52
0.6,-0.13,1.07
0.4,-0.04,0.73
0.33,-0.06,0.5
0.31,-0.1,0.4
0.3,-0.13,0.35
0.33,-0.14,0.35
0.36,-0.15,0.38
0.43,-0.17,0.47
0.56,-0.21,0.61
0.72,-0.24,0.74
0.83,-0.24,0.86
0.87,-0.23,0.97
0.83,-0.2,1.03
0.73,-0.15,1.02
0.64,-0.12,0.96
0.58,-0.11,0.87
0.54,-0.11,0.78
0.52,-0.1,0.72
0.53,-0.11,0.7
0.56,-0.13,0.76
0.67,-0.18,0.82
0.7,-0.19,0.88
0.68,-0.19,0.92
0.64,-0.17,0.93
0.62,-0.17,0.93
0.61,-0.17,0.9
0.61,-0.17,0.87
0.61,-0.17,0.83
0.62,-0.17,0.8
0.65,-0.17,0.8
0.68,-0.17,0.81
0.67,-0.17,0.84
0.67,-0.18,0.88
0.71,-0.2,0.93
0.74,-0.21,0.96
0.76,-0.2,0.98
0.74,-0.18,0.96
0.71,-0.15,0.93
0.7,-0.13,0.92
0.72,-0.09,0.92
0.74,-0.06,0.92
0.76,-0.04,0.93
0.8,-0.02,0.95
0.8,0.01,0.95
0.8,0.03,0.95
0.78,0.04,0.95
0.74,0.04,0.94
0.72,0.03,0.94
0.71,0.04,0.92
0.72,0.06,0.89
0.69,0.05,0.89
0.67,0.06,0.85
0.66,0.1,0.77
0.65,0.11,0.75
0.65,0.12,0.72
0.66,0.13,0.72
0.67,0.15,0.73
0.64,0.16,0.71
0.62,0.19,0.68
0.61,0.21,0.65
0.61,0.24,0.62
0.58,0.26,0.59
0.55,0.28,0.56
0.56,0.3,0.55
0.54,0.32,0.55
0.52,0.33,0.57
0.5,0.33,0.57
0.49,0.35,0.56
0.49,0.37,0.55
0.48,0.38,0.54
0.46,0.4,0.52
0.43,0.41,0.47
0.41,0.42,0.46
0.4,0.42,0.44
0.39,0.42,0.44
0.38,0.42,0.44
0.35,0.42,0.42
0.32,0.43,0.39
0.31,0.43,0.38
0.31,0.43,0.39
0.32,0.42,0.4
0.35,0.41,0.42
0.39,0.4,0.45
0.41,0.39,0.46
0.4,0.39,0.45
0.38,0.39,0.42
0.35,0.39,0.38
0.34,0.37,0.36
0.37,0.34,0.37
0.38,0.31,0.37
0.39,0.3,0.38
0.42,0.28,0.4
0.44,0.25,0.42
0.48,0.21,0.49
0.55,0.17,0.57
0.58,0.15,0.59
0.56,0.14,0.57
0.53,0.13,0.54
0.49,0.07,0.52
0.52,0.02,0.61
0.57,-0.04,0.67
0.57,-0.1,0.67
0.57,-0.14,0.67
0.58,-0.17,0.7
0.59,-0.2,0.69
0.56,-0.22,0.66
0.52,-0.25,0.65
1.59,-0.37,2.01
2.6,-0.42,3.15
2,-0.18,2.83
1.29,-0.25,2.71
0.96,-0.35,2.28
0.66,-0.14,1.51
0.37,-0.05,0.97
0.17,-0.02,0.65
0.17,-0.05,0.43
0.24,-0.09,0.32
0.28,-0.11,0.27
0.3,-0.12,0.29
0.36,-0.15,0.38
0.5,-0.21,0.52
0.63,-0.26,0.66
0.74,-0.26,0.78
0.85,-0.28,0.9
0.91,-0.26,1.08
0.72,-0.22,1.07
0.58,-0.18,1
0.5,-0.14,0.89
0.46,-0.12,0.78
0.44,-0.12,0.72
0.46,-0.12,0.7
0.5,-0.12,0.72
0.56,-0.13,0.76
0.62,-0.13,0.81
0.67,-0.13,0.87
0.68,-0.14,0.92
0.66,-0.15,0.96
0.61,-0.15,0.96
0.59,-0.15,0.94
0.59,-0.16,0.91
0.59,-0.17,0.87
0.6,-0.16,0.83
0.61,-0.16,0.79
0.63,-0.16,0.78
0.65,-0.15,0.79
0.66,-0.14,0.81
0.66,-0.12,0.86
0.67,-0.1,0.9
0.68,-0.09,0.92
0.67,-0.07,0.93
0.67,-0.05,0.91
0.73,0,0.89
0.72,0.01,0.88
0.71,0.01,0.88
0.74,0.03,0.88
0.77,0.04,0.88
0.76,0.05,0.89
0.75,0.06,0.89
0.73,0.07,0.87
0.74,0.08,0.84
0.73,0.1,0.83
0.7,0.09,0.84
0.68,0.1,0.82
0.68,0.1,0.83
0.69,0.1,0.83
0.69,0.1,0.83
0.69,0.11,0.82
0.7,0.11,0.83
0.71,0.11,0.85
0.72,0.13,0.84
0.71,0.15,0.82
0.69,0.16,0.79
0.69,0.16,0.77
0.69,0.17,0.77
0.69,0.19,0.77
0.67,0.2,0.76
0.62,0.21,0.68
0.55,0.23,0.65
0.57,0.23,0.63
0.54,0.24,0.62
0.51,0.25,0.62
0.5,0.26,0.61
0.51,0.28,0.62
0.53,0.31,0.63
0.53,0.33,0.64
0.53,0.35,0.64
0.51,0.37,0.63
0.5,0.39,0.64
0.47,0.39,0.63
0.44,0.39,0.62
0.43,0.4,0.6
0.44,0.41,0.58
0.44,0.42,0.56
0.43,0.42,0.54
0.41,0.43,0.51
0.39,0.43,0.49
0.37,0.43,0.47
0.34,0.44,0.45
0.35,0.45,0.44
0.35,0.44,0.44
0.35,0.43,0.44
0.36,0.43,0.46
0.38,0.42,0.48
0.41,0.39,0.46
0.4,0.38,0.42
0.37,0.38,0.38
0.33,0.37,0.35
0.28,0.36,0.32
0.25,0.34,0.29
0.24,0.32,0.28
0.29,0.29,0.32
0.36,0.24,0.4
0.4,0.2,0.46
0.42,0.16,0.51
0.48,0.13,0.58
0.56,0.07,0.65
0.61,0.01,0.67
0.6,-0.02,0.66
0.56,-0.02,0.62
0.5,-0.04,0.58
0.44,-0.08,0.55
0.38,-0.13,0.51
0.33,-0.19,0.47
0.28,-0.26,0.46
1.05,-0.63,2.09
1.59,-0.66,3.75
1.97,-0.6,3.47
2.19,-0.56,3.03
1.45,-0.21,1.6
0.86,0.01,0.88
0.55,0.1,0.46
0.4,0.04,0.25
0.32,-0.01,0.2
0.27,-0.03,0.24
0.24,-0.06,0.3
0.26,-0.11,0.4
0.34,-0.14,0.51
0.44,-0.18,0.63
0.54,-0.23,0.79
0.64,-0.26,0.95
0.76,-0.26,1.05
0.82,-0.23,1.08
0.8,-0.19,1.05
0.7,-0.14,0.98
0.6,-0.1,0.9
0.56,-0.08,0.83
0.57,-0.07,0.8
0.57,-0.09,0.79
0.6,-0.1,0.79
0.65,-0.11,0.8
0.67,-0.14,0.85
0.66,-0.15,0.9
0.67,-0.16,0.95
0.68,-0.16,0.98
0.7,-0.15,0.98
0.76,-0.13,0.97
0.78,-0.11,0.97
0.79,-0.1,0.98
0.77,-0.09,0.97
0.74,-0.07,0.97
0.73,-0.06,0.99
0.73,-0.04,1
0.72,-0.03,1.01
0.7,-0.01,0.99
0.68,0.01,0.96
0.67,0.03,0.94
0.67,0.05,0.93
0.65,0.07,0.91
0.62,0.07,0.9
0.6,0.09,0.88
0.59,0.11,0.85
0.58,0.12,0.82
0.56,0.13,0.77
0.55,0.15,0.75
0.56,0.16,0.74
0.55,0.17,0.72
0.53,0.19,0.69
0.52,0.21,0.69
0.51,0.22,0.66
0.48,0.24,0.64
0.48,0.26,0.65
0.47,0.29,0.59
0.45,0.32,0.6
0.45,0.33,0.6
0.44,0.34,0.59
0.45,0.35,0.59
0.46,0.36,0.6
0.44,0.37,0.59
0.45,0.38,0.6
0.47,0.38,0.6
0.48,0.38,0.57
0.5,0.39,0.56
0.52,0.4,0.58
0.53,0.4,0.62
0.54,0.4,0.65
0.54,0.42,0.66
0.52,0.43,0.66
0.51,0.45,0.67
0.51,0.46,0.65
0.51,0.47,0.62
0.5,0.48,0.59
0.49,0.49,0.57
0.48,0.5,0.55
0.45,0.5,0.54
0.43,0.51,0.53
0.4,0.5,0.53
0.38,0.5,0.52
0.39,0.47,0.57
0.42,0.44,0.6
0.45,0.42,0.64
0.48,0.4,0.66
0.48,0.39,0.63
0.46,0.39,0.58
0.43,0.39,0.52
0.4,0.38,0.47
0.38,0.37,0.44
0.37,0.37,0.44
0.39,0.35,0.49
0.42,0.34,0.53
0.41,0.33,0.54
0.41,0.32,0.55
0.44,0.3,0.56
0.46,0.27,0.56
0.5,0.25,0.6
0.59,0.21,0.65
0.61,0.18,0.66
0.57,0.17,0.63
0.52,0.17,0.59
0.47,0.17,0.54
0.41,0.15,0.49
0.37,0.11,0.44
0.34,0.07,0.41
0.32,0.03,0.39
0.32,-0.09,0.41
0.37,-0.16,0.47
0.42,-0.24,0.51
1.09,-0.36,1.9
2.44,-0.31,3.18
2.84,-0.4,2.85
2,-0.46,2.67
1.29,-0.34,2.44
0.97,-0.3,1.68
0.68,-0.08,0.96
0.43,0.06,0.56
0.3,0.03,0.32
0.26,-0.05,0.23
0.24,-0.08,0.21
0.25,-0.09,0.24
0.28,-0.13,0.3
0.34,-0.17,0.41
0.46,-0.2,0.56
0.62,-0.24,0.75
0.78,-0.27,0.93
0.9,-0.26,1.06
0.93,-0.22,1.12
0.86,-0.18,1.11
0.74,-0.13,1.04
0.63,-0.09,0.92
0.56,-0.07,0.8
0.52,-0.07,0.66
0.49,-0.07,0.65
0.5,-0.09,0.68
0.55,-0.11,0.73
0.64,-0.13,0.79
0.71,-0.15,0.86
0.75,-0.15,0.91
0.74,-0.14,0.91
0.7,-0.13,0.88
0.65,-0.1,0.82
0.62,-0.09,0.77
0.62,-0.1,0.76
0.63,-0.11,0.77
0.64,-0.13,0.81
0.63,-0.16,0.86
0.64,-0.18,0.89
0.7,-0.19,0.92
0.76,-0.21,0.95
0.81,-0.24,0.96
0.81,-0.25,0.93
0.8,-0.23,0.88
0.77,-0.21,0.84
0.78,-0.19,0.82
0.8,-0.16,0.81
0.8,-0.12,0.83
0.8,-0.09,0.85
0.8,-0.05,0.92
0.79,0.02,0.95
0.76,0.05,0.96
0.76,0.07,0.96
0.75,0.08,0.95
0.73,0.09,0.93
0.69,0.11,0.89
0.66,0.13,0.85
0.65,0.15,0.82
0.62,0.16,0.78
0.61,0.16,0.77
0.62,0.16,0.77
0.63,0.16,0.75
0.61,0.17,0.72
0.58,0.18,0.69
0.57,0.19,0.68
0.56,0.19,0.67
0.55,0.2,0.66
0.53,0.22,0.64
0.52,0.24,0.63
0.52,0.26,0.64
0.53,0.26,0.65
0.51,0.27,0.65
0.51,0.28,0.65
0.5,0.29,0.65
0.49,0.31,0.62
0.48,0.32,0.56
0.47,0.34,0.55
0.47,0.35,0.56
0.46,0.36,0.56
0.45,0.36,0.56
0.43,0.36,0.55
0.43,0.37,0.54
0.4,0.37,0.51
0.37,0.37,0.48
0.37,0.39,0.45
0.4,0.39,0.44
0.44,0.36,0.49
0.47,0.36,0.55
0.52,0.35,0.6
0.56,0.35,0.64
0.57,0.34,0.65
0.56,0.35,0.64
0.5,0.37,0.59
0.44,0.39,0.51
0.4,0.38,0.48
0.38,0.37,0.45
0.36,0.37,0.41
0.34,0.37,0.38
0.33,0.36,0.38
0.34,0.34,0.41
0.36,0.29,0.46
0.39,0.25,0.51
0.41,0.15,0.5
0.45,0.08,0.5
0.49,0.04,0.48
0.47,0.03,0.46
0.39,0.01,0.43
0.32,-0.03,0.39
0.27,-0.09,0.37
0.27,-0.16,0.36
0.28,-0.23,0.37
1.54,-0.57,2.18
3.03,-0.61,3.32
2.62,-0.45,2.91
1.66,-0.4,2.87
1.31,-0.35,2.1
1.11,-0.25,1.25
0.72,-0.02,0.68
0.4,0.01,0.37
0.27,-0.04,0.21
0.22,-0.08,0.17
0.21,-0.09,0.2
0.21,-0.11,0.27
0.26,-0.13,0.37
0.39,-0.16,0.5
0.55,-0.21,0.69
0.7,-0.25,0.91
0.84,-0.23,1.19
0.89,-0.14,1.19
0.78,-0.12,1.1
0.67,-0.09,0.97
0.59,-0.07,0.84
0.53,-0.07,0.73
0.5,-0.07,0.65
0.49,-0.07,0.62
0.49,-0.08,0.62
0.52,-0.09,0.66
0.59,-0.11,0.72
0.65,-0.12,0.79
0.7,-0.14,0.87
0.71,-0.14,0.93
0.7,-0.13,0.94
0.65,-0.12,0.89
0.62,-0.1,0.83
0.6,-0.09,0.77
0.59,-0.1,0.73
0.59,-0.1,0.72
0.58,-0.11,0.73
0.59,-0.11,0.75
0.62,-0.12,0.79
0.64,-0.13,0.82
0.65,-0.13,0.84
0.64,-0.13,0.84
0.63,-0.12,0.83
0.61,-0.11,0.79
0.6,-0.12,0.8
0.61,-0.13,0.83
0.63,-0.14,0.86
0.64,-0.16,0.88
0.67,-0.18,0.87
0.69,-0.18,0.86
0.7,-0.18,0.85
0.71,-0.18,0.87
0.72,-0.19,0.89
0.71,-0.19,0.9
0.72,-0.2,0.9
0.75,-0.19,0.89
0.79,-0.17,0.88
0.8,-0.15,0.88
0.78,-0.12,0.88
0.78,-0.09,0.88
0.79,-0.07,0.9
0.79,-0.05,0.91
0.79,-0.02,0.92
0.77,0.02,0.92
0.75,0.06,0.92
0.73,0.08,0.92
0.71,0.1,0.91
0.69,0.12,0.89
0.7,0.12,0.89
0.7,0.11,0.86
0.68,0.11,0.85
0.67,0.1,0.82
0.65,0.1,0.78
0.65,0.11,0.77
0.66,0.12,0.76
0.64,0.12,0.74
0.62,0.13,0.71
0.6,0.15,0.68
0.59,0.18,0.67
0.56,0.19,0.63
0.54,0.2,0.6
0.54,0.21,0.61
0.54,0.22,0.62
0.52,0.22,0.61
0.5,0.24,0.58
0.47,0.27,0.57
0.46,0.3,0.55
0.44,0.31,0.54
0.42,0.31,0.54
0.4,0.32,0.54
0.4,0.34,0.54
0.41,0.36,0.55
0.41,0.37,0.55
0.4,0.38,0.55
0.38,0.4,0.51
0.38,0.43,0.37
0.41,0.43,0.33
0.42,0.42,0.33
0.43,0.4,0.38
0.46,0.36,0.44
0.49,0.34,0.5
0.52,0.32,0.54
0.54,0.32,0.55
0.53,0.3,0.54
0.54,0.29,0.53
0.56,0.27,0.53
0.54,0.25,0.52
0.49,0.25,0.48
0.44,0.26,0.44
0.38,0.24,0.41
0.34,0.21,0.39
0.31,0.17,0.37
0.34,0.12,0.44
0.51,0.04,0.67
0.68,-0.03,0.83
0.7,-0.05,0.82
0.67,-0.04,0.75
0.63,-0.05,0.68
0.58,-0.1,0.62
0.48,-0.16,0.59
0.54,-0.27,0.51
0.86,-0.51,2.12
1.94,-0.19,2.62
1.56,-0.04,2.48
1.17,-0.13,2.05
1.08,-0.12,1.47
0.79,0.05,0.95
0.55,0.06,0.61
0.4,-0.01,0.43
0.31,-0.05,0.34
0.3,-0.07,0.32
0.32,-0.08,0.35
0.35,-0.1,0.43
0.44,-0.13,0.53
0.59,-0.17,0.65
0.77,-0.2,0.79
0.87,-0.22,0.93
0.88,-0.21,1.04
0.85,-0.18,1.07
0.76,-0.13,1.02
0.65,-0.08,0.92
0.57,-0.06,0.81
0.53,-0.06,0.73
0.51,-0.07,0.68
0.53,-0.08,0.67
0.55,-0.08,0.69
0.61,-0.11,0.72
0.67,-0.12,0.82
0.71,-0.12,0.85
0.7,-0.12,0.87
0.68,-0.11,0.85
0.65,-0.11,0.82
0.63,-0.1,0.78
0.61,-0.11,0.75
0.6,-0.1,0.74
0.61,-0.1,0.74
0.61,-0.1,0.75
0.62,-0.11,0.77
0.63,-0.12,0.79
0.65,-0.12,0.8
0.65,-0.12,0.81
0.65,-0.13,0.82
0.64,-0.13,0.82
0.63,-0.12,0.8
0.64,-0.11,0.79
0.64,-0.11,0.78
0.65,-0.11,0.77
0.66,-0.11,0.77
0.67,-0.11,0.78
0.68,-0.12,0.8
0.68,-0.12,0.82
0.68,-0.13,0.85
0.69,-0.14,0.86
0.69,-0.15,0.84
0.68,-0.15,0.82
0.69,-0.15,0.8
0.73,-0.16,0.81
0.76,-0.16,0.83
0.78,-0.16,0.84
0.81,-0.16,0.86
0.85,-0.14,0.89
0.87,-0.11,0.91
0.88,-0.08,0.9
0.88,-0.04,0.89
0.89,-0.01,0.87
0.9,0.02,0.85
0.91,0.04,0.83
0.9,0.06,0.82
0.88,0.08,0.82
0.84,0.1,0.81
0.82,0.1,0.83
0.79,0.09,0.84
0.74,0.08,0.81
0.71,0.08,0.78
0.69,0.08,0.76
0.69,0.08,0.75
0.69,0.08,0.75
0.67,0.07,0.73
0.63,0.08,0.7
0.62,0.11,0.66
0.58,0.15,0.65
0.56,0.17,0.64
0.54,0.19,0.62
0.52,0.2,0.6
0.49,0.22,0.58
0.47,0.23,0.56
0.48,0.24,0.57
0.49,0.24,0.56
0.46,0.25,0.54
0.45,0.27,0.54
0.46,0.3,0.55
0.46,0.32,0.55
0.46,0.34,0.56
0.45,0.35,0.56
0.44,0.36,0.55
0.41,0.37,0.54
0.37,0.39,0.51
0.36,0.41,0.49
0.37,0.41,0.5
0.39,0.39,0.51
0.43,0.37,0.52
0.49,0.36,0.55
0.55,0.33,0.58
0.55,0.32,0.59
0.53,0.33,0.57
0.51,0.34,0.53
0.43,0.31,0.49
0.37,0.3,0.45
0.35,0.28,0.43
0.39,0.25,0.46
0.45,0.2,0.52
0.47,0.17,0.55
0.46,0.16,0.55
0.45,0.14,0.55
0.43,0.11,0.53
0.39,0.08,0.49
0.33,0.05,0.46
0.3,0,0.44
0.33,-0.06,0.48
0.43,-0.11,0.59
0.57,-0.19,0.72
0.66,-0.26,0.78
0.68,-0.32,0.86
1.2,-0.76,1.97
2.28,-0.72,2.63
2.27,-0.19,2.29
1.42,-0.1,2.19
1.04,-0.15,1.67
0.77,-0.09,1.04
0.52,0.05,0.69
0.37,-0.02,0.49
0.29,-0.09,0.39
0.3,-0.08,0.35
0.32,-0.1,0.38
0.39,-0.12,0.46
0.55,-0.16,0.59
0.7,-0.2,0.74
0.82,-0.21,0.89
0.87,-0.19,1.01
0.83,-0.16,1.08
0.74,-0.12,1.06
0.64,-0.08,0.98
0.57,-0.06,0.88
0.52,-0.05,0.78
0.49,-0.06,0.71
0.5,-0.06,0.68
0.52,-0.08,0.67
0.57,-0.09,0.69
0.64,-0.12,0.73
0.7,-0.13,0.78
0.74,-0.13,0.84
0.73,-0.12,0.88
0.69,-0.1,0.88
0.64,-0.09,0.85
0.6,-0.08,0.81
0.58,-0.08,0.77
0.57,-0.08,0.75
0.58,-0.09,0.74
0.6,-0.1,0.78
0.65,-0.11,0.8
0.66,-0.11,0.81
0.66,-0.11,0.82
0.65,-0.1,0.81
0.63,-0.1,0.8
0.62,-0.1,0.79
0.61,-0.1,0.78
0.6,-0.1,0.78
0.61,-0.1,0.78
0.62,-0.1,0.79
0.63,-0.1,0.79
0.64,-0.1,0.8
0.64,-0.1,0.8
0.64,-0.1,0.79
0.63,-0.1,0.79
0.63,-0.1,0.79
0.62,-0.1,0.78
0.63,-0.1,0.78
0.64,-0.11,0.78
0.65,-0.11,0.79
0.65,-0.11,0.79
0.64,-0.1,0.79
0.65,-0.1,0.79
0.65,-0.1,0.79
0.66,-0.1,0.79
0.65,-0.1,0.81
0.63,-0.11,0.82
0.65,-0.12,0.86
0.69,-0.14,0.9
0.72,-0.16,0.92
0.75,-0.17,0.93
0.79,-0.18,0.93
0.83,-0.19,0.94
0.84,-0.2,0.93
0.86,-0.18,0.91
0.86,-0.16,0.88
0.86,-0.15,0.88
0.88,-0.12,0.87
0.89,-0.07,0.85
0.9,-0.02,0.85
0.9,0.03,0.85
0.88,0.08,0.86
0.84,0.11,0.87
0.78,0.13,0.89
0.74,0.14,0.89
0.71,0.14,0.87
0.66,0.12,0.84
0.65,0.1,0.81
0.67,0.08,0.8
0.7,0.08,0.78
0.71,0.09,0.77
0.68,0.11,0.72
0.61,0.13,0.71
0.59,0.13,0.69
0.6,0.14,0.68
0.6,0.16,0.66
0.6,0.16,0.64
0.62,0.18,0.62
0.59,0.21,0.59
0.56,0.23,0.57
0.53,0.25,0.55
0.51,0.26,0.55
0.5,0.28,0.57
0.49,0.3,0.58
0.48,0.32,0.59
0.48,0.34,0.58
0.46,0.36,0.55
0.46,0.37,0.54
0.45,0.39,0.52
0.44,0.4,0.51
0.43,0.42,0.5
0.43,0.42,0.5
0.43,0.43,0.52
0.42,0.44,0.54
0.4,0.46,0.53
0.38,0.48,0.52
0.37,0.48,0.51
0.37,0.47,0.5
0.42,0.45,0.53
0.46,0.43,0.57
0.49,0.41,0.58
0.49,0.41,0.57
0.5,0.4,0.56
0.5,0.38,0.54
0.48,0.38,0.51
0.44,0.37,0.47
0.39,0.36,0.44
0.35,0.34,0.41
0.34,0.32,0.41
0.39,0.29,0.45
0.45,0.25,0.51
0.47,0.22,0.53
0.47,0.19,0.55
0.5,0.16,0.6
0.54,0.12,0.61
0.53,0.09,0.57
0.48,0.08,0.52
0.43,0.06,0.48
0.4,0.02,0.46
0.4,-0.02,0.45
0.4,-0.07,0.45
0.43,-0.11,0.46
0.45,-0.16,0.48
0.48,-0.22,0.94
1.77,-0.84,2.26
2.41,-0.63,2.9
2.19,-0.3,2.56
1.61,-0.19,2.31
1.24,-0.2,1.65
0.89,-0.04,0.97
0.6,0.05,0.57
0.39,0,0.35
0.28,-0.06,0.26
0.23,-0.07,0.24
0.24,-0.08,0.25
0.26,-0.09,0.29
0.34,-0.12,0.4
0.48,-0.17,0.54
0.61,-0.21,0.71
0.71,-0.23,0.91
0.81,-0.21,1.08
0.87,-0.16,1.15
0.82,-0.11,1.14
0.72,-0.06,1.06
0.62,-0.04,0.93
0.56,-0.04,0.8
0.54,-0.03,0.71
0.53,-0.05,0.66
0.53,-0.07,0.64
0.56,-0.1,0.7
0.69,-0.14,0.76
0.72,-0.15,0.82
0.73,-0.15,0.86
0.71,-0.13,0.87
0.66,-0.11,0.84
0.62,-0.1,0.8
0.59,-0.09,0.76
0.59,-0.08,0.74
0.6,-0.09,0.73
0.62,-0.1,0.74
0.64,-0.1,0.76
0.65,-0.1,0.78
0.66,-0.1,0.8
0.67,-0.11,0.8
0.67,-0.11,0.81
0.66,-0.11,0.8
0.64,-0.11,0.79
0.63,-0.11,0.78
0.62,-0.11,0.77
0.62,-0.11,0.77
0.63,-0.11,0.77
0.64,-0.11,0.77
0.66,-0.11,0.77
0.66,-0.1,0.79
0.67,-0.1,0.8
0.67,-0.11,0.8
0.65,-0.11,0.8
0.65,-0.12,0.79
0.65,-0.13,0.78
0.66,-0.15,0.77
0.66,-0.16,0.77
0.68,-0.15,0.77
0.7,-0.15,0.77
0.7,-0.16,0.78
0.71,-0.17,0.77
0.71,-0.16,0.76
0.69,-0.17,0.76
0.7,-0.18,0.77
0.7,-0.18,0.8
0.73,-0.19,0.83
0.78,-0.17,0.86
0.8,-0.16,0.86
0.8,-0.12,0.87
0.8,-0.07,0.88
0.81,-0.06,0.88
0.82,-0.03,0.9
0.81,0,0.91
0.79,0.01,0.92
0.76,0.03,0.92
0.75,0.04,0.93
0.76,0.06,0.93
0.76,0.07,0.93
0.76,0.08,0.91
0.73,0.08,0.89
0.71,0.08,0.86
0.73,0.07,0.85
0.74,0.08,0.84
0.74,0.07,0.83
0.7,0.06,0.82
0.67,0.07,0.79
0.67,0.1,0.76
0.66,0.11,0.75
0.64,0.12,0.74
0.63,0.13,0.74
0.63,0.15,0.73
0.64,0.17,0.72
0.64,0.19,0.71
0.63,0.22,0.7
0.63,0.24,0.69
0.64,0.25,0.68
0.61,0.26,0.65
0.56,0.28,0.61
0.55,0.3,0.59
0.52,0.31,0.55
0.51,0.31,0.53
0.53,0.32,0.52
0.54,0.33,0.52
0.53,0.34,0.51
0.49,0.38,0.45
0.46,0.4,0.42
0.44,0.42,0.43
0.43,0.43,0.44
0.42,0.44,0.46
0.41,0.45,0.47
0.38,0.47,0.47
0.35,0.48,0.46
0.34,0.48,0.44
0.32,0.48,0.43
0.32,0.47,0.44
0.35,0.46,0.46
0.4,0.43,0.5
0.44,0.41,0.53
0.45,0.39,0.54
0.45,0.38,0.53
0.43,0.37,0.51
0.42,0.36,0.49
0.39,0.35,0.47
0.38,0.33,0.46
0.42,0.3,0.5
0.44,0.28,0.52
0.43,0.26,0.52
0.41,0.25,0.49
0.4,0.23,0.45
0.39,0.19,0.43
0.4,0.11,0.49
0.44,0.07,0.52
0.44,0.04,0.53
0.43,0.01,0.52
0.45,-0.03,0.53
0.51,-0.11,0.57
0.54,-0.17,0.58
0.56,-0.22,0.61
0.71,-0.31,0.59
1.39,-0.8,2.1
2.4,-0.9,3.04
2.35,-0.38,2.51
1.57,-0.2,2.4
1.17,-0.22,1.76
0.89,-0.11,1.06
0.58,0.05,0.66
0.36,0.01,0.42
0.26,-0.06,0.29
0.25,-0.08,0.25
0.27,-0.07,0.25
0.28,-0.08,0.3
0.33,-0.11,0.39
0.46,-0.16,0.53
0.61,-0.21,0.71
0.75,-0.21,0.91
0.85,-0.2,1.06
0.89,-0.14,1.13
0.72,-0.09,1.04
0.62,-0.07,0.92
0.56,-0.05,0.8
0.53,-0.05,0.72
0.52,-0.07,0.67
0.54,-0.09,0.68
0.59,-0.11,0.71
0.66,-0.14,0.74
0.71,-0.14,0.79
0.74,-0.13,0.84
0.74,-0.13,0.88
0.7,-0.12,0.88
0.65,-0.1,0.85
0.62,-0.1,0.82
0.61,-0.11,0.8
0.61,-0.12,0.77
0.62,-0.13,0.78
0.64,-0.14,0.8
0.65,-0.16,0.81
0.68,-0.18,0.82
0.72,-0.19,0.82
0.72,-0.18,0.82
0.71,-0.16,0.83
0.7,-0.14,0.83
0.69,-0.14,0.83
0.73,-0.12,0.9
0.81,-0.06,0.93
0.82,-0.04,0.96
0.8,-0.02,0.96
0.8,0,0.96
0.8,0.01,0.96
0.81,0.02,0.96
0.81,0.04,0.95
0.8,0.05,0.93
0.8,0.07,0.91
0.8,0.08,0.88
0.79,0.09,0.85
0.77,0.1,0.82
0.75,0.11,0.82
0.73,0.11,0.81
0.7,0.1,0.8
0.68,0.11,0.77
0.66,0.12,0.75
0.65,0.13,0.75
0.64,0.13,0.74
0.61,0.14,0.69
0.6,0.16,0.65
0.59,0.18,0.62
0.59,0.2,0.6
0.6,0.21,0.59
0.59,0.22,0.59
0.55,0.24,0.58
0.46,0.29,0.56
0.43,0.31,0.54
0.4,0.33,0.52
0.38,0.36,0.5
0.35,0.35,0.48
0.34,0.36,0.47
0.35,0.39,0.47
0.34,0.39,0.47
0.3,0.4,0.44
0.29,0.41,0.43
0.31,0.41,0.44
0.33,0.39,0.47
0.36,0.38,0.51
0.42,0.37,0.57
0.49,0.35,0.61
0.51,0.34,0.61
0.5,0.34,0.6
0.53,0.33,0.6
0.55,0.3,0.61
0.55,0.28,0.58
0.55,0.28,0.54
0.56,0.28,0.51
0.56,0.29,0.5
0.55,0.31,0.5
0.51,0.32,0.49
0.47,0.32,0.49
0.46,0.29,0.53
0.5,0.23,0.58
0.52,0.17,0.61
0.53,0.13,0.63
0.54,0.11,0.64
0.55,0.08,0.63
0.55,0.05,0.62
0.52,0.03,0.61
0.49,0.01,0.59
0.47,-0.02,0.59
0.44,-0.05,0.58
0.4,-0.08,0.52
0.36,-0.12,0.48
0.47,-0.24,0.86
1.06,-0.72,2.12
1.86,-0.66,2.72
1.95,-0.2,2.5
1.57,-0.24,2.31
1.33,-0.27,1.69
1.03,-0.15,1.03
0.71,-0.02,0.6
0.47,-0.04,0.35
0.34,-0.08,0.23
0.28,-0.08,0.19
0.26,-0.08,0.23
0.26,-0.1,0.4
0.41,-0.18,0.54
0.56,-0.21,0.72
0.7,-0.23,0.95
0.81,-0.23,1.15
0.87,-0.2,1.23
0.85,-0.15,1.19
0.75,-0.11,1.05
0.65,-0.07,0.9
0.58,-0.05,0.77
0.53,-0.05,0.69
0.51,-0.06,0.64
0.5,-0.07,0.63
0.52,-0.08,0.65
0.57,-0.11,0.69
0.64,-0.13,0.75
0.7,-0.14,0.82
0.73,-0.13,0.87
0.73,-0.12,0.88
0.71,-0.11,0.87
0.67,-0.1,0.82
0.64,-0.1,0.78
0.62,-0.1,0.75
0.63,-0.11,0.73
0.63,-0.11,0.74
0.64,-0.12,0.76
0.65,-0.11,0.81
0.66,-0.13,0.84
0.67,-0.14,0.85
0.67,-0.15,0.84
0.67,-0.15,0.85
0.68,-0.15,0.86
0.68,-0.17,0.86
0.68,-0.18,0.84
0.69,-0.19,0.82
0.69,-0.2,0.82
0.72,-0.22,0.83
0.8,-0.22,0.83
0.86,-0.2,0.83
0.86,-0.19,0.85
0.84,-0.19,0.87
0.83,-0.14,0.87
0.84,-0.07,0.89
0.84,-0.01,0.9
0.83,0.03,0.9
0.83,0.07,0.92
0.83,0.1,0.93
0.81,0.11,0.95
0.79,0.12,0.95
0.76,0.13,0.92
0.75,0.13,0.89
0.76,0.12,0.86
0.75,0.1,0.83
0.73,0.07,0.82
0.71,0.07,0.83
0.69,0.07,0.81
0.68,0.09,0.79
0.66,0.1,0.76
0.64,0.13,0.72
0.64,0.15,0.7
0.63,0.17,0.67
0.61,0.17,0.62
0.63,0.17,0.59
0.62,0.18,0.57
0.6,0.2,0.55
0.6,0.22,0.56
0.6,0.24,0.58
0.59,0.27,0.59
0.58,0.29,0.6
0.55,0.31,0.59
0.53,0.34,0.59
0.51,0.36,0.57
0.48,0.38,0.56
0.48,0.4,0.55
0.49,0.42,0.55
0.48,0.43,0.54
0.46,0.45,0.53
0.44,0.46,0.53
0.45,0.47,0.54
0.44,0.49,0.53
0.45,0.49,0.53
0.45,0.5,0.52
0.44,0.5,0.51
0.42,0.51,0.49
0.4,0.51,0.47
0.39,0.52,0.46
0.38,0.52,0.45
0.39,0.51,0.46
0.43,0.49,0.49
0.47,0.48,0.53
0.52,0.47,0.57
0.53,0.46,0.59
0.5,0.46,0.58
0.5,0.46,0.54
0.51,0.46,0.49
0.5,0.45,0.45
0.5,0.44,0.44
0.55,0.42,0.48
0.58,0.41,0.52
0.58,0.39,0.56
0.61,0.39,0.62
0.63,0.38,0.66
0.6,0.38,0.66
0.57,0.38,0.64
0.55,0.38,0.64
0.53,0.35,0.56
0.46,0.32,0.55
0.52,0.29,0.59
0.57,0.25,0.62
0.56,0.22,0.62
0.59,0.21,0.66
0.65,0.18,0.71
0.66,0.15,0.72
0.63,0.14,0.71
0.59,0.14,0.68
0.54,0.14,0.64
0.5,0.13,0.6
0.47,0.12,0.55
0.44,0.1,0.5
0.42,0.06,0.47
0.43,0.01,0.48
0.49,-0.04,0.56
0.58,-0.1,0.66
0.61,-0.16,0.69
0.57,-0.18,0.67
0.72,-0.33,0.62
1.24,-0.56,1.76
1.74,-0.4,2.65
1.68,-0.13,2.34
1.31,-0.15,2.13
1.06,-0.17,1.65
0.83,-0.08,0.73
0.49,0.01,0.45
0.41,-0.05,0.33
0.36,-0.08,0.32
0.37,-0.1,0.34
0.41,-0.13,0.39
0.47,-0.16,0.49
0.59,-0.18,0.62
0.73,-0.21,0.76
0.82,-0.21,0.9
0.84,-0.19,1
0.81,-0.14,1.04
0.74,-0.1,1.01
0.66,-0.07,0.93
0.61,-0.06,0.84
0.57,-0.05,0.75
0.55,-0.05,0.69
0.55,-0.07,0.67
0.6,-0.09,0.68
0.65,-0.11,0.7
0.7,-0.13,0.76
0.73,-0.14,0.81
0.72,-0.13,0.84
0.69,-0.11,0.84
0.66,-0.1,0.83
0.63,-0.09,0.8
0.61,-0.08,0.73
0.61,-0.09,0.73
0.63,-0.1,0.75
0.65,-0.11,0.77
0.66,-0.11,0.79
0.67,-0.11,0.81
0.67,-0.12,0.81
0.66,-0.11,0.81
0.64,-0.1,0.78
0.63,-0.09,0.76
0.63,-0.09,0.76
0.63,-0.09,0.77
0.63,-0.09,0.76
0.63,-0.09,0.76
0.64,-0.09,0.77
0.64,-0.1,0.79
0.65,-0.1,0.79
0.65,-0.1,0.79
0.65,-0.1,0.79
0.64,-0.09,0.78
0.63,-0.08,0.78
0.63,-0.09,0.78
0.64,-0.09,0.79
0.65,-0.1,0.79
0.66,-0.1,0.79
0.68,-0.11,0.8
0.68,-0.11,0.81
0.66,-0.11,0.79
0.66,-0.11,0.77
0.66,-0.11,0.76
0.68,-0.11,0.78
0.72,-0.11,0.8
0.76,-0.12,0.84
0.79,-0.12,0.88
0.8,-0.12,0.9
0.8,-0.12,0.91
0.82,-0.11,0.9
0.83,-0.08,0.9
0.82,-0.06,0.91
0.82,-0.04,0.92
0.82,-0.02,0.93
0.82,-0.01,0.93
0.84,0.01,0.95
0.84,0.02,0.94
0.81,0.03,0.91
0.8,0.05,0.88
0.78,0.06,0.86
0.74,0.06,0.82
0.73,0.07,0.8
0.73,0.08,0.79
0.72,0.09,0.81
0.71,0.09,0.8
0.7,0.09,0.76
0.66,0.12,0.72
0.63,0.14,0.68
0.62,0.16,0.66
0.61,0.17,0.64
0.6,0.18,0.61
0.61,0.19,0.6
0.61,0.19,0.61
0.6,0.2,0.61
0.58,0.22,0.62
0.57,0.24,0.66
0.57,0.26,0.65
0.55,0.27,0.62
0.55,0.25,0.62
0.53,0.24,0.61
0.53,0.26,0.6
0.53,0.28,0.56
0.52,0.29,0.54
0.53,0.32,0.52
0.55,0.36,0.51
0.55,0.38,0.53
0.51,0.39,0.55
0.5,0.4,0.56
0.5,0.42,0.56
0.51,0.44,0.56
0.5,0.45,0.55
0.47,0.45,0.52
0.44,0.45,0.51
0.41,0.44,0.49
0.4,0.43,0.49
0.41,0.42,0.5
0.45,0.39,0.52
0.5,0.37,0.55
0.54,0.35,0.59
0.58,0.34,0.62
0.59,0.33,0.63
0.57,0.32,0.6
0.54,0.32,0.56
0.53,0.32,0.51
0.52,0.32,0.48
0.5,0.32,0.47
0.47,0.33,0.46
0.45,0.34,0.45
0.43,0.33,0.46
0.47,0.29,0.53
0.53,0.25,0.6
0.54,0.21,0.61
0.56,0.18,0.61
0.6,0.15,0.62
0.6,0.12,0.58
0.55,0.1,0.53
0.48,0.1,0.48
0.42,0.07,0.42
0.39,-0.02,0.42
0.4,-0.06,0.46
0.42,-0.1,0.52
0.46,-0.15,0.58
0.49,-0.2,0.61
1.21,-0.37,1.82
2.44,-0.36,2.77
2.65,-0.26,2.49
1.87,-0.22,2.45
1.3,-0.22,2.16
0.98,-0.25,1.53
0.66,-0.07,0.92
0.48,0,0.52
0.35,-0.04,0.33
0.31,-0.07,0.28
0.3,-0.09,0.26
0.31,-0.11,0.28
0.31,-0.12,0.33
0.41,-0.16,0.44
0.58,-0.18,0.58
0.74,-0.21,0.73
0.87,-0.22,0.92
0.95,-0.21,1.07
0.93,-0.17,1.13
0.8,-0.13,1.1
0.67,-0.1,1
0.58,-0.06,0.75
0.5,-0.06,0.67
0.5,-0.07,0.63
0.52,-0.08,0.64
0.57,-0.09,0.66
0.64,-0.11,0.71
0.72,-0.13,0.78
0.76,-0.13,0.84
0.74,-0.12,0.87
0.7,-0.11,0.86
0.65,-0.1,0.83
0.61,-0.09,0.78
0.6,-0.09,0.75
0.6,-0.09,0.73
0.61,-0.1,0.74
0.63,-0.11,0.76
0.66,-0.12,0.78
0.67,-0.13,0.8
0.66,-0.12,0.8
0.65,-0.12,0.8
0.64,-0.11,0.79
0.64,-0.11,0.78
0.63,-0.11,0.78
0.62,-0.11,0.77
0.62,-0.1,0.76
0.63,-0.1,0.76
0.63,-0.1,0.77
0.65,-0.1,0.78
0.65,-0.1,0.78
0.65,-0.1,0.78
0.65,-0.1,0.78
0.65,-0.1,0.78
0.65,-0.1,0.78
0.65,-0.11,0.78
0.65,-0.11,0.79
0.65,-0.11,0.79
0.65,-0.12,0.79
0.65,-0.12,0.79
0.65,-0.12,0.79
0.65,-0.13,0.81
0.66,-0.13,0.83
0.67,-0.14,0.84
0.68,-0.16,0.86
0.7,-0.18,0.88
0.72,-0.2,0.89
0.74,-0.21,0.91
0.76,-0.22,0.93
0.79,-0.24,0.93
0.82,-0.23,0.92
0.84,-0.22,0.94
0.85,-0.2,0.95
0.86,-0.15,0.92
0.86,-0.02,0.86
0.84,0.04,0.87
0.83,0.08,0.89
0.79,0.11,0.9
0.75,0.14,0.91
0.73,0.16,0.9
0.71,0.17,0.88
0.69,0.17,0.86
0.69,0.16,0.84
0.68,0.14,0.81
0.68,0.12,0.78
0.67,0.11,0.76
0.68,0.1,0.72
0.66,0.1,0.69
0.66,0.1,0.68
0.66,0.1,0.66
0.63,0.12,0.66
0.61,0.13,0.65
0.62,0.15,0.63
0.61,0.17,0.63
0.6,0.18,0.62
0.58,0.2,0.6
0.57,0.23,0.61
0.56,0.25,0.61
0.55,0.26,0.61
0.57,0.28,0.62
0.6,0.31,0.6
0.63,0.36,0.58
0.61,0.38,0.55
0.56,0.4,0.53
0.53,0.42,0.52
0.49,0.43,0.51
0.48,0.44,0.51
0.49,0.45,0.52
0.5,0.46,0.54
0.49,0.46,0.56
0.47,0.46,0.56
0.44,0.46,0.54
0.41,0.47,0.5
0.38,0.48,0.46
0.37,0.49,0.43
0.36,0.49,0.42
0.35,0.48,0.42
0.37,0.46,0.44
0.43,0.44,0.48
0.52,0.41,0.57
0.58,0.39,0.64
0.6,0.39,0.66
0.6,0.4,0.64
0.58,0.41,0.59
0.56,0.42,0.54
0.55,0.42,0.49
0.53,0.43,0.45
0.46,0.42,0.45
0.45,0.42,0.49
0.5,0.39,0.57
0.58,0.33,0.66
0.62,0.29,0.72
0.63,0.29,0.74
0.61,0.3,0.71
0.54,0.3,0.66
0.46,0.3,0.58
0.41,0.29,0.5
0.38,0.26,0.46
0.42,0.22,0.48
0.55,0.16,0.59
0.71,0.09,0.71
0.83,0.03,0.81
0.87,0.01,0.86
0.83,0.03,0.83
0.75,0.06,0.77
0.66,0.09,0.69
0.58,0.1,0.62
0.51,0.09,0.56
0.44,0.06,0.52
0.41,0.02,0.49
0.44,-0.02,0.51
0.48,-0.07,0.55
0.54,-0.14,1.01
1.41,-0.58,2.03
1.75,-0.35,2.5
1.57,-0.13,2.2
1.16,-0.08,1.88
0.87,-0.08,1.41
0.61,-0.03,0.96
0.45,0.01,0.66
0.43,-0.05,0.47
0.39,-0.07,0.37
0.39,-0.09,0.35
0.43,-0.12,0.4
0.48,-0.14,0.48
0.58,-0.17,0.58
0.69,-0.19,0.69
0.75,-0.2,0.8
0.77,-0.18,0.9
0.75,-0.13,0.97
0.71,-0.09,0.99
0.66,-0.06,0.96
0.62,-0.04,0.9
0.59,-0.04,0.82
0.56,-0.04,0.76
0.55,-0.05,0.72
0.57,-0.07,0.7
0.62,-0.1,0.71
0.67,-0.11,0.77
0.7,-0.12,0.8
0.67,-0.11,0.83
0.64,-0.09,0.82
0.62,-0.09,0.81
0.61,-0.09,0.79
0.6,-0.09,0.77
0.61,-0.09,0.76
0.62,-0.09,0.76
0.64,-0.1,0.77
0.66,-0.11,0.8
0.68,-0.11,0.81
0.67,-0.1,0.81
0.66,-0.1,0.8
0.65,-0.1,0.79
0.63,-0.09,0.78
0.62,-0.09,0.77
0.63,-0.09,0.77
0.63,-0.09,0.77
0.64,-0.09,0.79
0.66,-0.1,0.81
0.66,-0.1,0.81
0.66,-0.1,0.81
0.65,-0.1,0.81
0.63,-0.09,0.81
0.61,-0.1,0.81
0.61,-0.1,0.82
0.67,-0.11,0.83
0.71,-0.12,0.85
0.73,-0.13,0.85
0.73,-0.13,0.86
0.73,-0.12,0.88
0.76,-0.12,0.88
0.76,-0.11,0.87
0.74,-0.1,0.86
0.73,-0.08,0.85
0.73,-0.06,0.84
0.75,-0.04,0.85
0.76,-0.02,0.86
0.74,-0.01,0.88
0.75,0,0.9
0.77,0,0.94
0.76,0,0.94
0.74,0.01,0.91
0.71,0.02,0.86
0.69,0.04,0.81
0.71,0.04,0.81
0.77,0.03,0.85
0.78,0.01,0.87
0.77,0.01,0.86
0.75,0.01,0.86
0.74,0.03,0.85
0.71,0.06,0.81
0.69,0.1,0.76
0.69,0.12,0.77
0.68,0.14,0.77
0.64,0.16,0.74
0.62,0.18,0.71
0.61,0.2,0.67
0.58,0.19,0.61
0.57,0.19,0.58
0.59,0.2,0.59
0.64,0.22,0.6
0.66,0.24,0.62
0.63,0.26,0.63
0.59,0.28,0.63
0.55,0.3,0.62
0.51,0.32,0.6
0.5,0.33,0.58
0.51,0.34,0.59
0.54,0.34,0.63
0.56,0.34,0.66
0.56,0.34,0.67
0.56,0.35,0.68
0.56,0.37,0.67
0.53,0.39,0.67
0.51,0.41,0.66
0.5,0.43,0.65
0.49,0.44,0.63
0.49,0.45,0.64
0.51,0.45,0.64
0.5,0.46,0.64
0.52,0.46,0.64
0.52,0.45,0.64
0.51,0.46,0.63
0.48,0.47,0.6
0.47,0.48,0.57
0.47,0.48,0.54
0.46,0.48,0.53
0.43,0.48,0.51
0.41,0.48,0.5
0.42,0.48,0.52
0.47,0.46,0.55
0.49,0.45,0.59
0.51,0.44,0.61
0.54,0.44,0.63
0.56,0.43,0.65
0.56,0.43,0.64
0.55,0.44,0.62
0.53,0.45,0.58
0.51,0.46,0.55
0.48,0.46,0.51
0.45,0.46,0.47
0.42,0.46,0.44
0.39,0.45,0.41
0.39,0.4,0.43
0.38,0.36,0.44
0.41,0.33,0.46
0.47,0.3,0.51
0.51,0.25,0.53
0.5,0.23,0.52
0.48,0.22,0.5
0.47,0.2,0.46
0.45,0.18,0.43
0.42,0.16,0.39
0.41,0.13,0.36
0.41,0.09,0.35
0.46,0.03,0.43
0.66,-0.06,0.64
0.85,-0.16,0.81
0.87,-0.18,0.84
0.79,-0.14,0.77
0.71,-0.11,0.66
0.63,-0.12,0.55
0.73,-0.25,0.35
1.35,-0.59,1.64
1.91,-0.61,2.74
1.6,-0.26,2.46
1.16,-0.21,2.48
0.94,-0.27,1.99
0.63,-0.13,1.27
0.43,-0.02,0.47
0.31,-0.05,0.31
0.32,-0.08,0.25
0.32,-0.11,0.25
0.34,-0.14,0.29
0.4,-0.16,0.37
0.52,-0.19,0.49
0.67,-0.22,0.65
0.81,-0.24,0.83
0.89,-0.24,0.99
0.88,-0.21,1.11
0.79,-0.16,1.12
0.66,-0.11,1.05
0.58,-0.09,0.95
0.54,-0.07,0.84
0.51,-0.06,0.74
0.49,-0.05,0.68
0.5,-0.05,0.67
0.56,-0.07,0.69
0.63,-0.09,0.73
0.69,-0.12,0.79
0.71,-0.12,0.84
0.71,-0.12,0.88
0.68,-0.12,0.88
0.64,-0.11,0.86
0.6,-0.11,0.81
0.59,-0.11,0.75
0.58,-0.11,0.75
0.58,-0.11,0.76
0.59,-0.11,0.78
0.61,-0.11,0.8
0.62,-0.12,0.82
0.63,-0.12,0.83
0.62,-0.11,0.83
0.61,-0.11,0.82
0.62,-0.11,0.82
0.62,-0.11,0.81
0.62,-0.11,0.8
0.61,-0.1,0.79
0.62,-0.11,0.79
0.63,-0.11,0.79
0.62,-0.1,0.79
0.61,-0.1,0.79
0.61,-0.1,0.8
0.63,-0.1,0.81
0.63,-0.1,0.83
0.63,-0.1,0.83
0.63,-0.1,0.84
0.62,-0.11,0.84
0.62,-0.11,0.82
0.62,-0.11,0.81
0.61,-0.11,0.81
0.59,-0.11,0.82
0.6,-0.13,0.84
0.65,-0.13,0.87
0.69,-0.14,0.9
0.69,-0.15,0.92
0.68,-0.14,0.93
0.68,-0.12,0.92
0.68,-0.1,0.89
0.66,-0.08,0.87
0.66,-0.07,0.87
0.68,-0.07,0.88
0.69,-0.05,0.89
0.69,-0.04,0.89
0.7,-0.04,0.9
0.71,-0.03,0.91
0.73,-0.03,0.92
0.75,-0.03,0.93
0.76,-0.02,0.92
0.76,0,0.92
0.75,0.01,0.9
0.74,0.03,0.87
0.73,0.05,0.83
0.7,0.07,0.81
0.7,0.08,0.79
0.69,0.09,0.77
0.67,0.09,0.74
0.65,0.1,0.71
0.63,0.11,0.69
0.62,0.12,0.68
0.62,0.13,0.67
0.59,0.15,0.65
0.53,0.16,0.62
0.52,0.17,0.61
0.52,0.19,0.6
0.51,0.2,0.6
0.51,0.21,0.6
0.51,0.22,0.62
0.51,0.23,0.64
0.53,0.22,0.65
0.54,0.22,0.65
0.54,0.24,0.64
0.55,0.26,0.63
0.53,0.28,0.62
0.51,0.29,0.6
0.49,0.3,0.59
0.48,0.31,0.58
0.5,0.31,0.59
0.52,0.3,0.62
0.55,0.28,0.64
0.57,0.29,0.65
0.58,0.29,0.66
0.58,0.28,0.68
0.59,0.27,0.68
0.65,0.26,0.7
0.65,0.26,0.7
0.65,0.26,0.69
0.65,0.27,0.67
0.64,0.28,0.66
0.62,0.29,0.63
0.59,0.28,0.6
0.57,0.29,0.57
0.55,0.29,0.57
0.58,0.25,0.64
0.63,0.2,0.73
0.66,0.18,0.77
0.66,0.18,0.77
0.65,0.19,0.74
0.6,0.19,0.71
0.55,0.19,0.65
0.51,0.18,0.6
0.48,0.18,0.56
0.45,0.17,0.54
0.43,0.16,0.53
0.41,0.14,0.53
0.43,0.11,0.57
0.47,0.08,0.63
0.5,0.05,0.69
0.49,0.05,0.7
0.46,0.05,0.64
0.43,0,0.5
0.37,-0.04,0.47
0.35,-0.1,0.45
0.5,-0.22,0.51
0.96,-0.63,1.61
1.52,-0.54,2.46
1.81,-0.18,2.25
1.64,-0.22,2.04
1.36,-0.22,1.54
