Acc_x,Acc_y,Acc_z
0,0,0
0,0,0
0,0,0
0,0,0
0,0,0
0,0,0
0,0,0
0,0,0
0,0,0
0,0,0
0,0,0
0,0,0
0,0,0
0,0,0
0,0,0
0,0,0
0,0,0
0,0,0
0,0,0
0,0,0
0,0,0
0,0,0
0,0,0
0,0,0
0,0,0
0,0,0
0,0,0
0,0,0
0,0,0
0,0,0
0,0,0
0,0,0
0,0,0
0,0,0
0,0,0
0,0,0
0,0,0
0,0,0
0,0,0
0,0,0
0,0,0
0,0,0
0,0,0
0,0,0
0,0,0
0,0,0
0,0,0
0,0,0
0,0,0
0,0,0
0,0,0
0,0,0
0,0,0
0,0,0
0,0,0
0,0,0
0,0,0
0,0,0
0,0,0
0,0,0
0,0,0
0,0,0
0,0,0
0,0,0
0,0,0
0,0,0
0,0,0
0,0,0
0,0,0
0,0,0
0,0,0
0,0,0
0,0,0
0,0,0
0,0,0
0,0,0
0,0,0
0,0,0
0.69,0.32,0.82
0.71,0.3,0.84
0.72,0.27,0.84
0.71,0.27,0.85
0.74,0.28,0.86
0.73,0.27,0.86
0.71,0.33,0.87
0.68,0.33,0.86
0.63,0.25,0.82
0.64,0.29,0.81
0.69,0.29,0.8
0.7,0.26,0.85
0.72,0.28,0.95
0.84,0.23,0.94
0.82,0.18,0.95
0.8,0.17,0.93
0.76,0.16,0.87
0.71,0.15,0.79
0.7,0.14,0.73
0.7,0.13,0.69
0.72,0.1,0.68
0.73,0.08,0.68
0.72,0.07,0.69
0.7,0.06,0.69
0.69,0.05,0.69
0.68,0.04,0.68
0.67,0.03,0.67
0.67,0.02,0.66
0.68,0.02,0.66
0.69,0.03,0.67
0.7,0.05,0.66
0.71,0.05,0.66
0.71,0.06,0.66
0.72,0.06,0.66
0.73,0.07,0.67
0.75,0.08,0.68
0.76,0.09,0.69
0.77,0.09,0.71
0.77,0.08,0.72
0.78,0.09,0.73
0.77,0.08,0.74
0.77,0.08,0.74
0.77,0.08,0.75
0.75,0.07,0.75
0.71,0.06,0.74
0.69,0.06,0.74
0.69,0.07,0.74
0.7,0.07,0.73
0.71,0.07,0.72
0.72,0.06,0.71
0.73,0.06,0.7
0.73,0.06,0.69
0.72,0.06,0.68
0.7,0.07,0.65
0.69,0.07,0.63
0.69,0.06,0.61
0.71,0.05,0.63
0.74,0.03,0.66
0.77,0.02,0.7
0.78,0.02,0.72
0.78,0.02,0.74
0.76,0.03,0.76
0.74,0.03,0.76
0.72,0.04,0.73
0.71,0.04,0.7
0.75,0.03,0.7
0.75,0.02,0.71
0.75,0.02,0.72
0.76,0.01,0.72
0.76,0.02,0.71
0.75,0.03,0.7
0.74,0.03,0.68
0.75,0.05,0.64
0.76,0.04,0.61
0.78,0.02,0.62
0.81,0.02,0.65
0.8,0.02,0.7
0.77,0.03,0.74
0.72,0.05,0.77
0.67,0.06,0.79
0.64,0.05,0.8
0.65,0.05,0.79
0.65,0.05,0.76
0.66,0.04,0.73
0.69,0.03,0.71
0.72,0.03,0.68
0.75,0.01,0.65
0.77,0.01,0.64
0.79,0.01,0.63
0.8,0,0.61
0.8,0,0.65
0.8,0.04,0.68
0.76,0.04,0.73
0.72,0.05,0.76
0.7,0.06,0.78
0.68,0.07,0.77
0.67,0.07,0.75
0.66,0.06,0.74
0.67,0.06,0.73
0.68,0.05,0.71
0.7,0.04,0.69
0.7,0.03,0.68
0.72,0.03,0.67
0.74,0.02,0.66
0.76,0.01,0.66
0.8,0,0.66
0.82,0,0.66
0.81,0,0.66
0.8,0.03,0.66
0.78,0.05,0.68
0.74,0.06,0.7
0.7,0.06,0.73
0.69,0.06,0.74
0.68,0.06,0.75
0.68,0.06,0.75
0.67,0.06,0.74
0.68,0.05,0.72
0.7,0.04,0.7
0.71,0.03,0.68
0.73,0.02,0.67
0.75,0.02,0.67
0.78,0.02,0.66
0.83,0,0.66
0.86,-0.01,0.66
0.83,0,0.66
0.81,0.03,0.66
0.78,0.05,0.67
0.73,0.06,0.71
0.69,0.06,0.73
0.67,0.06,0.74
0.66,0.06,0.74
0.66,0.07,0.75
0.68,0.06,0.74
0.69,0.06,0.74
0.7,0.05,0.73
0.71,0.03,0.71
0.73,0.02,0.69
0.74,0.02,0.68
0.75,0.01,0.67
0.78,0.01,0.67
0.83,0,0.66
0.84,0,0.66
0.81,0,0.68
0.76,0.03,0.69
0.73,0.06,0.71
0.69,0.07,0.72
0.67,0.06,0.73
0.65,0.06,0.74
0.65,0.06,0.73
0.67,0.06,0.73
0.69,0.06,0.72
0.7,0.05,0.72
0.71,0.04,0.71
0.72,0.04,0.7
0.73,0.03,0.69
0.75,0.02,0.69
0.8,0.02,0.67
0.85,0,0.66
0.85,-0.02,0.67
0.82,-0.01,0.69
0.78,0,0.71
0.72,0.01,0.72
0.68,0.04,0.72
0.66,0.05,0.73
0.65,0.06,0.73
0.63,0.06,0.73
0.62,0.06,0.73
0.64,0.06,0.73
0.67,0.06,0.73
0.71,0.05,0.73
0.71,0.04,0.74
0.73,0.04,0.73
0.75,0.03,0.72
0.78,0.02,0.71
0.8,0.01,0.7
0.8,0,0.71
0.77,0,0.71
0.73,0,0.72
0.71,0.01,0.71
0.7,0.02,0.71
0.69,0.03,0.7
0.69,0.04,0.7
0.69,0.04,0.7
0.69,0.04,0.71
0.71,0.05,0.71
0.73,0.05,0.72
0.75,0.05,0.72
0.74,0.04,0.73
0.74,0.04,0.73
0.75,0.03,0.73
0.79,0.02,0.74
0.84,0.01,0.74
0.87,0,0.76
0.85,0.01,0.79
0.81,0.02,0.83
0.8,0.04,0.86
0.87,0.05,0.88
0.9,0.06,0.89
0.93,0.07,0.92
0.96,0.1,0.97
0.96,0.13,1.01
0.92,0.14,1.02
0.87,0.13,1.05
0.82,0.15,1.07
0.79,0.18,1.07
0.74,0.2,1.05
0.68,0.21,0.97
0.69,0.22,0.86
0.76,0.23,0.79
0.79,0.22,0.74
0.75,0.21,0.74
0.71,0.21,0.75
0.72,0.21,0.72
0.71,0.2,0.74
0.72,0.19,0.73
0.71,0.2,0.72
0.67,0.2,0.73
0.63,0.23,0.76
0.62,0.27,0.75
0.61,0.26,0.7
0.66,0.27,0.65
0.66,0.29,0.79
0.45,0.27,0.79
0.57,0.36,0.69
0.65,0.41,0.63
0.62,0.39,0.6
0.63,0.38,0.54
0.56,0.37,0.43
0.54,0.4,0.46
0.5,0.39,0.53
0.57,0.42,0.46
0.78,0.49,0.29
0.71,0.46,0.23
0.69,0.49,0.33
0.74,0.55,0.3
0.67,0.55,0.27
0.65,0.55,0.36
0.67,0.57,0.35
0.7,0.57,0.23
0.69,0.57,0.14
0.46,0.55,0.14
0.37,0.54,0.15
0.51,0.57,0.12
0.55,0.59,0.01
0.67,0.64,0.01
0.73,0.66,0.01
0.64,0.61,-0.1
0.61,0.67,-0.11
0.73,0.64,-0.15
0.64,0.62,-0.14
0.61,0.62,-0.09
0.65,0.64,-0.11
0.59,0.64,-0.09
0.53,0.64,-0.09
0.55,0.66,-0.11
0.54,0.64,-0.12
0.54,0.63,-0.13
0.53,0.64,-0.11
0.54,0.64,-0.11
0.54,0.65,-0.1
0.53,0.65,-0.08
0.51,0.66,-0.08
0.51,0.66,-0.09
0.51,0.67,-0.1
0.51,0.68,-0.11
0.53,0.69,-0.12
0.54,0.69,-0.14
0.53,0.68,-0.15
0.52,0.69,-0.16
0.52,0.68,-0.15
0.53,0.67,-0.11
0.56,0.67,-0.07
0.62,0.7,-0.04
0.64,0.66,-0.02
0.63,0.69,-0.03
0.68,0.72,-0.05
0.7,0.7,-0.02
0.71,0.67,0.02
0.73,0.69,0.02
0.78,0.72,0.05
0.81,0.71,0.06
0.95,0.83,0.17
0.93,0.79,0.18
0.82,0.62,0.07
0.86,0.68,0.11
0.84,0.69,0.12
0.82,0.65,0.16
0.73,0.63,0.21
0.69,0.6,0.23
0.68,0.6,0.28
0.7,0.65,0.28
0.66,0.68,0.26
0.69,0.69,0.3
0.76,0.72,0.29
0.76,0.72,0.33
0.83,0.74,0.39
0.85,0.74,0.41
0.81,0.68,0.49
0.68,0.66,0.47
0.65,0.72,0.43
0.69,0.72,0.43
0.59,0.7,0.39
0.54,0.63,0.4
0.55,0.57,0.42
0.65,0.6,0.44
0.68,0.59,0.45
0.68,0.54,0.47
0.7,0.52,0.49
0.65,0.5,0.45
0.7,0.51,0.49
0.8,0.58,0.6
0.67,0.67,0.69
0.58,0.63,0.78
0.61,0.55,0.77
0.6,0.59,0.7
0.62,0.59,0.65
0.63,0.56,0.63
0.63,0.56,0.62
0.63,0.56,0.63
0.64,0.54,0.67
0.64,0.53,0.7
0.62,0.52,0.72
0.61,0.52,0.72
0.61,0.52,0.72
0.62,0.51,0.69
0.63,0.52,0.67
0.65,0.52,0.67
0.64,0.51,0.65
0.65,0.51,0.64
0.65,0.52,0.63
0.64,0.51,0.59
0.64,0.49,0.57
0.66,0.5,0.55
0.68,0.5,0.55
0.63,0.48,0.54
0.68,0.53,0.35
0.76,0.55,0.3
0.66,0.47,0.32
0.6,0.48,0.23
0.66,0.55,0.36
0.61,0.48,0.47
0.61,0.51,0.37
0.55,0.53,0.32
0.51,0.5,0.29
0.49,0.48,0.18
0.45,0.46,0.18
0.61,0.49,0.33
0.75,0.54,0.29
0.85,0.57,0.15
0.93,0.55,0.12
1.01,0.53,0.11
1,0.52,0.08
0.94,0.52,0.1
0.91,0.52,0.12
0.86,0.52,0.12
0.82,0.52,0.13
0.78,0.53,0.14
0.77,0.52,0.14
0.77,0.52,0.14
0.78,0.51,0.13
0.79,0.51,0.14
0.8,0.52,0.13
0.79,0.51,0.13
0.79,0.5,0.15
0.79,0.5,0.16
0.8,0.51,0.17
0.82,0.51,0.18
0.84,0.51,0.19
0.85,0.51,0.21
0.85,0.52,0.22
0.88,0.52,0.22
0.91,0.52,0.21
0.92,0.52,0.2
0.92,0.53,0.19
0.91,0.54,0.18
0.9,0.56,0.16
0.9,0.57,0.15
0.89,0.59,0.12
0.87,0.6,0.12
0.86,0.6,0.11
0.85,0.61,0.09
0.86,0.61,0.08
0.87,0.6,0.07
0.88,0.59,0.06
0.88,0.59,0.07
0.88,0.58,0.09
0.86,0.57,0.1
0.85,0.56,0.12
0.83,0.56,0.14
0.82,0.55,0.17
0.81,0.55,0.18
0.8,0.55,0.19
0.8,0.56,0.19
0.8,0.57,0.19
0.81,0.58,0.19
0.82,0.59,0.19
0.85,0.6,0.19
0.88,0.6,0.18
0.88,0.61,0.18
0.9,0.63,0.17
0.91,0.65,0.16
0.9,0.65,0.17
0.9,0.7,0.14
0.93,0.72,0.15
0.92,0.69,0.15
0.93,0.7,0.18
0.93,0.71,0.18
0.89,0.68,0.19
0.88,0.7,0.19
0.85,0.7,0.18
0.87,0.69,0.21
0.9,0.71,0.21
0.86,0.69,0.2
0.81,0.68,0.23
0.83,0.69,0.2
0.89,0.71,0.19
0.86,0.68,0.19
0.77,0.66,0.18
0.74,0.68,0.16
0.77,0.69,0.13
0.76,0.67,0.16
0.76,0.68,0.11
0.7,0.69,0.14
0.72,0.69,0.19
0.73,0.66,0.19
0.68,0.66,0.17
0.68,0.7,0.15
0.66,0.68,0.21
0.61,0.67,0.18
0.62,0.69,0.14
0.68,0.67,0.16
0.57,0.67,0.16
0.62,0.71,0.15
0.59,0.68,0.14
0.55,0.68,0.13
0.56,0.72,0.11
0.58,0.71,0.08
0.55,0.69,0.08
0.53,0.7,0.09
0.53,0.71,0.1
0.52,0.7,0.14
0.51,0.71,0.16
0.5,0.72,0.16
0.47,0.72,0.16
0.44,0.73,0.15
0.42,0.74,0.15
0.41,0.74,0.15
0.43,0.75,0.15
0.45,0.75,0.16
0.47,0.75,0.15
0.48,0.75,0.14
0.47,0.76,0.14
0.46,0.77,0.13
0.45,0.78,0.1
0.42,0.77,0.06
0.4,0.79,0.05
0.38,0.79,0.04
0.36,0.78,0.04
0.36,0.78,0.07
0.37,0.8,0.08
0.38,0.79,0.1
0.38,0.79,0.15
0.37,0.8,0.17
0.37,0.8,0.17
0.39,0.8,0.17
0.4,0.8,0.16
0.41,0.79,0.14
0.44,0.8,0.11
0.46,0.78,0.07
0.48,0.76,0.07
0.51,0.76,0.09
0.53,0.77,0.09
0.53,0.76,0.1
0.52,0.76,0.13
0.52,0.76,0.15
0.5,0.76,0.16
0.42,0.71,0.11
0.45,0.72,0.11
0.51,0.79,0.16
0.5,0.8,0.14
0.55,0.81,0.12
0.57,0.81,0.15
0.57,0.77,0.14
0.63,0.83,0.2
0.62,0.85,0.2
0.58,0.79,0.18
0.55,0.76,0.18
0.57,0.77,0.22
0.59,0.79,0.25
0.52,0.75,0.25
0.53,0.74,0.29
0.56,0.76,0.29
0.56,0.76,0.25
0.62,0.79,0.25
0.62,0.8,0.29
0.53,0.77,0.3
0.53,0.77,0.34
0.5,0.73,0.37
0.51,0.7,0.37
0.52,0.72,0.35
0.43,0.75,0.35
0.4,0.74,0.41
0.44,0.73,0.42
0.46,0.75,0.37
0.49,0.71,0.33
0.56,0.73,0.38
0.48,0.7,0.4
0.5,0.68,0.4
0.56,0.71,0.48
0.48,0.66,0.5
0.54,0.63,0.5
0.62,0.62,0.56
0.59,0.62,0.58
0.53,0.62,0.59
0.47,0.57,0.67
0.47,0.59,0.69
0.5,0.59,0.66
0.48,0.58,0.63
0.51,0.6,0.61
0.53,0.59,0.64
0.53,0.57,0.67
0.54,0.59,0.72
0.43,0.57,0.77
0.38,0.54,0.74
0.44,0.56,0.69
0.47,0.54,0.66
0.5,0.51,0.64
0.53,0.51,0.6
0.59,0.49,0.6
0.64,0.46,0.65
0.64,0.47,0.75
0.61,0.48,0.81
0.56,0.49,0.84
0.55,0.5,0.84
0.52,0.5,0.79
0.47,0.5,0.8
0.48,0.49,0.83
0.47,0.47,0.85
0.51,0.5,0.84
0.52,0.49,0.84
0.51,0.46,0.89
0.53,0.46,0.92
0.53,0.46,0.95
0.51,0.45,0.98
0.52,0.45,0.98
0.56,0.44,0.96
0.58,0.42,0.93
0.59,0.41,0.93
0.6,0.39,0.91
0.61,0.37,0.88
0.61,0.36,0.88
0.6,0.36,0.86
0.6,0.35,0.86
0.58,0.37,0.88
0.58,0.38,0.87
0.61,0.36,0.84
0.61,0.36,0.84
0.63,0.37,0.81
0.65,0.38,0.79
0.68,0.39,0.79
0.69,0.39,0.8
0.69,0.39,0.81
0.71,0.4,0.8
0.71,0.42,0.78
0.68,0.43,0.78
0.68,0.45,0.72
0.69,0.46,0.67
0.68,0.44,0.71
0.65,0.42,0.74
0.74,0.46,0.61
0.82,0.51,0.55
0.78,0.48,0.62
0.72,0.49,0.57
0.72,0.51,0.58
0.8,0.52,0.57
0.79,0.54,0.51
0.72,0.52,0.49
0.74,0.54,0.49
0.74,0.54,0.47
0.68,0.54,0.43
0.63,0.54,0.41
0.67,0.55,0.47
0.66,0.55,0.42
0.69,0.58,0.34
0.7,0.61,0.37
0.72,0.63,0.35
0.78,0.63,0.38
0.67,0.61,0.34
0.68,0.63,0.35
0.65,0.65,0.36
0.63,0.64,0.38
0.62,0.64,0.27
0.6,0.64,0.16
0.61,0.64,0.17
0.65,0.68,0.32
0.5,0.63,0.31
0.49,0.63,0.17
0.6,0.68,0.16
0.59,0.66,0.13
0.64,0.68,0.17
0.55,0.68,0.19
0.57,0.67,0.11
0.7,0.7,0.08
0.67,0.71,0.06
0.65,0.72,0.05
0.59,0.69,0.13
0.54,0.69,0.15
0.44,0.7,0.1
0.49,0.72,0.07
0.56,0.75,0.07
0.57,0.75,0.09
0.59,0.75,0.09
0.53,0.73,0.07
0.58,0.77,0.08
0.56,0.75,0.12
0.52,0.76,0.13
0.5,0.77,0.09
0.5,0.76,0.05
0.47,0.76,0.04
0.44,0.76,0.04
0.42,0.77,0.04
0.41,0.78,0.06
0.4,0.78,0.09
0.4,0.78,0.1
0.42,0.78,0.1
0.45,0.78,0.09
0.47,0.79,0.1
0.47,0.8,0.08
0.45,0.81,0.05
0.47,0.82,0.02
0.49,0.85,0.01
0.44,0.82,0.04
0.4,0.78,0.07
0.43,0.8,0.07
0.39,0.78,0.06
0.37,0.78,0.06
0.43,0.79,0.03
0.42,0.77,0.05
0.37,0.77,0.11
0.45,0.79,0.12
0.53,0.85,0.12
0.5,0.87,0.14
0.41,0.77,0.18
0.45,0.81,0.17
0.48,0.85,0.15
0.45,0.86,0.19
0.45,0.83,0.23
0.42,0.83,0.2
0.41,0.85,0.23
0.46,0.85,0.32
0.44,0.86,0.38
0.49,0.81,0.36
0.47,0.8,0.32
0.37,0.8,0.36
0.34,0.82,0.37
0.34,0.84,0.38
0.46,0.83,0.42
0.49,0.82,0.41
0.41,0.82,0.43
0.41,0.79,0.47
0.4,0.76,0.5
0.33,0.75,0.51
0.24,0.74,0.52
0.29,0.77,0.57
0.37,0.77,0.59
0.31,0.8,0.57
0.35,0.77,0.58
0.29,0.76,0.57
0.33,0.79,0.54
0.35,0.76,0.52
0.34,0.75,0.56
0.37,0.76,0.59
0.34,0.75,0.59
0.31,0.75,0.57
0.32,0.75,0.54
0.32,0.72,0.53
0.36,0.75,0.53
0.36,0.78,0.52
0.29,0.72,0.56
0.26,0.69,0.63
0.29,0.71,0.64
0.31,0.71,0.62
0.31,0.69,0.61
0.34,0.68,0.62
0.36,0.66,0.62
0.35,0.64,0.61
0.35,0.62,0.61
0.36,0.61,0.63
0.36,0.61,0.66
0.34,0.6,0.68
0.31,0.59,0.68
0.32,0.58,0.68
0.36,0.59,0.67
0.42,0.6,0.65
0.48,0.61,0.63
0.53,0.61,0.63
0.55,0.61,0.65
0.54,0.59,0.71
0.5,0.6,0.81
0.45,0.61,0.91
0.4,0.62,0.98
0.36,0.63,1.01
0.35,0.63,1.01
0.35,0.63,0.99
0.36,0.62,0.95
0.4,0.61,0.95
0.45,0.6,0.9
0.46,0.57,0.86
0.45,0.54,0.86
0.48,0.54,0.87
0.51,0.53,0.87
0.49,0.5,0.87
0.48,0.48,0.86
0.51,0.48,0.84
0.56,0.49,0.79
0.58,0.49,0.79
0.6,0.46,0.76
0.63,0.43,0.71
0.6,0.43,0.69
0.64,0.45,0.67
0.66,0.47,0.71
0.63,0.49,0.73
0.59,0.51,0.73
0.6,0.54,0.72
0.64,0.56,0.62
0.54,0.53,0.72
0.52,0.51,0.77
0.66,0.55,0.64
0.75,0.58,0.59
0.84,0.58,0.52
0.81,0.55,0.48
0.72,0.52,0.5
0.79,0.54,0.5
0.83,0.55,0.52
0.79,0.52,0.46
0.79,0.53,0.38
0.79,0.56,0.44
0.76,0.57,0.47
0.63,0.54,0.38
0.57,0.53,0.33
0.64,0.57,0.31
0.76,0.64,0.32
0.75,0.62,0.32
0.78,0.68,0.24
0.73,0.68,0.28
0.68,0.65,0.32
0.65,0.63,0.31
0.65,0.66,0.25
0.73,0.67,0.18
0.78,0.66,0.19
0.8,0.69,0.13
0.77,0.67,0.15
0.79,0.69,0.13
0.86,0.74,0.1
0.82,0.72,0.13
0.66,0.67,0.19
0.62,0.67,0.16
0.72,0.72,0.06
0.76,0.73,0.01
0.71,0.73,0.03
0.61,0.68,0.12
0.62,0.72,0.12
0.67,0.75,0.09
0.62,0.71,0.11
0.59,0.72,0.09
0.58,0.74,0.05
0.57,0.73,0.05
0.56,0.73,0.06
0.56,0.73,0.07
0.54,0.74,0.09
0.49,0.74,0.11
0.48,0.74,0.12
0.47,0.74,0.12
0.48,0.74,0.12
0.49,0.74,0.14
0.5,0.74,0.16
0.5,0.75,0.16
0.49,0.76,0.14
0.51,0.76,0.12
0.53,0.77,0.12
0.52,0.76,0.12
0.51,0.76,0.11
0.5,0.78,0.1
0.46,0.77,0.09
0.44,0.79,0.09
0.42,0.8,0.09
0.4,0.8,0.11
0.43,0.81,0.1
0.43,0.78,0.09
0.42,0.77,0.11
0.43,0.78,0.13
0.42,0.76,0.11
0.41,0.76,0.11
0.43,0.79,0.12
0.43,0.79,0.07
0.5,0.86,0.18
0.43,0.77,0.15
0.53,0.82,0.17
0.55,0.78,0.21
0.48,0.72,0.24
0.49,0.74,0.24
0.55,0.81,0.17
0.5,0.76,0.11
0.54,0.76,0.14
0.61,0.79,0.2
0.52,0.75,0.24
0.48,0.77,0.22
0.51,0.76,0.19
0.48,0.77,0.2
0.53,0.79,0.29
0.61,0.78,0.32
0.52,0.79,0.37
0.5,0.85,0.44
0.54,0.86,0.4
0.44,0.81,0.35
0.4,0.81,0.28
0.37,0.78,0.3
0.4,0.77,0.38
0.43,0.79,0.44
0.37,0.78,0.49
0.35,0.77,0.56
0.33,0.75,0.66
0.37,0.76,0.69
0.41,0.79,0.69
0.51,0.81,0.67
0.57,0.83,0.66
0.46,0.81,0.65
0.38,0.76,0.63
0.34,0.75,0.62
0.31,0.76,0.63
0.29,0.75,0.65
0.28,0.75,0.65
0.3,0.75,0.61
0.3,0.72,0.6
0.32,0.73,0.59
0.32,0.73,0.57
0.31,0.72,0.56
0.31,0.69,0.61
0.31,0.67,0.65
0.29,0.67,0.66
0.28,0.67,0.69
0.27,0.65,0.71
0.26,0.67,0.71
0.27,0.66,0.72
0.31,0.66,0.71
0.31,0.66,0.67
0.3,0.64,0.64
0.31,0.62,0.67
0.33,0.6,0.71
0.33,0.61,0.73
0.32,0.59,0.74
0.32,0.57,0.75
0.34,0.61,0.76
0.36,0.62,0.74
0.36,0.6,0.74
0.36,0.57,0.75
0.37,0.56,0.77
0.38,0.55,0.79
0.4,0.54,0.81
0.42,0.55,0.84
0.44,0.56,0.85
0.46,0.56,0.85
0.49,0.57,0.83
0.51,0.57,0.81
0.5,0.55,0.82
0.46,0.54,0.85
0.4,0.53,0.89
0.34,0.52,0.94
0.28,0.51,0.97
0.27,0.52,0.96
0.3,0.51,0.9
0.36,0.51,0.85
0.41,0.52,0.81
0.49,0.53,0.66
0.61,0.53,0.6
0.61,0.5,0.67
0.61,0.54,0.66
0.51,0.56,0.62
0.48,0.54,0.61
0.57,0.55,0.59
0.58,0.55,0.57
0.62,0.55,0.52
0.69,0.55,0.58
0.75,0.55,0.57
0.73,0.56,0.48
0.64,0.54,0.56
0.64,0.55,0.55
0.74,0.56,0.5
0.77,0.59,0.56
0.78,0.62,0.52
0.8,0.58,0.46
0.75,0.54,0.48
0.7,0.56,0.45
0.71,0.59,0.32
0.72,0.58,0.33
0.76,0.61,0.37
0.81,0.65,0.29
0.83,0.64,0.27
0.83,0.62,0.28
0.68,0.56,0.31
0.75,0.65,0.32
0.77,0.63,0.23
0.72,0.62,0.21
0.66,0.61,0.25
0.74,0.63,0.17
0.82,0.68,0.13
0.8,0.68,0.16
0.75,0.65,0.19
0.72,0.66,0.25
0.78,0.7,0.27
0.8,0.7,0.2
0.74,0.66,0.16
0.71,0.65,0.15
0.74,0.67,0.14
0.73,0.66,0.15
0.69,0.66,0.16
0.65,0.68,0.16
0.63,0.69,0.16
0.62,0.69,0.17
0.61,0.71,0.17
0.6,0.71,0.16
0.62,0.72,0.16
0.62,0.71,0.16
0.62,0.71,0.17
0.6,0.72,0.22
0.57,0.73,0.26
0.55,0.73,0.28
0.54,0.73,0.28
0.53,0.73,0.28
0.53,0.73,0.27
0.53,0.73,0.28
0.54,0.74,0.29
0.56,0.75,0.28
0.57,0.75,0.26
0.56,0.75,0.26
0.56,0.78,0.26
0.53,0.77,0.25
0.41,0.8,0.24
0.36,0.87,0.22
0.46,0.92,0.22
0.43,0.93,0.27
0.25,0.83,0.36
0.15,0.79,0.38
0.15,0.78,0.33
0.17,0.78,0.34
0.3,0.79,0.36
0.29,0.8,0.38
0.25,0.79,0.44
0.31,0.76,0.48
0.26,0.74,0.44
0.19,0.74,0.4
0.12,0.73,0.41
0.15,0.78,0.45
0.21,0.75,0.42
0.2,0.75,0.45
0.27,0.77,0.47
0.24,0.77,0.46
0.24,0.78,0.45
0.26,0.78,0.43
0.15,0.77,0.45
0.12,0.76,0.47
0.25,0.77,0.46
0.2,0.76,0.47
0.18,0.77,0.49
0.29,0.81,0.51
0.26,0.81,0.53
0.19,0.81,0.51
0.22,0.83,0.49
0.13,0.8,0.47
0.05,0.77,0.45
0.11,0.77,0.46
0.15,0.78,0.49
0.18,0.77,0.53
0.21,0.78,0.55
0.25,0.81,0.56
0.28,0.83,0.57
0.28,0.84,0.59
0.27,0.86,0.59
0.25,0.85,0.53
0.17,0.83,0.53
0.16,0.82,0.53
0.12,0.81,0.53
0.13,0.8,0.56
0.16,0.8,0.58
0.18,0.81,0.61
0.19,0.82,0.61
0.19,0.82,0.61
0.21,0.82,0.6
0.22,0.83,0.6
0.23,0.83,0.59
0.24,0.82,0.6
0.22,0.8,0.62
0.19,0.79,0.63
0.2,0.81,0.65
0.22,0.81,0.66
0.2,0.8,0.65
0.19,0.78,0.63
0.19,0.76,0.61
0.2,0.75,0.59
0.21,0.73,0.56
0.21,0.71,0.55
0.23,0.69,0.56
0.23,0.68,0.58
0.24,0.68,0.6
0.24,0.68,0.66
0.22,0.69,0.65
0.21,0.68,0.64
0.21,0.67,0.66
0.22,0.67,0.67
0.25,0.66,0.69
0.29,0.67,0.7
0.29,0.67,0.71
0.28,0.67,0.72
0.28,0.68,0.73
0.26,0.68,0.76
0.21,0.67,0.79
0.18,0.67,0.83
0.14,0.67,0.84
0.13,0.67,0.82
0.17,0.67,0.79
0.19,0.66,0.76
0.22,0.65,0.73
0.26,0.66,0.73
0.3,0.64,0.71
0.32,0.62,0.68
0.33,0.63,0.7
0.33,0.63,0.73
0.32,0.61,0.76
0.32,0.6,0.78
0.32,0.61,0.8
0.32,0.61,0.86
0.31,0.62,0.87
0.3,0.62,0.87
0.3,0.62,0.85
0.31,0.61,0.81
0.32,0.61,0.78
0.32,0.6,0.74
0.31,0.6,0.75
0.33,0.6,0.72
0.38,0.61,0.67
0.41,0.61,0.63
0.44,0.63,0.6
0.48,0.63,0.59
0.47,0.6,0.62
0.51,0.6,0.6
0.59,0.66,0.56
0.55,0.64,0.63
0.46,0.58,0.68
0.47,0.6,0.73
0.6,0.65,0.75
0.59,0.64,0.73
0.56,0.6,0.58
0.6,0.63,0.55
0.57,0.62,0.64
0.55,0.59,0.54
0.56,0.61,0.49
0.57,0.58,0.66
0.54,0.57,0.66
0.46,0.57,0.69
0.55,0.63,0.69
0.67,0.62,0.57
0.64,0.61,0.55
0.75,0.67,0.57
0.82,0.67,0.51
0.79,0.63,0.48
0.82,0.65,0.51
0.8,0.62,0.46
0.73,0.57,0.41
0.76,0.59,0.43
0.79,0.63,0.43
0.77,0.62,0.42
0.74,0.61,0.46
0.76,0.64,0.34
0.81,0.68,0.28
0.75,0.66,0.38
0.63,0.62,0.45
0.54,0.6,0.51
0.68,0.62,0.36
0.79,0.65,0.27
0.71,0.63,0.3
0.74,0.65,0.25
0.76,0.67,0.34
0.75,0.72,0.08
0.77,0.64,0.28
0.8,0.67,0.25
0.71,0.64,0.21
0.64,0.63,0.22
0.72,0.68,0.18
0.69,0.66,0.15
0.67,0.66,0.17
0.75,0.7,0.14
0.8,0.72,0.12
0.75,0.72,0.14
0.65,0.7,0.18
0.6,0.71,0.23
0.63,0.72,0.22
0.68,0.73,0.14
0.66,0.73,0.09
0.62,0.74,0.12
0.64,0.74,0.16
0.69,0.75,0.16
0.73,0.75,0.16
0.61,0.7,0.12
0.6,0.7,0.1
0.7,0.75,0.11
0.64,0.72,0.16
0.6,0.74,0.16
0.63,0.78,0.09
0.64,0.77,0.06
0.58,0.76,0.04
0.56,0.77,0.04
0.53,0.77,0.08
0.52,0.79,0.11
0.49,0.79,0.12
0.47,0.79,0.12
0.47,0.79,0.11
0.47,0.79,0.09
0.47,0.78,0.1
0.46,0.78,0.11
0.45,0.76,0.12
0.44,0.76,0.12
0.42,0.75,0.1
0.41,0.76,0.06
0.4,0.77,0.02
0.37,0.78,-0.01
0.35,0.79,-0.01
0.34,0.79,-0.01
0.37,0.81,0.01
0.37,0.81,0.03
0.36,0.8,0.04
0.34,0.79,0.05
0.34,0.8,0.06
0.37,0.82,0.02
0.37,0.83,0.01
0.39,0.88,0.04
0.36,0.8,0.02
0.37,0.82,0
0.41,0.85,0.02
0.42,0.86,0.02
0.34,0.79,0.04
0.29,0.75,0.06
0.3,0.74,0.02
0.38,0.78,0.06
0.42,0.8,0.09
0.42,0.81,0.06
0.5,0.83,0.08
0.58,0.8,0.07
0.55,0.81,0.06
0.54,0.83,0.1
0.58,0.81,0.15
0.55,0.79,0.18
0.55,0.79,0.19
0.56,0.8,0.2
0.44,0.79,0.21
0.37,0.77,0.23
0.38,0.77,0.24
0.47,0.79,0.28
0.55,0.8,0.28
0.59,0.79,0.25
0.63,0.78,0.22
0.58,0.78,0.2
0.56,0.82,0.28
0.59,0.8,0.32
0.54,0.8,0.28
0.45,0.85,0.27
0.41,0.83,0.32
0.42,0.78,0.39
0.49,0.77,0.44
0.54,0.77,0.46
0.57,0.78,0.48
0.58,0.81,0.54
0.58,0.8,0.56
0.56,0.81,0.5
0.48,0.8,0.46
0.4,0.77,0.44
0.39,0.77,0.42
0.4,0.75,0.43
0.39,0.71,0.51
0.41,0.72,0.59
0.47,0.74,0.63
0.54,0.78,0.63
0.48,0.77,0.63
0.4,0.72,0.63
0.45,0.77,0.56
0.49,0.8,0.49
0.44,0.76,0.42
0.38,0.69,0.45
0.42,0.69,0.67
0.45,0.67,0.73
0.43,0.64,0.77
0.45,0.65,0.75
0.47,0.66,0.69
0.46,0.65,0.63
0.43,0.61,0.59
0.45,0.6,0.59
0.49,0.59,0.61
0.49,0.54,0.68
0.47,0.54,0.77
0.43,0.55,0.79
0.41,0.53,0.8
0.41,0.52,0.81
0.44,0.53,0.8
0.47,0.53,0.78
0.46,0.51,0.71
0.47,0.49,0.72
0.48,0.48,0.75
0.45,0.47,0.75
0.43,0.45,0.77
0.41,0.45,0.79
0.39,0.45,0.81
0.39,0.47,0.81
0.4,0.48,0.81
0.42,0.49,0.79
0.45,0.49,0.75
0.52,0.49,0.75
0.56,0.49,0.74
0.61,0.49,0.73
0.65,0.5,0.74
0.68,0.5,0.72
0.71,0.51,0.69
0.71,0.51,0.71
0.67,0.51,0.73
0.62,0.51,0.73
0.59,0.52,0.74
0.61,0.52,0.76
0.64,0.5,0.76
0.6,0.48,0.75
0.57,0.47,0.68
0.61,0.45,0.59
0.6,0.44,0.59
0.64,0.49,0.62
0.7,0.47,0.61
0.71,0.48,0.56
0.72,0.51,0.55
0.76,0.51,0.54
0.83,0.53,0.45
0.86,0.52,0.47
0.85,0.52,0.49
0.85,0.53,0.48
0.87,0.53,0.51
0.91,0.5,0.49
0.88,0.5,0.41
0.99,0.52,0.29
0.93,0.51,0.3
0.9,0.51,0.32
0.9,0.51,0.31
0.79,0.49,0.34
0.7,0.5,0.36
0.75,0.54,0.39
0.82,0.57,0.37
0.88,0.59,0.32
0.82,0.57,0.33
0.73,0.52,0.45
0.77,0.56,0.42
0.84,0.59,0.27
0.88,0.58,0.27
0.77,0.55,0.26
0.68,0.56,0.25
0.77,0.59,0.3
0.88,0.61,0.3
0.8,0.58,0.21
0.75,0.58,0.18
0.8,0.6,0.22
0.79,0.61,0.21
0.77,0.64,0.14
0.76,0.65,0.14
0.68,0.66,0.18
0.62,0.67,0.14
0.65,0.68,0.05
0.67,0.68,0.03
0.65,0.68,-0.02
0.67,0.7,0
0.71,0.72,0.04
0.65,0.71,0.05
0.65,0.71,0.07
0.66,0.71,0.08
0.63,0.7,0.11
0.61,0.71,0.15
0.6,0.71,0.16
0.58,0.71,0.15
0.58,0.7,0.15
0.58,0.7,0.17
0.56,0.71,0.19
0.53,0.72,0.22
0.5,0.72,0.24
0.48,0.72,0.24
0.49,0.73,0.22
0.5,0.72,0.21
0.48,0.73,0.22
0.51,0.75,0.2
0.53,0.73,0.15
0.57,0.75,0.09
0.58,0.73,0.1
0.56,0.76,0.11
0.5,0.8,0.13
0.5,0.84,0.15
0.46,0.79,0.16
0.34,0.73,0.17
0.33,0.78,0.19
0.39,0.77,0.22
0.43,0.79,0.14
0.38,0.81,0.06
0.36,0.8,0.15
0.44,0.82,0.24
0.37,0.82,0.21
0.29,0.89,0.22
0.31,0.87,0.19
0.38,0.81,0.22
0.31,0.8,0.25
0.26,0.83,0.23
0.26,0.86,0.22
0.29,0.88,0.24
0.33,0.86,0.31
0.23,0.84,0.34
0.16,0.86,0.37
0.16,0.86,0.37
0.21,0.85,0.37
0.21,0.84,0.45
0.35,0.83,0.43
0.26,0.84,0.43
0.25,0.84,0.43
0.21,0.84,0.44
0.17,0.81,0.44
0.19,0.82,0.43
0.18,0.83,0.46
0.18,0.77,0.52
0.21,0.77,0.55
0.3,0.81,0.55
0.3,0.81,0.58
0.28,0.79,0.59
0.32,0.79,0.59
0.31,0.8,0.56
0.29,0.81,0.54
0.26,0.8,0.53
0.22,0.76,0.53
0.18,0.74,0.54
0.19,0.75,0.56
0.23,0.76,0.58
0.27,0.76,0.59
0.3,0.76,0.61
0.32,0.77,0.62
0.34,0.77,0.62
0.33,0.77,0.63
0.29,0.76,0.64
0.23,0.74,0.64
0.2,0.71,0.62
0.18,0.68,0.63
0.19,0.67,0.64
0.22,0.66,0.64
0.27,0.65,0.62
0.33,0.65,0.6
0.37,0.65,0.59
0.38,0.64,0.57
0.38,0.63,0.59
0.33,0.63,0.64
0.28,0.62,0.69
0.28,0.62,0.73
0.31,0.63,0.76
0.36,0.65,0.76
0.42,0.66,0.76
0.46,0.67,0.74
0.48,0.67,0.73
0.48,0.66,0.74
0.45,0.65,0.77
0.44,0.65,0.8
0.43,0.64,0.82
0.42,0.64,0.86
0.42,0.65,0.89
0.4,0.64,0.89
0.37,0.63,0.86
0.38,0.59,0.81
0.4,0.57,0.77
0.41,0.56,0.75
0.41,0.54,0.74
0.41,0.52,0.75
0.42,0.5,0.75
0.43,0.49,0.75
0.45,0.48,0.74
0.48,0.48,0.73
0.51,0.48,0.71
0.54,0.47,0.7
0.55,0.47,0.7
0.57,0.47,0.68
0.6,0.47,0.67
0.61,0.48,0.67
0.63,0.51,0.65
0.64,0.52,0.64
0.6,0.5,0.65
0.61,0.52,0.68
0.66,0.57,0.68
0.71,0.59,0.62
0.65,0.54,0.66
0.57,0.52,0.71
0.57,0.54,0.69
0.63,0.55,0.69
0.74,0.57,0.66
0.69,0.51,0.71
0.69,0.55,0.66
0.72,0.54,0.51
0.73,0.51,0.53
0.69,0.52,0.59
0.7,0.56,0.56
0.68,0.54,0.44
0.72,0.51,0.36
0.81,0.54,0.39
0.8,0.55,0.41
0.82,0.54,0.4
0.73,0.52,0.35
0.73,0.54,0.32
0.83,0.58,0.37
0.79,0.58,0.34
0.81,0.61,0.29
0.82,0.61,0.28
0.8,0.58,0.34
0.82,0.6,0.42
0.74,0.59,0.4
0.74,0.56,0.37
0.83,0.61,0.3
0.89,0.66,0.27
0.84,0.63,0.25
0.67,0.57,0.19
0.7,0.6,0.17
0.82,0.65,0.19
0.85,0.67,0.21
0.84,0.66,0.19
0.82,0.66,0.17
0.75,0.65,0.21
0.77,0.65,0.22
0.82,0.67,0.16
0.72,0.63,0.1
0.67,0.64,0.06
0.72,0.69,0.04
0.72,0.68,0.04
0.68,0.68,0.08
0.69,0.71,0.11
0.68,0.69,0.07
0.63,0.69,0.04
0.64,0.71,0.05
0.61,0.7,0.06
0.57,0.69,0.05
0.52,0.68,0.02
0.54,0.68,0.05
0.58,0.69,-0.01
0.63,0.67,-0.08
0.67,0.69,-0.06
0.63,0.7,0
0.63,0.69,0.04
0.64,0.69,0.06
0.64,0.67,0.02
0.6,0.68,-0.01
0.56,0.69,-0.03
0.51,0.68,-0.03
0.46,0.69,-0.03
0.47,0.72,-0.03
0.49,0.76,0.01
0.52,0.77,0.03
0.53,0.75,0.02
0.54,0.75,0.01
0.55,0.75,0.03
0.54,0.75,0.03
0.53,0.76,0.01
0.55,0.79,-0.01
0.57,0.81,-0.06
0.54,0.79,-0.04
0.48,0.76,0
0.49,0.77,0.04
0.51,0.77,0.06
0.52,0.76,0.09
0.46,0.73,0.12
0.5,0.75,0.11
0.57,0.79,0.1
0.54,0.76,0.1
0.52,0.75,0.09
0.52,0.82,0.07
0.62,0.85,0.15
0.53,0.77,0.16
0.54,0.76,0.22
0.53,0.79,0.23
0.5,0.78,0.24
0.54,0.79,0.24
0.62,0.78,0.22
0.56,0.74,0.27
0.5,0.74,0.33
0.5,0.74,0.33
0.45,0.74,0.34
0.46,0.76,0.37
0.44,0.75,0.42
0.43,0.77,0.47
0.42,0.74,0.49
0.42,0.69,0.53
0.44,0.7,0.55
0.48,0.74,0.54
0.51,0.74,0.52
0.43,0.73,0.51
0.39,0.74,0.52
0.37,0.72,0.57
0.32,0.68,0.62
0.34,0.68,0.65
0.38,0.73,0.66
0.37,0.7,0.64
0.37,0.68,0.55
0.47,0.65,0.52
0.5,0.64,0.49
0.5,0.61,0.46
0.5,0.59,0.44
0.49,0.58,0.45
0.48,0.58,0.51
0.46,0.61,0.55
0.45,0.64,0.57
0.44,0.65,0.59
0.47,0.67,0.59
0.5,0.67,0.58
0.51,0.66,0.59
0.51,0.64,0.62
0.52,0.64,0.67
0.51,0.64,0.75
0.5,0.63,0.82
0.48,0.63,0.84
0.47,0.64,0.82
0.47,0.63,0.8
0.47,0.62,0.77
0.48,0.6,0.74
0.49,0.57,0.73
0.48,0.54,0.73
0.48,0.53,0.78
0.46,0.52,0.83
0.41,0.51,0.84
0.42,0.49,0.85
0.44,0.5,0.83
0.47,0.49,0.8
0.5,0.47,0.76
0.55,0.46,0.74
0.6,0.45,0.72
0.61,0.43,0.73
0.61,0.43,0.75
0.59,0.44,0.73
0.62,0.45,0.72
0.66,0.44,0.73
0.65,0.42,0.71
0.65,0.41,0.71
0.64,0.41,0.72
0.61,0.42,0.74
0.58,0.43,0.77
0.57,0.5,0.93
0.58,0.51,0.94
0.59,0.46,0.8
0.59,0.47,0.76
0.6,0.5,0.72
0.66,0.5,0.7
0.69,0.47,0.71
0.7,0.46,0.65
0.73,0.45,0.66
0.77,0.47,0.53
0.82,0.46,0.55
0.79,0.45,0.63
0.86,0.5,0.56
0.87,0.48,0.55
0.82,0.47,0.62
0.78,0.48,0.62
0.71,0.41,0.55
0.77,0.45,0.53
0.83,0.51,0.59
0.74,0.49,0.5
0.75,0.51,0.47
0.69,0.51,0.5
0.65,0.5,0.45
0.79,0.55,0.48
0.79,0.52,0.52
0.8,0.51,0.4
0.77,0.53,0.41
0.81,0.54,0.47
0.92,0.56,0.39
0.82,0.58,0.33
0.74,0.55,0.36
0.8,0.54,0.35
0.84,0.57,0.23
0.82,0.61,0.29
0.74,0.59,0.26
0.7,0.56,0.11
0.82,0.63,0.09
0.7,0.62,0.14
0.74,0.63,0.15
0.6,0.59,0.07
0.59,0.59,0.08
0.8,0.67,0.11
0.82,0.66,0.02
0.8,0.66,0
0.77,0.66,0.02
0.75,0.66,0.01
0.72,0.65,0.01
0.69,0.64,0.02
0.69,0.64,0
0.69,0.64,-0.03
0.69,0.65,-0.02
0.69,0.65,-0.02
0.63,0.64,-0.02
0.55,0.63,0.03
0.5,0.64,0.11
0.46,0.66,0.17
0.4,0.63,0.21
0.4,0.65,0.25
0.46,0.66,0.23
0.59,0.78,0.21
0.61,0.79,0.21
0.5,0.64,0.13
0.57,0.71,0.23
0.48,0.74,0.22
0.43,0.79,0.22
0.46,0.75,0.38
0.43,0.7,0.39
0.45,0.68,0.36
0.51,0.7,0.33
0.55,0.75,0.35
0.57,0.75,0.42
0.5,0.73,0.41
0.52,0.75,0.46
0.48,0.76,0.49
0.33,0.74,0.45
0.33,0.76,0.36
0.43,0.77,0.31
0.43,0.74,0.39
0.38,0.72,0.49
0.37,0.73,0.44
0.38,0.74,0.38
0.45,0.75,0.42
0.43,0.77,0.47
0.38,0.78,0.46
0.46,0.77,0.46
0.48,0.78,0.48
0.4,0.77,0.5
0.39,0.76,0.48
0.46,0.8,0.47
0.51,0.81,0.47
0.46,0.78,0.48
0.46,0.75,0.49
0.46,0.75,0.51
0.44,0.78,0.53
0.33,0.74,0.56
0.29,0.73,0.58
0.33,0.75,0.61
0.33,0.75,0.64
0.29,0.74,0.64
0.26,0.73,0.65
0.28,0.75,0.66
0.3,0.76,0.66
0.32,0.78,0.65
0.33,0.81,0.65
0.34,0.84,0.63
0.33,0.83,0.61
0.31,0.82,0.58
0.34,0.84,0.56
0.38,0.84,0.55
0.4,0.83,0.55
0.42,0.82,0.56
0.39,0.78,0.57
0.35,0.75,0.58
0.33,0.73,0.61
0.28,0.66,0.63
0.3,0.64,0.63
0.3,0.61,0.6
0.31,0.57,0.59
0.33,0.54,0.6
0.35,0.54,0.61
0.36,0.55,0.61
0.37,0.56,0.62
0.38,0.57,0.64
0.4,0.59,0.66
0.4,0.6,0.69
0.41,0.6,0.73
0.38,0.6,0.78
0.34,0.6,0.84
0.28,0.6,0.89
0.24,0.61,0.9
0.22,0.63,0.89
0.22,0.63,0.86
0.25,0.62,0.82
0.3,0.6,0.77
0.36,0.59,0.72
0.41,0.58,0.67
0.47,0.56,0.63
0.5,0.55,0.63
0.49,0.56,0.68
0.47,0.57,0.73
0.46,0.58,0.8
0.45,0.57,0.8
0.45,0.58,0.79
0.5,0.58,0.76
0.45,0.53,0.72
0.44,0.58,0.71
0.51,0.6,0.72
0.53,0.55,0.64
0.58,0.55,0.56
0.64,0.58,0.44
0.6,0.61,0.42
0.52,0.58,0.5
0.66,0.65,0.57
0.78,0.71,0.63
0.71,0.68,0.65
0.67,0.63,0.59
0.6,0.58,0.55
0.57,0.6,0.44
0.68,0.63,0.3
0.82,0.67,0.39
0.87,0.7,0.4
0.83,0.64,0.31
0.79,0.57,0.28
0.83,0.62,0.29
0.95,0.66,0.37
0.89,0.61,0.46
0.86,0.64,0.36
0.81,0.64,0.27
0.82,0.64,0.2
0.95,0.66,0.19
1.01,0.7,0.23
0.87,0.65,0.26
0.79,0.64,0.22
0.72,0.6,0.12
0.71,0.59,0.11
0.74,0.62,0.08
0.78,0.62,0.07
0.84,0.65,0.08
0.81,0.64,0.01
0.81,0.65,-0.03
0.8,0.64,-0.11
0.83,0.64,-0.15
0.83,0.62,-0.15
0.76,0.61,-0.09
0.77,0.63,-0.03
0.76,0.62,-0.05
0.8,0.63,-0.1
0.74,0.63,-0.1
0.74,0.63,-0.12
0.76,0.62,-0.11
0.68,0.6,-0.11
0.66,0.61,-0.13
0.68,0.61,-0.15
0.65,0.62,-0.21
0.65,0.63,-0.25
0.72,0.66,-0.26
0.68,0.61,-0.22
0.73,0.64,-0.21
0.79,0.68,-0.24
0.77,0.67,-0.24
0.76,0.68,-0.22
0.75,0.67,-0.2
0.74,0.68,-0.16
0.75,0.69,-0.12
0.78,0.7,-0.09
0.79,0.71,-0.08
0.8,0.71,-0.07
0.81,0.72,-0.09
0.8,0.72,-0.08
0.82,0.73,-0.08
0.83,0.75,-0.09
0.81,0.76,-0.07
0.81,0.77,-0.04
0.81,0.76,-0.03
0.81,0.75,-0.02
0.79,0.74,-0.02
0.76,0.74,-0.04
0.72,0.73,-0.09
0.69,0.72,-0.16
0.62,0.71,-0.15
0.61,0.7,-0.15
0.61,0.69,-0.16
0.61,0.69,-0.18
0.58,0.69,-0.19
0.55,0.69,-0.19
0.54,0.68,-0.18
0.53,0.68,-0.18
0.53,0.68,-0.19
0.52,0.68,-0.19
0.5,0.69,-0.2
0.5,0.69,-0.22
0.51,0.71,-0.23
0.51,0.72,-0.24
0.52,0.74,-0.22
0.52,0.74,-0.21
0.53,0.75,-0.23
0.54,0.73,-0.26
0.52,0.73,-0.25
0.5,0.7,-0.2
0.48,0.69,-0.16
0.54,0.75,-0.19
0.57,0.7,-0.2
0.58,0.68,-0.19
0.62,0.72,-0.18
0.62,0.72,-0.14
0.64,0.71,-0.13
0.63,0.66,-0.14
0.66,0.68,-0.12
0.68,0.77,-0.09
0.73,0.73,-0.04
0.74,0.73,0
0.72,0.7,0
0.65,0.68,0.03
0.7,0.71,0.04
0.79,0.66,0.03
0.76,0.63,0.05
0.74,0.68,0.13
0.75,0.7,0.18
0.73,0.69,0.2
0.63,0.68,0.26
0.62,0.68,0.31
0.72,0.69,0.35
0.75,0.7,0.32
0.72,0.71,0.32
0.68,0.75,0.4
0.71,0.75,0.45
0.7,0.71,0.41
0.67,0.75,0.44
0.61,0.74,0.46
0.46,0.7,0.44
0.45,0.69,0.53
0.54,0.62,0.53
0.62,0.62,0.52
0.67,0.62,0.52
0.68,0.63,0.49
0.69,0.63,0.45
0.69,0.62,0.43
0.65,0.62,0.39
0.56,0.61,0.39
0.58,0.64,0.4
0.56,0.64,0.43
0.48,0.58,0.49
0.53,0.57,0.51
0.55,0.57,0.54
0.6,0.56,0.56
0.63,0.56,0.6
0.64,0.55,0.66
0.57,0.54,0.68
0.53,0.55,0.71
0.57,0.59,0.7
0.56,0.6,0.63
0.51,0.55,0.59
0.48,0.54,0.59
0.53,0.58,0.59
0.55,0.57,0.57
0.57,0.57,0.58
0.6,0.54,0.6
0.65,0.56,0.64
0.65,0.56,0.68
0.63,0.56,0.71
0.61,0.58,0.72
0.6,0.6,0.74
0.59,0.57,0.76
0.56,0.55,0.77
0.56,0.54,0.77
0.54,0.49,0.77
0.54,0.48,0.75
0.57,0.5,0.7
0.57,0.49,0.68
0.57,0.49,0.66
0.59,0.48,0.63
0.62,0.49,0.59
0.68,0.5,0.59
0.72,0.52,0.55
0.78,0.54,0.49
0.78,0.53,0.53
0.74,0.56,0.6
0.73,0.6,0.64
0.78,0.57,0.66
0.84,0.61,0.54
0.84,0.63,0.49
0.87,0.6,0.58
0.78,0.55,0.55
0.76,0.56,0.41
0.72,0.55,0.34
0.64,0.52,0.26
0.52,0.54,0.22
0.56,0.54,0.24
0.73,0.6,0.24
0.72,0.6,0.24
0.71,0.59,0.24
0.7,0.59,0.25
0.7,0.59,0.07
0.83,0.67,-0.07
0.85,0.68,0.03
0.81,0.66,0.02
0.78,0.67,0.04
0.81,0.68,-0.04
0.71,0.66,-0.21
0.68,0.65,-0.26
0.65,0.66,-0.27
0.6,0.67,-0.32
0.74,0.7,-0.3
0.76,0.7,-0.23
0.69,0.66,-0.15
0.56,0.62,-0.13
0.6,0.66,-0.2
0.63,0.66,-0.22
0.65,0.65,-0.2
0.72,0.64,-0.18
0.72,0.66,-0.16
0.71,0.64,-0.15
0.7,0.64,-0.17
0.7,0.65,-0.17
0.7,0.65,-0.18
0.71,0.64,-0.19
0.71,0.64,-0.18
0.7,0.63,-0.16
0.7,0.62,-0.11
0.71,0.62,-0.06
0.72,0.61,-0.02
0.71,0.6,0.01
0.7,0.6,0.03
0.73,0.61,0
0.75,0.62,-0.05
0.75,0.63,-0.08
0.72,0.67,-0.13
0.67,0.67,-0.18
0.67,0.66,-0.2
0.72,0.69,-0.22
0.83,0.8,-0.18
0.87,0.73,-0.16
0.88,0.68,-0.08
0.98,0.8,-0.02
1,0.79,0.01
0.85,0.61,0.01
0.79,0.62,0.07
0.72,0.52,0.11
0.71,0.5,0.17
0.83,0.57,0.19
0.84,0.51,0.18
0.79,0.53,0.2
0.81,0.59,0.23
0.81,0.56,0.26
0.8,0.56,0.33
0.77,0.57,0.31
0.72,0.59,0.28
0.77,0.61,0.33
0.82,0.62,0.34
0.81,0.59,0.36
0.83,0.6,0.41
0.79,0.61,0.44
0.72,0.61,0.45
0.65,0.57,0.45
0.65,0.57,0.51
0.67,0.61,0.52
0.69,0.62,0.51
0.65,0.64,0.56
0.6,0.66,0.58
0.6,0.64,0.6
0.57,0.61,0.61
0.52,0.61,0.58
0.6,0.6,0.56
0.65,0.6,0.56
0.68,0.61,0.59
0.67,0.59,0.61
0.62,0.58,0.64
0.56,0.56,0.62
0.58,0.54,0.57
0.61,0.55,0.55
0.58,0.51,0.53
0.56,0.48,0.51
0.62,0.49,0.5
0.64,0.48,0.46
0.6,0.46,0.48
0.59,0.46,0.55
0.61,0.5,0.57
0.66,0.51,0.57
0.64,0.53,0.58
0.63,0.55,0.6
0.6,0.57,0.6
0.59,0.56,0.63
0.59,0.55,0.68
0.56,0.55,0.69
0.59,0.54,0.73
0.62,0.54,0.75
0.6,0.54,0.74
0.57,0.5,0.73
0.63,0.49,0.69
0.64,0.47,0.65
0.65,0.44,0.61
0.65,0.43,0.61
0.65,0.44,0.6
0.67,0.43,0.57
0.7,0.43,0.54
0.71,0.43,0.53
0.73,0.42,0.49
0.77,0.4,0.47
0.79,0.42,0.46
0.82,0.44,0.46
0.86,0.42,0.46
0.88,0.4,0.43
0.92,0.4,0.43
0.89,0.39,0.49
0.88,0.41,0.6
0.89,0.4,0.64
0.85,0.37,0.63
0.79,0.35,0.57
0.82,0.35,0.56
0.84,0.37,0.55
0.8,0.37,0.49
0.82,0.41,0.5
0.83,0.43,0.51
0.79,0.41,0.52
0.93,0.46,0.49
0.85,0.48,0.42
0.93,0.5,0.36
1.06,0.5,0.28
1.01,0.49,0.28
0.88,0.44,0.29
0.89,0.46,0.26
0.95,0.49,0.3
0.86,0.45,0.2
0.73,0.44,0.15
0.83,0.49,0.2
0.93,0.55,0.09
0.85,0.53,0.09
0.84,0.53,0.07
0.87,0.56,0
0.82,0.55,-0.12
0.88,0.57,-0.17
0.88,0.57,-0.05
0.84,0.59,-0.04
0.88,0.61,-0.08
0.78,0.57,-0.05
0.78,0.61,-0.04
0.84,0.61,-0.1
0.83,0.61,-0.12
0.83,0.61,-0.11
0.78,0.61,-0.15
0.82,0.62,-0.15
0.79,0.6,-0.11
0.69,0.62,-0.13
0.69,0.63,-0.16
0.72,0.65,-0.19
0.72,0.66,-0.2
0.64,0.62,-0.21
0.66,0.64,-0.24
0.75,0.67,-0.24
0.72,0.65,-0.18
0.72,0.66,-0.17
0.72,0.66,-0.18
0.67,0.65,-0.15
0.63,0.65,-0.14
0.61,0.65,-0.17
0.58,0.65,-0.19
0.57,0.64,-0.2
0.58,0.64,-0.2
0.6,0.64,-0.21
0.61,0.64,-0.2
0.61,0.63,-0.2
0.62,0.64,-0.21
0.62,0.64,-0.22
0.62,0.64,-0.23
0.62,0.65,-0.25
0.64,0.67,-0.35
0.68,0.68,-0.37
0.68,0.69,-0.36
0.66,0.69,-0.35
0.64,0.68,-0.31
0.64,0.68,-0.25
0.62,0.65,-0.18
0.66,0.75,-0.13
0.66,0.82,-0.11
0.61,0.67,-0.1
0.65,0.63,-0.09
0.7,0.62,-0.09
0.78,0.67,-0.08
0.82,0.67,-0.1
0.79,0.66,-0.1
0.76,0.69,-0.11
0.76,0.66,-0.13
0.71,0.67,-0.09
0.71,0.66,-0.02
0.74,0.66,0.04
0.75,0.67,0.08
0.76,0.65,0.17
0.74,0.63,0.22
0.7,0.6,0.23
0.61,0.59,0.23
0.62,0.61,0.26
0.74,0.58,0.37
0.67,0.64,0.37
0.7,0.64,0.44
0.59,0.61,0.43
0.62,0.58,0.43
0.67,0.58,0.5
0.67,0.63,0.54
0.69,0.6,0.56
0.61,0.63,0.57
0.6,0.7,0.64
0.56,0.7,0.67
0.49,0.66,0.65
0.53,0.68,0.63
0.47,0.71,0.61
0.38,0.64,0.61
0.37,0.59,0.59
0.37,0.56,0.55
0.49,0.54,0.54
0.6,0.55,0.49
0.66,0.53,0.47
0.71,0.51,0.49
0.69,0.52,0.53
0.63,0.53,0.57
0.64,0.52,0.58
0.6,0.52,0.61
0.55,0.54,0.68
0.54,0.55,0.82
0.5,0.57,0.85
0.5,0.58,0.84
0.52,0.57,0.82
0.5,0.57,0.78
0.54,0.57,0.73
0.59,0.55,0.7
0.57,0.53,0.68
0.55,0.51,0.69
0.54,0.49,0.73
0.52,0.48,0.76
0.48,0.47,0.77
0.45,0.47,0.8
0.44,0.47,0.81
0.43,0.46,0.79
0.47,0.46,0.77
0.52,0.46,0.73
0.57,0.46,0.7
0.61,0.46,0.69
0.64,0.45,0.69
0.64,0.45,0.72
0.63,0.45,0.76
0.65,0.44,0.78
0.66,0.45,0.77
0.66,0.46,0.77
0.67,0.46,0.76
0.66,0.44,0.75
0.65,0.43,0.73
0.61,0.42,0.7
0.64,0.45,0.73
0.71,0.46,0.7
0.7,0.45,0.63
0.67,0.46,0.53
0.64,0.46,0.46
0.74,0.53,0.49
0.87,0.57,0.45
0.9,0.56,0.48
0.87,0.53,0.43
0.8,0.5,0.25
0.83,0.52,0.32
0.93,0.57,0.35
0.98,0.58,0.21
0.91,0.55,0.1
0.78,0.53,0.16
0.85,0.55,0.23
0.97,0.59,0.15
0.93,0.59,0.17
0.77,0.57,0.22
0.67,0.56,0.25
0.64,0.58,0.22
0.67,0.59,0.07
0.77,0.62,0.01
0.69,0.59,0.01
0.71,0.65,0.04
0.67,0.63,-0.06
0.75,0.66,0.01
0.79,0.67,0.05
0.86,0.7,0.01
0.88,0.68,0.03
0.88,0.64,-0.07
0.86,0.65,-0.13
0.77,0.64,-0.08
0.77,0.64,-0.11
0.84,0.67,-0.17
0.72,0.65,-0.1
0.64,0.65,-0.05
0.75,0.7,-0.07
0.7,0.68,-0.06
0.67,0.68,-0.11
0.75,0.71,-0.16
0.73,0.71,-0.16
0.63,0.71,-0.15
0.61,0.72,-0.15
0.62,0.72,-0.13
0.64,0.73,-0.11
0.61,0.73,-0.13
0.59,0.73,-0.17
0.62,0.75,-0.19
0.61,0.74,-0.17
0.57,0.73,-0.13
0.56,0.72,-0.14
0.53,0.72,-0.14
0.51,0.72,-0.14
0.5,0.73,-0.16
0.52,0.74,-0.17
0.53,0.74,-0.17
0.54,0.74,-0.18
0.56,0.75,-0.19
0.57,0.76,-0.18
0.57,0.75,-0.16
0.58,0.75,-0.15
0.59,0.75,-0.17
0.6,0.75,-0.21
0.59,0.76,-0.22
0.58,0.76,-0.23
0.56,0.76,-0.26
0.58,0.79,-0.28
0.57,0.77,-0.3
0.54,0.74,-0.27
0.55,0.73,-0.21
0.54,0.74,-0.17
0.51,0.77,-0.12
0.57,0.88,-0.04
0.65,0.94,-0.01
0.6,0.84,-0.04
0.53,0.82,0
0.55,0.76,0
0.58,0.77,0.01
0.49,0.77,0.09
0.44,0.75,0.12
0.44,0.73,0.11
0.47,0.72,0.19
0.48,0.72,0.21
0.58,0.78,0.22
0.57,0.78,0.31
0.48,0.73,0.29
0.59,0.75,0.3
0.57,0.75,0.38
0.47,0.71,0.38
0.49,0.7,0.38
0.48,0.68,0.38
0.44,0.65,0.33
0.45,0.68,0.36
0.49,0.71,0.43
0.44,0.73,0.44
0.39,0.71,0.46
0.48,0.71,0.49
0.51,0.76,0.48
0.46,0.75,0.51
0.49,0.76,0.51
0.51,0.77,0.51
0.48,0.75,0.53
0.45,0.75,0.52
0.45,0.76,0.49
0.43,0.71,0.49
0.39,0.68,0.46
0.42,0.66,0.41
0.46,0.63,0.41
0.49,0.63,0.44
0.52,0.64,0.48
0.55,0.65,0.52
0.54,0.65,0.58
0.48,0.65,0.63
0.46,0.67,0.65
0.47,0.69,0.65
0.49,0.69,0.65
0.48,0.69,0.63
0.48,0.67,0.61
0.48,0.67,0.63
0.49,0.63,0.64
0.51,0.61,0.63
0.52,0.62,0.63
0.58,0.64,0.63
0.62,0.66,0.61
0.62,0.63,0.61
0.61,0.59,0.62
0.6,0.58,0.61
0.6,0.55,0.65
0.56,0.56,0.69
0.53,0.55,0.7
0.49,0.54,0.68
0.47,0.54,0.66
0.47,0.54,0.67
0.47,0.54,0.69
0.47,0.55,0.69
0.48,0.55,0.7
0.49,0.55,0.71
0.5,0.55,0.73
0.51,0.55,0.76
0.52,0.55,0.79
0.52,0.55,0.82
0.52,0.56,0.82
0.5,0.56,0.82
0.49,0.56,0.81
0.51,0.55,0.78
0.54,0.55,0.75
0.55,0.54,0.72
0.54,0.54,0.68
0.54,0.52,0.66
0.57,0.52,0.66
0.58,0.52,0.65
0.59,0.5,0.62
0.61,0.48,0.63
0.62,0.48,0.54
0.66,0.48,0.5
0.73,0.52,0.51
0.8,0.55,0.53
0.85,0.55,0.49
0.83,0.55,0.44
0.77,0.55,0.49
0.77,0.59,0.52
0.8,0.6,0.47
0.89,0.61,0.42
0.91,0.6,0.4
0.8,0.57,0.36
0.77,0.57,0.33
0.72,0.57,0.3
0.73,0.59,0.23
0.72,0.58,0.18
0.78,0.61,0.19
0.99,0.7,0.26
0.96,0.66,0.22
0.84,0.6,0.14
0.84,0.62,0.12
0.83,0.64,0.05
0.83,0.66,0.1
0.82,0.67,0.09
0.8,0.67,-0.01
0.84,0.67,-0.05
0.77,0.67,0.05
0.74,0.68,0.01
0.79,0.7,-0.08
0.76,0.67,-0.11
0.75,0.69,-0.12
0.77,0.72,-0.23
0.77,0.7,-0.2
0.78,0.68,-0.05
0.74,0.68,-0.01
0.7,0.68,-0.1
0.74,0.68,-0.16
0.73,0.69,-0.1
0.64,0.68,-0.08
0.58,0.67,-0.09
0.53,0.68,-0.1
0.58,0.73,-0.21
0.64,0.71,-0.27
0.59,0.7,-0.25
0.58,0.75,-0.27
0.62,0.78,-0.29
0.53,0.74,-0.18
0.53,0.76,-0.14
0.58,0.78,-0.14
0.59,0.76,-0.15
0.6,0.75,-0.16
0.57,0.74,-0.12
0.64,0.73,-0.13
0.52,0.7,-0.1
0.52,0.72,-0.07
0.53,0.71,-0.1
0.56,0.71,-0.18
0.56,0.71,-0.26
0.53,0.71,-0.32
0.53,0.73,-0.35
0.53,0.74,-0.38
0.54,0.74,-0.39
0.51,0.75,-0.36
0.47,0.77,-0.29
0.43,0.77,-0.24
0.46,0.78,-0.22
0.56,0.81,-0.17
0.59,0.77,-0.14
0.59,0.73,-0.15
0.66,0.72,-0.18
0.69,0.68,-0.22
0.65,0.7,-0.2
0.62,0.75,-0.19
0.59,0.69,-0.18
0.6,0.72,-0.19
0.58,0.76,-0.11
0.55,0.72,0
0.52,0.67,-0.02
0.54,0.63,0.01
0.65,0.7,0.04
0.69,0.72,0.11
0.66,0.69,0.13
0.69,0.7,0.13
0.74,0.68,0.2
0.67,0.67,0.24
0.67,0.69,0.33
0.63,0.66,0.42
0.58,0.68,0.39
0.56,0.69,0.4
0.53,0.68,0.44
0.53,0.68,0.45
0.6,0.7,0.47
0.65,0.65,0.48
0.64,0.65,0.44
0.58,0.72,0.41
0.55,0.75,0.47
0.5,0.73,0.52
0.51,0.71,0.51
0.62,0.77,0.5
0.56,0.76,0.5
0.49,0.7,0.53
0.51,0.69,0.48
0.52,0.67,0.47
0.55,0.64,0.54
0.59,0.64,0.57
0.56,0.61,0.53
0.48,0.64,0.53
0.49,0.64,0.55
0.42,0.56,0.56
0.39,0.56,0.55
0.41,0.58,0.56
0.45,0.57,0.66
0.48,0.54,0.71
0.5,0.57,0.65
0.53,0.58,0.64
0.58,0.61,0.67
0.58,0.62,0.66
0.54,0.58,0.66
0.55,0.59,0.66
0.56,0.6,0.69
0.55,0.59,0.77
0.55,0.54,0.78
0.57,0.48,0.71
0.58,0.45,0.7
0.57,0.45,0.72
0.55,0.45,0.72
0.55,0.45,0.72
0.55,0.44,0.71
0.54,0.45,0.73
0.53,0.46,0.78
0.52,0.49,0.83
0.51,0.51,0.85
0.55,0.52,0.85
0.58,0.53,0.83
0.63,0.53,0.75
0.67,0.53,0.72
0.69,0.52,0.73
0.71,0.51,0.72
0.72,0.48,0.7
0.76,0.48,0.62
0.76,0.5,0.63
0.72,0.48,0.71
0.75,0.45,0.64
0.78,0.47,0.46
0.73,0.47,0.43
0.69,0.44,0.49
0.72,0.47,0.5
0.74,0.48,0.53
0.81,0.53,0.47
0.85,0.53,0.43
0.85,0.51,0.47
0.91,0.54,0.42
0.92,0.54,0.34
0.81,0.56,0.39
0.86,0.56,0.35
1.04,0.59,0.22
0.98,0.56,0.19
0.91,0.55,0.06
0.86,0.54,0.07
0.93,0.59,0.09
0.97,0.64,-0.02
0.93,0.65,-0.03
0.81,0.61,-0.08
0.75,0.61,-0.01
0.85,0.66,0.01
0.84,0.65,-0.03
0.77,0.63,-0.12
0.77,0.65,-0.17
0.79,0.65,-0.16
0.67,0.65,-0.16
0.63,0.64,-0.23
0.68,0.62,-0.27
0.75,0.63,-0.26
0.82,0.66,-0.31
0.83,0.64,-0.29
0.76,0.64,-0.22
0.71,0.67,-0.22
0.71,0.65,-0.24
0.65,0.63,-0.15
0.68,0.66,-0.2
0.76,0.69,-0.28
0.65,0.68,-0.26
0.56,0.69,-0.28
0.52,0.7,-0.28
0.52,0.74,-0.26
0.5,0.74,-0.27
0.53,0.74,-0.29
0.55,0.74,-0.3
0.52,0.73,-0.31
0.5,0.72,-0.31
0.47,0.73,-0.31
0.44,0.72,-0.3
0.41,0.72,-0.29
0.4,0.73,-0.27
0.42,0.72,-0.25
0.44,0.7,-0.24
0.48,0.7,-0.27
0.51,0.69,-0.31
0.53,0.68,-0.33
0.55,0.7,-0.33
0.57,0.71,-0.34
0.58,0.72,-0.38
0.58,0.73,-0.41
0.59,0.74,-0.46
0.56,0.73,-0.49
0.49,0.73,-0.45
0.45,0.72,-0.41
0.4,0.68,-0.36
0.38,0.7,-0.26
0.38,0.64,-0.22
0.59,0.78,-0.22
0.69,0.72,-0.16
0.71,0.71,-0.06
0.7,0.71,-0.05
0.75,0.67,-0.1
0.74,0.64,-0.1
0.69,0.62,-0.06
0.69,0.64,-0.02
0.72,0.71,0.03
0.79,0.74,0.14
0.75,0.71,0.2
0.68,0.68,0.17
0.67,0.65,0.2
0.69,0.68,0.2
0.72,0.71,0.22
0.71,0.72,0.32
0.69,0.7,0.31
0.69,0.68,0.32
0.71,0.69,0.28
0.72,0.7,0.29
0.67,0.67,0.37
0.65,0.68,0.38
0.69,0.67,0.47
0.58,0.67,0.49
0.48,0.7,0.51
0.43,0.72,0.56
0.31,0.74,0.62
0.18,0.74,0.64
0.12,0.73,0.63
0.12,0.66,0.65
0.21,0.65,0.69
0.2,0.64,0.69
0.21,0.57,0.66
0.24,0.56,0.63
0.33,0.54,0.67
0.38,0.54,0.7
0.41,0.57,0.69
0.41,0.54,0.67
0.38,0.49,0.64
0.38,0.48,0.65
0.41,0.49,0.67
0.44,0.51,0.69
0.46,0.54,0.71
0.47,0.57,0.73
0.46,0.58,0.74
0.47,0.59,0.76
0.44,0.6,0.78
0.39,0.58,0.81
0.37,0.58,0.83
0.35,0.6,0.83
0.33,0.55,0.85
0.31,0.52,0.81
0.33,0.53,0.8
0.33,0.52,0.81
0.33,0.52,0.82
0.38,0.53,0.87
0.39,0.53,0.89
0.33,0.53,0.88
0.32,0.53,0.89
0.33,0.53,0.86
0.35,0.52,0.84
0.37,0.51,0.83
0.4,0.51,0.82
0.42,0.51,0.8
0.43,0.5,0.78
0.45,0.5,0.78
0.45,0.49,0.79
0.45,0.48,0.79
0.46,0.46,0.79
0.47,0.45,0.77
0.49,0.45,0.74
0.53,0.45,0.71
0.6,0.45,0.67
0.63,0.43,0.65
0.62,0.43,0.66
0.63,0.45,0.68
0.64,0.45,0.79
0.6,0.45,0.79
0.48,0.4,0.79
0.47,0.45,0.77
0.59,0.51,0.77
0.63,0.47,0.7
0.54,0.45,0.64
0.57,0.47,0.63
0.57,0.44,0.53
0.56,0.41,0.48
0.68,0.44,0.49
0.74,0.43,0.5
0.8,0.46,0.42
0.72,0.45,0.44
0.66,0.44,0.56
0.6,0.41,0.36
0.77,0.45,0.06
1.09,0.55,0.17
0.93,0.47,0.09
0.81,0.44,-0.04
0.78,0.46,0.07
0.87,0.54,0.08
1.03,0.57,0.2
0.98,0.55,0.2
0.93,0.57,0.08
0.95,0.58,0.03
0.99,0.6,0.02
1.03,0.6,0
0.95,0.55,-0.06
0.94,0.57,-0.07
0.91,0.56,-0.17
0.94,0.6,-0.21
0.87,0.58,-0.13
0.78,0.58,-0.08
0.76,0.62,-0.06
0.7,0.59,0.02
0.73,0.59,0.07
0.78,0.61,0.03
0.79,0.61,-0.04
0.77,0.58,-0.07
0.73,0.6,-0.1
0.71,0.61,-0.08
0.7,0.6,-0.08
0.72,0.59,-0.07
0.74,0.58,-0.07
0.78,0.59,-0.14
0.76,0.57,-0.16
0.77,0.6,-0.17
0.8,0.61,-0.23
0.77,0.61,-0.23
0.77,0.6,-0.22
0.78,0.61,-0.23
0.75,0.6,-0.24
0.78,0.6,-0.2
0.81,0.6,-0.18
0.73,0.61,-0.15
0.74,0.63,-0.13
0.73,0.63,-0.12
0.7,0.62,-0.11
0.71,0.62,-0.12
0.73,0.62,-0.15
0.74,0.61,-0.17
0.76,0.61,-0.18
0.78,0.61,-0.18
0.77,0.61,-0.17
0.76,0.61,-0.16
0.76,0.6,-0.14
0.76,0.6,-0.16
0.78,0.61,-0.15
0.8,0.61,-0.14
0.81,0.61,-0.15
0.82,0.62,-0.15
0.81,0.62,-0.16
0.8,0.61,-0.17
0.8,0.62,-0.17
0.8,0.61,-0.15
0.78,0.6,-0.16
0.79,0.6,-0.16
0.82,0.62,-0.15
0.77,0.57,-0.15
0.77,0.57,-0.05
0.76,0.52,-0.03
0.81,0.54,0.05
0.89,0.59,0.09
0.83,0.51,0.08
0.77,0.47,0.14
0.76,0.48,0.15
0.77,0.42,0.15
0.76,0.43,0.17
0.88,0.54,0.16
0.88,0.54,0.16
0.69,0.46,0.12
0.7,0.41,0.2
0.79,0.47,0.3
0.85,0.5,0.3
0.87,0.45,0.28
0.86,0.48,0.23
0.75,0.42,0.38
0.66,0.39,0.57
0.66,0.41,0.71
0.54,0.39,0.77
0.36,0.38,0.82
0.25,0.39,0.82
0.36,0.44,0.83
0.44,0.41,0.87
0.37,0.4,0.81
0.37,0.36,0.89
0.52,0.37,0.91
0.58,0.37,0.92
0.65,0.36,0.9
0.75,0.37,0.88
0.81,0.37,0.85
0.84,0.37,0.83
0.88,0.37,0.83
0.91,0.36,0.82
0.92,0.38,0.8
0.83,0.42,0.79
0.73,0.43,0.8
0.8,0.45,0.89
0.66,0.46,0.86
0.46,0.4,0.91
0.45,0.4,0.95
0.34,0.42,0.89
0.28,0.36,0.96
0.29,0.37,0.97
0.35,0.4,0.99
0.34,0.39,0.97
0.29,0.36,0.94
0.34,0.35,0.92
0.38,0.38,0.87
0.41,0.4,0.83
0.38,0.4,0.82
0.36,0.41,0.78
0.29,0.42,0.77
0.25,0.43,0.77
0.23,0.43,0.77
0.24,0.43,0.76
0.26,0.43,0.74
0.29,0.45,0.72
0.31,0.48,0.7
0.33,0.49,0.69
0.34,0.5,0.68
0.33,0.51,0.69
0.37,0.55,0.61
0.39,0.58,0.66
0.34,0.57,0.8
0.33,0.58,0.82
0.34,0.61,0.8
0.34,0.64,0.79
0.32,0.64,0.79
0.31,0.63,0.77
0.32,0.62,0.73
0.39,0.62,0.69
0.38,0.6,0.71
0.35,0.63,0.66
0.33,0.66,0.63
0.33,0.64,0.6
0.39,0.64,0.54
0.45,0.61,0.55
0.58,0.7,0.54
0.63,0.71,0.47
0.58,0.7,0.43
0.53,0.66,0.38
0.57,0.66,0.4
0.59,0.67,0.46
0.55,0.71,0.42
0.57,0.69,0.4
0.54,0.65,0.47
0.36,0.66,0.54
0.48,0.73,0.51
0.61,0.72,0.34
0.59,0.69,0.35
0.69,0.73,0.4
0.65,0.74,0.27
0.52,0.71,0.22
0.59,0.74,0.16
0.57,0.72,0.05
0.48,0.72,0.02
0.62,0.75,0.05
0.7,0.75,0
0.73,0.75,-0.05
0.73,0.69,0.03
0.67,0.68,0.05
0.61,0.69,0.03
0.58,0.66,-0.05
0.66,0.71,-0.08
0.7,0.74,-0.11
0.6,0.7,-0.15
0.55,0.69,-0.17
0.58,0.71,-0.15
0.59,0.7,-0.15
0.6,0.71,-0.14
0.59,0.71,-0.09
0.6,0.71,-0.09
0.58,0.71,-0.09
0.57,0.7,-0.08
0.6,0.71,-0.09
0.6,0.7,-0.1
0.61,0.71,-0.11
0.64,0.72,-0.14
0.65,0.7,-0.16
0.67,0.7,-0.16
0.68,0.7,-0.15
0.75,0.7,-0.16
0.83,0.69,-0.14
0.83,0.68,-0.13
0.83,0.69,-0.13
0.83,0.7,-0.14
0.83,0.7,-0.15
0.84,0.71,-0.12
0.82,0.71,-0.18
0.76,0.71,-0.18
0.75,0.7,-0.19
0.72,0.7,-0.19
0.67,0.68,-0.2
0.67,0.65,-0.19
0.71,0.65,-0.18
0.77,0.66,-0.2
0.82,0.65,-0.22
0.82,0.64,-0.23
0.78,0.58,-0.23
0.68,0.54,-0.2
0.62,0.54,-0.11
0.64,0.6,-0.03
0.67,0.68,0.03
0.6,0.6,0.02
0.6,0.57,-0.01
0.71,0.66,0.09
0.68,0.68,0.22
0.68,0.68,0.29
0.72,0.67,0.31
0.61,0.64,0.35
0.52,0.62,0.42
0.58,0.65,0.43
0.58,0.7,0.41
0.5,0.69,0.46
0.51,0.62,0.5
0.51,0.51,0.58
0.57,0.52,0.57
0.57,0.5,0.57
0.76,0.47,0.53
0.81,0.49,0.52
0.77,0.48,0.57
0.88,0.48,0.54
0.92,0.5,0.52
0.9,0.57,0.61
0.91,0.59,0.66
0.83,0.53,0.61
0.56,0.47,0.66
0.39,0.43,0.78
0.38,0.47,0.86
0.39,0.5,0.83
0.42,0.48,0.83
0.31,0.42,0.92
0.25,0.37,0.96
0.4,0.42,0.97
0.46,0.45,0.99
0.42,0.44,1.01
0.43,0.46,0.99
0.49,0.46,0.95
0.43,0.46,0.9
0.4,0.44,0.84
0.43,0.46,0.79
0.42,0.49,0.77
0.43,0.51,0.76
0.44,0.53,0.75
0.43,0.56,0.74
0.43,0.58,0.74
0.44,0.59,0.74
0.44,0.6,0.74
0.43,0.59,0.76
0.43,0.58,0.76
0.45,0.58,0.76
0.48,0.6,0.79
0.48,0.61,0.78
0.47,0.59,0.73
0.47,0.57,0.69
0.52,0.58,0.65
0.56,0.6,0.64
0.58,0.63,0.63
0.64,0.65,0.68
0.58,0.64,0.68
0.53,0.64,0.58
0.56,0.64,0.54
0.51,0.61,0.59
0.53,0.64,0.57
0.61,0.73,0.47
0.56,0.71,0.51
0.56,0.65,0.51
0.58,0.64,0.5
0.56,0.65,0.55
0.55,0.66,0.56
0.55,0.66,0.42
0.66,0.67,0.26
0.69,0.69,0.27
0.64,0.69,0.21
0.57,0.65,0.21
0.59,0.67,0.25
0.62,0.7,0.26
0.54,0.68,0.31
0.57,0.7,0.32
0.55,0.67,0.33
0.56,0.69,0.25
0.66,0.74,0.16
0.65,0.74,0.16
0.65,0.74,0.17
0.64,0.72,0.15
0.63,0.69,0.16
0.6,0.67,0.22
0.62,0.67,0.22
0.65,0.7,0.17
0.67,0.69,0.17
0.76,0.7,0.14
0.66,0.7,0.11
0.58,0.65,0.06
0.6,0.72,-0.02
0.65,0.7,-0.03
0.67,0.68,0.03
0.63,0.69,0.05
0.55,0.69,0
0.6,0.74,-0.07
0.69,0.77,-0.06
0.66,0.75,-0.03
0.64,0.73,-0.02
0.62,0.74,-0.01
0.59,0.73,0
0.59,0.73,-0.01
0.5,0.71,-0.02
0.51,0.69,-0.08
0.63,0.72,-0.12
0.67,0.71,-0.16
0.68,0.68,-0.18
0.73,0.67,-0.21
0.79,0.67,-0.21
0.75,0.66,-0.16
0.71,0.66,-0.16
0.67,0.66,-0.14
0.64,0.66,-0.14
0.66,0.66,-0.13
0.69,0.65,-0.12
0.74,0.64,-0.12
0.78,0.63,-0.12
0.84,0.63,-0.14
0.88,0.62,-0.17
0.92,0.61,-0.18
0.95,0.61,-0.18
0.96,0.61,-0.19
0.97,0.59,-0.19
0.94,0.6,-0.18
0.92,0.6,-0.18
0.88,0.59,-0.17
0.84,0.58,-0.16
0.81,0.59,-0.14
