Acc_x,Acc_y,Acc_z
0.44,-0.93,0.15
0.45,-0.92,0.15
0.45,-0.91,0.15
0.46,-0.9,0.14
0.46,-0.89,0.14
0.47,-0.89,0.14
0.46,-0.88,0.15
0.46,-0.87,0.15
0.48,-0.86,0.14
0.48,-0.85,0.13
0.47,-0.84,0.13
0.46,-0.83,0.14
0.47,-0.81,0.15
0.48,-0.8,0.15
0.47,-0.78,0.15
0.47,-0.77,0.15
0.46,-0.75,0.16
0.46,-0.73,0.15
0.45,-0.71,0.15
0.45,-0.68,0.15
0.44,-0.65,0.15
0.43,-0.61,0.14
0.41,-0.57,0.14
0.4,-0.53,0.13
0.38,-0.5,0.12
0.37,-0.46,0.11
0.37,-0.44,0.12
0.39,-0.42,0.12
0.42,-0.41,0.13
0.44,-0.43,0.13
0.45,-0.45,0.12
0.46,-0.48,0.13
0.44,-0.5,0.13
0.46,-0.52,0.14
0.49,-0.55,0.14
0.52,-0.59,0.13
0.54,-0.62,0.13
0.55,-0.65,0.12
0.54,-0.66,0.12
0.54,-0.65,0.13
0.54,-0.61,0.16
0.61,-0.6,0.19
0.65,-0.6,0.21
0.65,-0.61,0.23
0.65,-0.6,0.25
0.66,-0.59,0.27
0.68,-0.58,0.3
0.72,-0.57,0.31
0.75,-0.56,0.33
0.76,-0.55,0.35
0.76,-0.54,0.36
0.8,-0.53,0.4
0.84,-0.55,0.48
0.86,-0.58,0.57
0.87,-0.58,0.62
0.87,-0.58,0.62
0.89,-0.57,0.61
0.9,-0.55,0.6
0.9,-0.55,0.62
0.89,-0.55,0.65
0.9,-0.55,0.68
0.91,-0.56,0.72
0.89,-0.55,0.77
0.87,-0.56,0.8
0.87,-0.57,0.79
0.91,-0.56,0.75
0.92,-0.52,0.7
0.94,-0.54,0.75
0.94,-0.58,0.82
0.9,-0.61,0.89
0.85,-0.64,0.93
0.81,-0.66,0.91
0.8,-0.68,0.88
0.81,-0.69,0.84
0.85,-0.65,0.82
0.85,-0.59,0.84
0.8,-0.54,0.91
0.75,-0.48,0.95
0.72,-0.42,0.94
0.68,-0.36,0.88
0.65,-0.31,0.8
0.62,-0.27,0.74
0.62,-0.26,0.71
0.62,-0.26,0.71
0.62,-0.25,0.75
0.62,-0.26,0.8
0.61,-0.28,0.83
0.61,-0.29,0.83
0.59,-0.3,0.81
0.57,-0.3,0.79
0.55,-0.3,0.75
0.55,-0.3,0.72
0.58,-0.31,0.69
0.67,-0.31,0.7
0.7,-0.32,0.74
0.71,-0.32,0.78
0.71,-0.31,0.79
0.69,-0.3,0.79
0.67,-0.29,0.78
0.67,-0.28,0.78
0.67,-0.26,0.77
0.69,-0.25,0.77
0.69,-0.24,0.78
0.68,-0.23,0.78
0.68,-0.21,0.77
0.67,-0.21,0.75
0.67,-0.21,0.75
0.66,-0.21,0.74
0.66,-0.22,0.73
0.66,-0.22,0.73
0.65,-0.23,0.73
0.65,-0.23,0.73
0.64,-0.23,0.72
0.64,-0.23,0.7
0.65,-0.24,0.68
0.67,-0.25,0.67
0.69,-0.25,0.69
0.7,-0.26,0.7
0.69,-0.26,0.72
0.68,-0.27,0.71
0.69,-0.26,0.7
0.69,-0.27,0.69
0.7,-0.27,0.68
0.7,-0.27,0.69
0.69,-0.27,0.69
0.7,-0.27,0.69
0.72,-0.27,0.69
0.73,-0.27,0.68
0.74,-0.28,0.69
0.73,-0.29,0.69
0.72,-0.29,0.7
0.72,-0.29,0.7
0.72,-0.29,0.7
0.72,-0.29,0.71
0.72,-0.3,0.7
0.72,-0.29,0.69
0.73,-0.29,0.69
0.74,-0.29,0.69
0.73,-0.29,0.7
0.72,-0.29,0.69
0.71,-0.29,0.69
0.71,-0.29,0.68
0.71,-0.3,0.68
0.71,-0.3,0.68
0.72,-0.3,0.66
0.73,-0.3,0.65
0.73,-0.31,0.65
0.72,-0.31,0.65
0.71,-0.32,0.65
0.71,-0.32,0.66
0.71,-0.32,0.66
0.71,-0.32,0.66
0.7,-0.33,0.65
0.7,-0.34,0.64
0.71,-0.34,0.64
0.72,-0.34,0.65
0.72,-0.34,0.66
0.71,-0.34,0.66
0.71,-0.34,0.66
0.7,-0.35,0.66
0.7,-0.34,0.66
0.69,-0.34,0.67
0.68,-0.34,0.67
0.68,-0.34,0.68
0.68,-0.34,0.68
0.68,-0.34,0.67
0.68,-0.34,0.66
0.68,-0.34,0.66
0.69,-0.35,0.66
0.69,-0.35,0.67
0.68,-0.35,0.67
0.69,-0.35,0.68
0.69,-0.35,0.68
0.69,-0.34,0.68
0.68,-0.34,0.68
0.68,-0.35,0.67
0.68,-0.34,0.66
0.68,-0.34,0.65
0.69,-0.35,0.65
0.69,-0.35,0.65
0.69,-0.35,0.64
0.7,-0.35,0.64
0.71,-0.35,0.64
0.71,-0.35,0.64
0.71,-0.35,0.65
0.7,-0.35,0.65
0.7,-0.35,0.64
0.7,-0.35,0.64
0.7,-0.34,0.64
0.7,-0.34,0.64
0.7,-0.34,0.64
0.7,-0.35,0.64
0.71,-0.35,0.65
0.71,-0.35,0.65
0.71,-0.35,0.66
0.71,-0.35,0.66
0.7,-0.35,0.67
0.7,-0.35,0.67
0.7,-0.35,0.66
0.7,-0.35,0.66
0.69,-0.35,0.66
0.69,-0.35,0.66
0.69,-0.35,0.66
0.69,-0.35,0.65
0.69,-0.36,0.65
0.68,-0.36,0.65
0.68,-0.37,0.65
0.68,-0.37,0.64
0.68,-0.37,0.64
0.67,-0.37,0.64
0.66,-0.37,0.64
0.65,-0.37,0.63
0.66,-0.37,0.63
0.66,-0.37,0.63
0.67,-0.38,0.64
0.67,-0.38,0.64
0.67,-0.39,0.64
0.68,-0.39,0.64
0.68,-0.39,0.65
0.68,-0.39,0.66
0.68,-0.39,0.66
0.68,-0.39,0.66
0.7,-0.4,0.66
0.72,-0.4,0.67
0.72,-0.4,0.68
0.71,-0.4,0.68
0.71,-0.4,0.68
0.71,-0.4,0.68
0.71,-0.4,0.67
0.71,-0.4,0.67
0.71,-0.41,0.67
0.71,-0.41,0.66
0.7,-0.41,0.66
0.7,-0.41,0.65
0.7,-0.41,0.64
0.7,-0.41,0.64
0.7,-0.41,0.64
0.69,-0.42,0.63
0.69,-0.42,0.63
0.69,-0.42,0.64
0.68,-0.42,0.64
0.68,-0.42,0.63
0.67,-0.42,0.63
0.67,-0.42,0.63
0.67,-0.42,0.63
0.67,-0.42,0.62
0.68,-0.41,0.62
0.67,-0.41,0.62
0.67,-0.41,0.63
0.67,-0.41,0.63
0.67,-0.41,0.64
0.67,-0.42,0.64
0.67,-0.41,0.64
0.67,-0.41,0.64
0.67,-0.42,0.63
0.67,-0.41,0.63
0.67,-0.41,0.63
0.67,-0.42,0.63
0.67,-0.42,0.64
0.67,-0.42,0.64
0.66,-0.42,0.64
0.66,-0.42,0.63
0.66,-0.42,0.63
0.65,-0.42,0.62
0.65,-0.42,0.61
0.66,-0.42,0.61
0.66,-0.42,0.61
0.65,-0.42,0.6
0.65,-0.42,0.6
0.65,-0.42,0.59
0.65,-0.42,0.58
0.65,-0.43,0.58
0.64,-0.43,0.57
0.65,-0.43,0.56
0.67,-0.44,0.55
0.66,-0.43,0.58
0.65,-0.43,0.6
0.67,-0.43,0.62
0.67,-0.44,0.63
0.68,-0.46,0.61
0.67,-0.47,0.58
0.66,-0.47,0.54
0.68,-0.48,0.49
0.72,-0.48,0.47
0.76,-0.47,0.48
0.78,-0.47,0.49
0.75,-0.48,0.51
0.72,-0.47,0.51
0.72,-0.45,0.5
0.71,-0.46,0.49
0.69,-0.46,0.47
0.67,-0.46,0.47
0.66,-0.47,0.46
0.64,-0.48,0.44
0.64,-0.5,0.42
0.66,-0.52,0.42
0.65,-0.53,0.43
0.64,-0.54,0.43
0.64,-0.56,0.42
0.62,-0.59,0.43
0.61,-0.61,0.42
0.6,-0.68,0.39
0.58,-0.7,0.37
0.57,-0.73,0.36
0.55,-0.76,0.36
0.54,-0.79,0.36
0.54,-0.81,0.35
0.54,-0.82,0.34
0.52,-0.85,0.33
0.52,-0.89,0.33
0.52,-0.93,0.33
0.51,-0.96,0.33
0.51,-0.99,0.32
0.5,-1.01,0.32
0.5,-1.01,0.31
0.51,-1.01,0.3
0.51,-1.02,0.31
0.5,-1.04,0.31
0.48,-1.05,0.32
0.47,-1.08,0.33
0.47,-1.12,0.33
0.46,-1.19,0.34
0.48,-1.22,0.33
0.47,-1.29,0.32
0.42,-1.33,0.27
0.41,-1.38,0.22
0.41,-1.58,0.13
0.39,-1.62,0.28
0.37,-1.61,0.28
0.36,-1.6,0.29
0.36,-1.59,0.28
0.36,-1.55,0.28
0.37,-1.5,0.28
0.39,-1.44,0.29
0.39,-1.39,0.29
0.36,-1.35,0.28
0.34,-1.32,0.25
0.31,-1.31,0.23
0.29,-1.3,0.2
0.3,-1.28,0.19
0.29,-1.26,0.19
0.27,-1.28,0.17
0.29,-1.29,0.17
0.27,-1.27,0.18
0.23,-1.26,0.19
0.22,-1.25,0.18
0.22,-1.23,0.18
0.17,-1.21,0.2
0.18,-1.18,0.19
0.21,-1.13,0.18
0.17,-1.12,0.18
0.12,-1.1,0.17
0.1,-1.07,0.17
0.11,-0.99,0.16
0.07,-0.94,0.16
0.07,-0.9,0.15
0.07,-0.87,0.15
0.06,-0.82,0.14
0.05,-0.77,0.14
0.04,-0.72,0.13
0.03,-0.67,0.12
0.04,-0.63,0.12
0.04,-0.6,0.12
0.04,-0.57,0.12
0.06,-0.54,0.12
0.07,-0.52,0.12
0.07,-0.5,0.12
0.07,-0.49,0.13
0.08,-0.48,0.12
0.09,-0.49,0.11
0.1,-0.49,0.1
0.12,-0.48,0.1
0.13,-0.49,0.1
0.14,-0.5,0.1
0.14,-0.5,0.1
0.15,-0.51,0.1
0.15,-0.54,0.08
0.17,-0.57,0.07
0.21,-0.6,0.05
0.23,-0.63,0.03
0.28,-0.7,0.04
0.27,-0.76,0.06
0.26,-0.76,0.08
0.27,-0.73,0.08
0.33,-0.77,0.08
0.33,-0.86,0.09
0.31,-0.94,0.1
0.32,-0.98,0.09
0.32,-1.01,0.08
0.34,-1.01,0.08
0.36,-0.99,0.07
0.37,-0.97,0.08
0.38,-0.96,0.08
0.39,-0.96,0.09
0.39,-0.96,0.11
0.42,-0.95,0.13
0.44,-0.94,0.13
0.42,-0.96,0.12
0.39,-0.98,0.13
0.36,-0.97,0.14
0.4,-0.95,0.13
0.4,-0.95,0.13
0.38,-0.97,0.14
0.39,-0.96,0.14
0.38,-0.96,0.13
0.37,-0.96,0.13
0.37,-0.95,0.13
0.39,-0.95,0.14
0.39,-0.95,0.13
0.39,-0.95,0.14
0.38,-0.95,0.14
0.39,-0.95,0.14
0.4,-0.95,0.15
0.4,-0.95,0.15
0.39,-0.96,0.16
0.39,-0.98,0.16
0.39,-0.97,0.16
0.39,-0.96,0.16
0.39,-0.94,0.15
0.39,-0.93,0.15
0.38,-0.93,0.16
0.38,-0.93,0.16
0.38,-0.93,0.15
0.38,-0.94,0.14
0.38,-0.94,0.14
0.39,-0.95,0.14
0.38,-0.96,0.14
0.39,-0.95,0.14
0.38,-0.94,0.14
0.38,-0.93,0.14
0.38,-0.93,0.14
0.38,-0.92,0.14
0.38,-0.92,0.13
0.39,-0.93,0.13
0.38,-0.94,0.13
0.38,-0.94,0.12
0.39,-0.94,0.12
0.39,-0.94,0.13
0.38,-0.94,0.12
0.38,-0.94,0.12
0.38,-0.94,0.12
0.39,-0.94,0.12
0.39,-0.94,0.12
0.38,-0.94,0.12
0.39,-0.95,0.11
0.39,-0.94,0.11
0.39,-0.94,0.11
0.39,-0.94,0.11
0.39,-0.94,0.11
0.39,-0.94,0.11
0.39,-0.93,0.11
0.39,-0.93,0.11
0.39,-0.93,0.12
0.39,-0.93,0.12
0.38,-0.93,0.12
0.39,-0.93,0.12
0.39,-0.93,0.12
0.39,-0.93,0.12
0.39,-0.92,0.11
0.39,-0.92,0.11
0.39,-0.93,0.11
0.39,-0.93,0.11
0.39,-0.94,0.12
0.39,-0.95,0.12
0.39,-0.95,0.12
0.39,-0.95,0.12
0.39,-0.95,0.12
0.39,-0.94,0.12
0.39,-0.94,0.12
0.39,-0.94,0.12
0.39,-0.94,0.12
0.39,-0.95,0.12
0.39,-0.95,0.12
0.39,-0.95,0.12
0.39,-0.95,0.13
0.39,-0.95,0.12
0.39,-0.95,0.12
0.39,-0.95,0.12
0.38,-0.94,0.13
0.38,-0.94,0.13
0.39,-0.94,0.13
0.38,-0.95,0.13
0.38,-0.95,0.13
0.39,-0.94,0.13
0.38,-0.94,0.13
0.38,-0.94,0.14
0.37,-0.94,0.14
0.37,-0.94,0.14
0.37,-0.94,0.14
0.37,-0.93,0.14
0.37,-0.94,0.14
0.37,-0.94,0.14
0.37,-0.93,0.14
0.37,-0.93,0.14
0.37,-0.93,0.14
0.37,-0.93,0.14
0.37,-0.94,0.14
0.37,-0.94,0.14
0.38,-0.93,0.14
0.38,-0.94,0.14
0.38,-0.94,0.14
0.38,-0.95,0.14
0.38,-0.95,0.14
0.38,-0.94,0.15
0.37,-0.94,0.15
0.37,-0.93,0.15
0.37,-0.93,0.14
0.37,-0.93,0.14
0.37,-0.93,0.14
0.37,-0.93,0.14
0.37,-0.93,0.14
0.37,-0.93,0.14
0.36,-0.93,0.14
0.36,-0.93,0.13
0.36,-0.93,0.13
0.35,-0.92,0.13
0.35,-0.9,0.13
0.35,-0.88,0.13
0.34,-0.86,0.13
0.33,-0.84,0.13
0.33,-0.81,0.13
0.32,-0.8,0.13
0.32,-0.78,0.12
0.32,-0.78,0.12
0.32,-0.77,0.12
0.32,-0.76,0.12
0.31,-0.75,0.12
0.31,-0.74,0.12
0.3,-0.74,0.13
0.3,-0.75,0.12
0.3,-0.76,0.12
0.31,-0.76,0.12
0.31,-0.75,0.12
0.3,-0.75,0.13
0.3,-0.76,0.13
0.31,-0.76,0.13
0.32,-0.76,0.13
0.33,-0.76,0.13
0.32,-0.75,0.13
0.31,-0.73,0.15
0.31,-0.72,0.17
0.32,-0.71,0.18
0.32,-0.7,0.18
0.31,-0.69,0.19
0.31,-0.71,0.18
0.31,-0.72,0.17
0.31,-0.72,0.18
0.31,-0.73,0.19
0.32,-0.76,0.19
0.32,-0.8,0.19
0.32,-0.83,0.21
0.27,-0.86,0.23
0.29,-0.86,0.24
0.35,-0.88,0.18
0.32,-0.95,0.15
0.3,-0.91,0.2
0.3,-0.87,0.21
0.32,-0.92,0.19
0.32,-0.94,0.2
0.32,-0.93,0.2
0.33,-0.93,0.2
0.34,-0.93,0.2
0.34,-0.95,0.2
0.33,-0.96,0.2
0.34,-0.96,0.19
0.35,-0.97,0.19
0.36,-0.97,0.19
0.38,-0.97,0.19
0.41,-0.99,0.21
0.45,-1.02,0.21
0.45,-1.04,0.22
0.45,-1.07,0.24
0.46,-1.1,0.24
0.46,-1.13,0.22
0.47,-1.15,0.21
0.49,-1.17,0.21
0.5,-1.16,0.22
0.52,-1.15,0.23
0.53,-1.14,0.24
0.54,-1.12,0.24
0.55,-1.11,0.25
0.57,-1.1,0.25
0.58,-1.11,0.27
0.58,-1.11,0.3
0.59,-1.11,0.32
0.59,-1.11,0.35
0.59,-1.1,0.35
0.59,-1.09,0.35
0.58,-1.04,0.34
0.6,-1.02,0.35
0.6,-0.99,0.37
0.61,-0.97,0.38
0.62,-0.95,0.38
0.62,-0.94,0.38
0.63,-0.94,0.37
0.63,-0.95,0.37
0.63,-0.97,0.37
0.62,-0.98,0.36
0.61,-0.99,0.36
0.6,-0.99,0.37
0.59,-0.98,0.38
0.59,-0.95,0.37
0.59,-0.88,0.37
0.58,-0.82,0.37
0.59,-0.79,0.37
0.6,-0.74,0.39
0.59,-0.67,0.4
0.6,-0.61,0.39
0.6,-0.55,0.41
0.63,-0.49,0.46
0.66,-0.49,0.53
0.71,-0.5,0.63
0.81,-0.5,0.72
0.89,-0.55,0.74
0.89,-0.57,0.67
0.81,-0.63,0.58
0.8,-0.67,0.5
0.81,-0.69,0.42
0.81,-0.67,0.37
0.79,-0.65,0.35
0.77,-0.65,0.35
0.75,-0.64,0.35
0.72,-0.63,0.35
0.68,-0.62,0.34
0.65,-0.61,0.34
0.63,-0.59,0.34
0.61,-0.59,0.33
0.6,-0.59,0.33
0.58,-0.59,0.34
0.56,-0.6,0.35
0.55,-0.61,0.35
0.55,-0.64,0.35
0.57,-0.63,0.35
0.61,-0.61,0.34
0.62,-0.63,0.35
0.63,-0.64,0.37
0.66,-0.63,0.39
0.68,-0.62,0.41
0.67,-0.63,0.43
0.67,-0.62,0.45
0.68,-0.62,0.46
0.68,-0.62,0.46
0.67,-0.62,0.46
0.67,-0.62,0.46
0.66,-0.63,0.45
0.65,-0.65,0.44
0.64,-0.64,0.43
0.63,-0.65,0.43
0.64,-0.66,0.43
0.64,-0.66,0.43
0.65,-0.66,0.43
0.65,-0.66,0.42
0.66,-0.65,0.4
0.66,-0.66,0.4
0.65,-0.67,0.4
0.65,-0.65,0.4
0.65,-0.65,0.39
0.66,-0.7,0.37
0.67,-0.7,0.37
0.67,-0.67,0.37
0.64,-0.66,0.38
0.66,-0.67,0.39
0.67,-0.67,0.39
0.66,-0.68,0.39
0.67,-0.71,0.37
0.67,-0.7,0.36
0.66,-0.69,0.39
0.66,-0.71,0.38
0.66,-0.7,0.38
0.65,-0.7,0.39
0.64,-0.72,0.37
0.65,-0.71,0.37
0.65,-0.7,0.38
0.63,-0.69,0.39
0.63,-0.69,0.39
0.62,-0.71,0.39
0.61,-0.73,0.39
0.61,-0.73,0.39
0.62,-0.73,0.38
0.62,-0.73,0.38
0.62,-0.7,0.38
0.63,-0.7,0.38
0.63,-0.73,0.39
0.63,-0.72,0.39
0.63,-0.72,0.39
0.63,-0.72,0.39
0.62,-0.72,0.39
0.62,-0.72,0.38
0.62,-0.72,0.38
0.62,-0.72,0.38
0.62,-0.72,0.38
0.62,-0.72,0.38
0.62,-0.72,0.38
0.62,-0.72,0.38
0.62,-0.73,0.38
0.62,-0.73,0.39
0.62,-0.73,0.39
0.62,-0.73,0.39
0.62,-0.73,0.39
0.62,-0.73,0.39
0.62,-0.72,0.39
0.61,-0.73,0.39
0.61,-0.73,0.39
0.61,-0.72,0.39
0.61,-0.72,0.39
0.61,-0.72,0.38
0.62,-0.73,0.39
0.62,-0.72,0.38
0.62,-0.72,0.39
0.62,-0.72,0.39
0.62,-0.72,0.39
0.62,-0.73,0.39
0.62,-0.72,0.39
0.62,-0.72,0.38
0.62,-0.72,0.38
0.62,-0.72,0.39
0.62,-0.72,0.38
0.63,-0.73,0.38
0.63,-0.74,0.38
0.63,-0.74,0.38
0.62,-0.71,0.37
0.61,-0.73,0.37
0.63,-0.77,0.38
0.63,-0.71,0.38
0.62,-0.7,0.38
0.63,-0.72,0.38
0.63,-0.72,0.38
0.63,-0.71,0.38
0.63,-0.71,0.38
0.64,-0.71,0.38
0.64,-0.71,0.38
0.64,-0.71,0.38
0.64,-0.71,0.38
0.64,-0.71,0.38
0.64,-0.7,0.38
0.64,-0.7,0.38
0.64,-0.7,0.38
0.64,-0.7,0.38
0.64,-0.7,0.38
0.64,-0.7,0.37
0.64,-0.7,0.38
0.64,-0.69,0.38
0.64,-0.69,0.38
0.64,-0.69,0.38
0.64,-0.69,0.38
0.64,-0.69,0.38
0.64,-0.69,0.38
0.64,-0.69,0.38
0.64,-0.69,0.38
0.64,-0.7,0.38
0.64,-0.69,0.38
0.64,-0.69,0.38
0.65,-0.69,0.38
0.64,-0.7,0.38
0.64,-0.7,0.38
0.64,-0.7,0.38
0.65,-0.69,0.38
0.65,-0.69,0.38
0.64,-0.69,0.38
0.65,-0.69,0.38
0.64,-0.69,0.38
0.64,-0.7,0.38
0.64,-0.7,0.38
0.64,-0.7,0.38
0.65,-0.7,0.38
0.65,-0.7,0.38
0.65,-0.7,0.38
0.65,-0.7,0.38
0.64,-0.7,0.37
0.64,-0.7,0.38
0.65,-0.69,0.38
0.64,-0.69,0.38
0.64,-0.69,0.38
0.64,-0.69,0.38
0.64,-0.69,0.38
0.64,-0.69,0.38
0.64,-0.69,0.38
0.65,-0.7,0.38
0.64,-0.7,0.38
0.64,-0.69,0.38
0.64,-0.7,0.38
0.64,-0.7,0.38
0.64,-0.69,0.38
0.64,-0.69,0.38
0.64,-0.69,0.38
0.64,-0.7,0.38
0.64,-0.7,0.38
0.64,-0.7,0.37
0.64,-0.7,0.38
0.64,-0.71,0.38
0.63,-0.72,0.37
0.63,-0.71,0.37
0.63,-0.72,0.37
0.63,-0.71,0.37
0.63,-0.71,0.38
0.63,-0.71,0.38
0.63,-0.71,0.37
0.63,-0.72,0.37
0.63,-0.7,0.37
0.63,-0.65,0.36
0.62,-0.65,0.35
0.62,-0.74,0.36
0.63,-0.73,0.37
0.62,-0.66,0.37
0.62,-0.66,0.36
0.63,-0.66,0.36
0.63,-0.66,0.35
0.62,-0.66,0.35
0.62,-0.66,0.35
0.62,-0.66,0.36
0.61,-0.66,0.36
0.61,-0.66,0.35
0.61,-0.66,0.35
0.61,-0.65,0.35
0.6,-0.65,0.34
0.6,-0.66,0.34
0.6,-0.66,0.34
0.6,-0.65,0.34
0.59,-0.65,0.33
0.59,-0.66,0.33
0.58,-0.66,0.33
0.58,-0.67,0.32
0.57,-0.68,0.31
0.56,-0.7,0.3
0.54,-0.71,0.29
0.52,-0.72,0.28
0.52,-0.72,0.28
0.52,-0.71,0.27
0.52,-0.74,0.26
0.5,-0.81,0.26
0.5,-0.86,0.3
0.52,-0.86,0.34
0.52,-0.81,0.36
0.51,-0.79,0.36
0.48,-0.82,0.35
0.46,-0.83,0.34
0.45,-0.84,0.33
0.43,-0.86,0.33
0.42,-0.87,0.32
0.41,-0.91,0.32
0.42,-0.93,0.31
0.43,-0.94,0.31
0.42,-0.97,0.31
0.43,-1,0.32
0.42,-1.04,0.31
0.41,-1.09,0.3
0.4,-1.12,0.3
0.39,-1.16,0.32
0.38,-1.2,0.31
0.38,-1.25,0.28
0.36,-1.29,0.28
0.4,-1.29,0.3
0.43,-1.28,0.34
0.43,-1.33,0.35
0.45,-1.38,0.35
0.43,-1.41,0.32
0.41,-1.43,0.31
0.43,-1.42,0.31
0.43,-1.42,0.3
0.41,-1.43,0.29
0.38,-1.42,0.29
0.36,-1.42,0.28
0.33,-1.42,0.26
0.29,-1.41,0.24
0.26,-1.4,0.23
0.24,-1.38,0.23
0.24,-1.37,0.24
0.23,-1.38,0.25
0.2,-1.39,0.24
0.2,-1.39,0.22
0.2,-1.37,0.22
0.22,-1.34,0.2
0.21,-1.33,0.19
0.19,-1.34,0.18
0.19,-1.32,0.19
0.15,-1.32,0.2
0.17,-1.27,0.18
0.15,-1.23,0.18
0.14,-1.2,0.18
0.16,-1.16,0.17
0.16,-1.09,0.17
0.16,-1.06,0.15
0.18,-1.03,0.16
0.18,-0.97,0.16
0.17,-0.93,0.14
0.18,-0.89,0.12
0.18,-0.85,0.11
0.19,-0.79,0.12
0.17,-0.74,0.13
0.13,-0.72,0.12
0.13,-0.68,0.11
0.13,-0.63,0.12
0.13,-0.58,0.12
0.13,-0.55,0.11
0.12,-0.53,0.12
0.12,-0.5,0.12
0.13,-0.47,0.12
0.14,-0.44,0.12
0.14,-0.43,0.13
0.13,-0.44,0.14
0.13,-0.46,0.14
0.13,-0.48,0.1
0.09,-0.56,0.07
0.09,-0.58,0.05
0.11,-0.57,0.04
0.13,-0.55,0.04
0.16,-0.54,0.06
0.21,-0.55,0.08
0.26,-0.57,0.11
0.28,-0.6,0.13
0.3,-0.6,0.13
0.3,-0.63,0.13
0.29,-0.7,0.11
0.27,-0.76,0.09
0.23,-0.77,0.09
0.22,-0.78,0.09
0.23,-0.82,0.07
0.24,-0.88,0.06
0.26,-0.92,0.08
0.28,-0.96,0.09
0.32,-0.96,0.1
0.35,-0.94,0.11
0.39,-0.91,0.12
0.4,-0.91,0.13
0.39,-0.93,0.14
0.39,-0.92,0.15
0.42,-0.9,0.14
0.43,-0.88,0.15
0.38,-0.9,0.15
0.39,-0.92,0.17
0.41,-0.95,0.19
0.43,-0.96,0.2
0.41,-0.97,0.19
0.41,-0.98,0.19
0.4,-0.99,0.19
0.38,-0.99,0.19
0.38,-0.99,0.2
0.38,-0.98,0.2
0.38,-0.97,0.18
0.38,-0.97,0.19
0.39,-0.97,0.2
0.4,-0.98,0.2
0.41,-0.99,0.19
0.42,-0.99,0.17
0.42,-0.99,0.17
0.42,-0.98,0.17
0.42,-0.98,0.16
0.42,-0.98,0.15
0.42,-0.96,0.16
0.42,-0.96,0.16
0.42,-0.96,0.16
0.41,-0.97,0.16
0.41,-0.97,0.16
0.4,-0.97,0.15
0.4,-0.96,0.13
0.4,-0.95,0.13
0.4,-0.94,0.13
0.4,-0.93,0.13
0.4,-0.93,0.13
0.4,-0.94,0.13
0.41,-0.94,0.13
0.4,-0.95,0.14
0.4,-0.95,0.14
0.39,-0.94,0.14
0.39,-0.94,0.13
0.38,-0.94,0.12
0.38,-0.94,0.12
0.38,-0.94,0.12
0.38,-0.95,0.12
0.38,-0.94,0.12
0.37,-0.94,0.12
0.37,-0.94,0.13
0.37,-0.95,0.13
0.36,-0.95,0.13
0.36,-0.96,0.12
0.36,-0.96,0.12
0.36,-0.96,0.12
0.36,-0.96,0.12
0.35,-0.96,0.12
0.35,-0.96,0.12
0.35,-0.97,0.12
0.34,-0.96,0.12
0.34,-0.96,0.12
0.34,-0.95,0.12
0.35,-0.95,0.11
0.34,-0.94,0.11
0.34,-0.94,0.11
0.34,-0.94,0.11
0.34,-0.93,0.12
0.34,-0.93,0.12
0.34,-0.93,0.12
0.34,-0.92,0.12
0.33,-0.91,0.12
0.33,-0.91,0.12
0.34,-0.91,0.13
0.33,-0.91,0.13
0.33,-0.91,0.13
0.34,-0.91,0.14
0.34,-0.91,0.14
0.34,-0.92,0.14
0.35,-0.93,0.14
0.35,-0.93,0.14
0.35,-0.93,0.14
0.35,-0.93,0.14
0.36,-0.93,0.14
0.38,-0.93,0.14
0.38,-0.93,0.14
0.38,-0.93,0.14
0.39,-0.93,0.13
0.4,-0.94,0.14
0.4,-0.93,0.14
0.4,-0.93,0.14
0.4,-0.93,0.13
0.4,-0.94,0.14
0.41,-0.94,0.14
0.41,-0.94,0.14
0.41,-0.95,0.14
0.41,-0.95,0.15
0.41,-0.95,0.15
0.41,-0.95,0.15
0.41,-0.96,0.15
0.4,-0.96,0.14
0.41,-0.96,0.14
0.41,-0.95,0.14
0.4,-0.94,0.14
0.4,-0.93,0.14
0.4,-0.93,0.13
0.4,-0.91,0.13
0.39,-0.91,0.13
0.39,-0.91,0.13
0.39,-0.92,0.14
0.39,-0.92,0.13
0.39,-0.93,0.13
0.38,-0.93,0.13
0.38,-0.93,0.14
0.38,-0.93,0.14
0.39,-0.93,0.14
0.39,-0.94,0.13
0.39,-0.95,0.13
0.4,-0.95,0.13
0.39,-0.95,0.13
0.39,-0.95,0.13
0.39,-0.95,0.14
0.39,-0.95,0.14
0.39,-0.94,0.13
0.39,-0.94,0.13
0.39,-0.94,0.13
0.39,-0.93,0.14
0.39,-0.93,0.14
0.39,-0.94,0.14
0.38,-0.94,0.14
0.38,-0.94,0.14
0.38,-0.95,0.15
0.37,-0.95,0.14
0.37,-0.96,0.14
0.37,-0.96,0.14
0.37,-0.95,0.13
0.38,-0.95,0.14
0.38,-0.94,0.13
0.38,-0.94,0.13
0.38,-0.94,0.14
0.38,-0.95,0.13
0.37,-0.95,0.13
0.37,-0.95,0.13
0.37,-0.96,0.13
0.37,-0.95,0.14
0.37,-0.94,0.14
0.36,-0.95,0.13
0.36,-0.94,0.14
0.36,-0.94,0.14
0.36,-0.94,0.14
0.36,-0.93,0.14
0.35,-0.93,0.14
0.35,-0.92,0.14
0.35,-0.92,0.14
0.35,-0.91,0.14
0.35,-0.91,0.14
0.35,-0.9,0.14
0.35,-0.9,0.14
0.34,-0.91,0.14
0.34,-0.91,0.15
0.34,-0.91,0.15
0.34,-0.9,0.15
0.33,-0.9,0.14
0.33,-0.89,0.14
0.33,-0.87,0.14
0.32,-0.85,0.14
0.33,-0.84,0.14
0.32,-0.83,0.14
0.32,-0.82,0.13
0.32,-0.8,0.14
0.31,-0.77,0.13
0.3,-0.75,0.13
0.29,-0.73,0.13
0.29,-0.71,0.12
0.28,-0.68,0.12
0.28,-0.67,0.11
0.28,-0.67,0.11
0.27,-0.68,0.12
0.28,-0.68,0.12
0.28,-0.69,0.12
0.27,-0.69,0.12
0.27,-0.69,0.13
0.27,-0.69,0.13
0.29,-0.69,0.14
0.28,-0.68,0.13
0.25,-0.68,0.12
0.25,-0.68,0.12
0.27,-0.69,0.11
0.26,-0.7,0.1
0.25,-0.72,0.11
0.25,-0.75,0.12
0.26,-0.78,0.13
0.26,-0.81,0.14
0.27,-0.84,0.14
0.27,-0.86,0.13
0.27,-0.87,0.14
0.27,-0.88,0.15
0.28,-0.92,0.15
0.29,-0.96,0.15
0.31,-0.98,0.16
0.33,-1.02,0.16
0.34,-1.04,0.17
0.36,-1.04,0.17
0.38,-1.05,0.17
0.37,-1.08,0.17
0.39,-1.09,0.17
0.42,-1.1,0.17
0.44,-1.12,0.18
0.48,-1.14,0.19
0.5,-1.17,0.2
0.51,-1.21,0.19
0.5,-1.23,0.17
0.49,-1.22,0.16
0.5,-1.18,0.15
0.49,-1.13,0.15
0.49,-1.09,0.16
0.51,-1.06,0.18
0.53,-1.06,0.18
0.54,-1.06,0.18
0.56,-1.07,0.18
0.58,-1.06,0.18
0.59,-1.04,0.18
0.59,-1.03,0.18
0.6,-1.01,0.19
0.6,-0.99,0.2
0.61,-0.98,0.22
0.63,-0.96,0.25
0.65,-0.94,0.28
0.65,-0.93,0.28
0.66,-0.9,0.29
0.67,-0.85,0.31
0.68,-0.81,0.32
0.72,-0.79,0.33
0.75,-0.75,0.35
0.79,-0.76,0.36
0.84,-0.79,0.38
0.9,-0.84,0.39
0.93,-0.91,0.37
0.91,-0.98,0.33
0.87,-1.05,0.33
0.88,-1.01,0.33
0.93,-0.91,0.53
1.03,-0.71,0.54
1.03,-0.6,0.53
0.99,-0.45,0.54
0.99,-0.39,0.54
0.98,-0.5,0.53
0.86,-0.41,0.51
0.79,-0.01,0.6
0.87,0.01,0.58
0.93,-0.34,0.47
0.88,-0.52,0.42
0.82,-0.46,0.43
0.81,-0.38,0.46
0.66,-0.48,0.39
0.6,-0.48,0.32
0.65,-0.41,0.37
0.62,-0.46,0.38
0.62,-0.51,0.34
0.61,-0.53,0.32
0.6,-0.51,0.34
0.6,-0.48,0.34
0.61,-0.49,0.34
0.65,-0.5,0.35
0.69,-0.51,0.36
0.73,-0.49,0.38
0.78,-0.5,0.39
0.82,-0.51,0.36
0.86,-0.58,0.33
0.88,-0.61,0.28
0.9,-0.59,0.27
0.9,-0.58,0.27
0.87,-0.58,0.27
0.85,-0.58,0.26
0.84,-0.58,0.25
0.82,-0.57,0.25
0.82,-0.55,0.24
0.8,-0.56,0.25
0.78,-0.57,0.27
0.77,-0.57,0.27
0.77,-0.58,0.28
0.79,-0.59,0.29
0.81,-0.59,0.28
0.82,-0.6,0.28
0.8,-0.6,0.29
0.8,-0.6,0.31
0.8,-0.61,0.3
0.78,-0.63,0.29
0.78,-0.62,0.3
0.8,-0.6,0.32
0.8,-0.57,0.36
0.79,-0.57,0.38
0.78,-0.59,0.38
0.77,-0.59,0.36
0.77,-0.58,0.38
0.76,-0.59,0.38
0.75,-0.59,0.38
0.76,-0.58,0.38
0.74,-0.59,0.38
0.74,-0.59,0.38
0.74,-0.59,0.38
0.74,-0.59,0.38
0.74,-0.59,0.38
0.75,-0.59,0.37
0.75,-0.59,0.36
0.76,-0.6,0.35
0.77,-0.6,0.35
0.77,-0.6,0.34
0.77,-0.6,0.34
0.77,-0.59,0.34
0.77,-0.59,0.33
0.77,-0.59,0.33
0.77,-0.59,0.33
0.77,-0.59,0.33
0.77,-0.59,0.33
0.77,-0.59,0.33
0.77,-0.58,0.33
0.76,-0.58,0.33
0.76,-0.58,0.34
0.77,-0.58,0.34
0.77,-0.59,0.34
0.76,-0.59,0.34
0.76,-0.59,0.34
0.76,-0.59,0.34
0.76,-0.6,0.35
0.75,-0.6,0.35
0.75,-0.6,0.35
0.75,-0.6,0.35
0.75,-0.59,0.35
0.75,-0.59,0.35
0.76,-0.59,0.34
0.76,-0.6,0.34
0.75,-0.6,0.34
0.76,-0.61,0.34
0.76,-0.61,0.34
0.76,-0.6,0.34
0.76,-0.6,0.34
0.76,-0.6,0.34
0.76,-0.59,0.34
0.75,-0.6,0.34
0.75,-0.61,0.34
0.75,-0.61,0.34
0.75,-0.6,0.34
0.75,-0.61,0.34
0.74,-0.62,0.34
0.75,-0.62,0.34
0.75,-0.62,0.35
0.75,-0.62,0.35
0.75,-0.61,0.35
0.74,-0.62,0.35
0.74,-0.62,0.35
0.74,-0.62,0.35
0.74,-0.61,0.35
0.74,-0.61,0.35
0.74,-0.61,0.35
0.75,-0.62,0.35
0.75,-0.61,0.35
0.75,-0.61,0.34
0.75,-0.61,0.34
0.75,-0.61,0.34
0.75,-0.61,0.34
0.75,-0.61,0.34
0.75,-0.61,0.34
0.75,-0.61,0.34
0.76,-0.61,0.33
0.75,-0.6,0.34
0.75,-0.6,0.34
0.75,-0.6,0.34
0.75,-0.6,0.34
0.76,-0.61,0.34
0.76,-0.61,0.34
0.75,-0.61,0.34
0.76,-0.6,0.34
0.75,-0.61,0.34
0.75,-0.61,0.34
0.75,-0.61,0.34
0.75,-0.61,0.34
0.75,-0.61,0.34
0.75,-0.6,0.34
0.75,-0.61,0.34
0.75,-0.61,0.35
0.75,-0.61,0.34
0.75,-0.6,0.34
0.75,-0.6,0.34
0.75,-0.6,0.34
0.75,-0.6,0.34
0.75,-0.6,0.34
0.75,-0.6,0.33
0.76,-0.6,0.33
0.75,-0.61,0.33
0.75,-0.61,0.33
0.76,-0.61,0.34
0.75,-0.61,0.33
0.75,-0.61,0.34
0.76,-0.6,0.34
0.75,-0.6,0.34
0.74,-0.55,0.34
0.75,-0.52,0.34
0.76,-0.66,0.34
0.75,-0.63,0.34
0.75,-0.62,0.33
0.75,-0.61,0.33
0.75,-0.62,0.34
0.75,-0.62,0.34
0.75,-0.61,0.34
0.75,-0.61,0.34
0.74,-0.62,0.34
0.74,-0.62,0.34
0.74,-0.62,0.34
0.74,-0.62,0.33
0.74,-0.62,0.33
0.74,-0.61,0.33
0.74,-0.61,0.33
0.74,-0.61,0.33
0.75,-0.58,0.33
0.76,-0.56,0.32
0.76,-0.4,0.32
0.75,-0.54,0.31
0.75,-0.71,0.31
0.76,-0.54,0.33
0.73,-0.51,0.33
0.73,-0.55,0.33
0.74,-0.56,0.33
0.73,-0.54,0.32
0.72,-0.54,0.33
0.72,-0.55,0.33
0.72,-0.55,0.33
0.71,-0.55,0.32
0.71,-0.55,0.32
0.72,-0.55,0.31
0.72,-0.55,0.31
0.71,-0.55,0.31
0.71,-0.55,0.31
0.71,-0.55,0.3
0.7,-0.55,0.3
0.7,-0.55,0.29
0.71,-0.56,0.28
0.7,-0.57,0.28
0.7,-0.57,0.28
0.71,-0.58,0.27
0.71,-0.59,0.27
0.71,-0.59,0.26
0.7,-0.6,0.26
0.7,-0.61,0.26
0.71,-0.61,0.26
0.7,-0.62,0.26
0.69,-0.63,0.26
0.69,-0.65,0.26
0.69,-0.67,0.26
0.69,-0.69,0.26
0.7,-0.72,0.27
0.69,-0.8,0.26
0.69,-0.87,0.25
0.66,-0.92,0.26
0.64,-0.95,0.27
0.65,-0.98,0.26
0.65,-1.04,0.25
0.64,-1.07,0.23
0.65,-1.09,0.23
0.68,-1.13,0.23
0.68,-1.19,0.23
0.66,-1.27,0.24
0.68,-1.31,0.24
0.68,-1.36,0.22
0.66,-1.42,0.22
0.64,-1.47,0.22
0.63,-1.51,0.22
0.62,-1.54,0.22
0.54,-1.63,0.18
0.55,-1.63,0.15
0.59,-1.6,0.18
0.54,-1.62,0.19
0.52,-1.58,0.04
0.49,-1.55,0.04
0.43,-1.51,0.18
0.43,-1.46,0.18
0.43,-1.44,0.14
0.43,-1.17,0.18
0.39,-1.24,0.19
0.4,-1.28,0.17
0.39,-1.22,0.18
0.4,-1.18,0.16
0.4,-1.15,0.14
0.39,-1.12,0.13
0.39,-1.09,0.12
0.39,-1.04,0.12
0.39,-1.01,0.12
0.39,-0.97,0.12
0.39,-0.94,0.13
0.39,-0.93,0.13
0.38,-0.91,0.13
0.37,-0.9,0.13
0.37,-0.88,0.12
0.36,-0.85,0.12
0.35,-0.82,0.12
0.33,-0.78,0.12
0.31,-0.73,0.11
0.29,-0.68,0.1
0.27,-0.62,0.08
0.27,-0.57,0.08
0.27,-0.54,0.09
0.26,-0.5,0.1
0.26,-0.46,0.12
0.27,-0.41,0.12
0.26,-0.39,0.12
0.25,-0.37,0.13
0.25,-0.36,0.14
0.23,-0.36,0.14
0.22,-0.35,0.14
0.21,-0.35,0.14
0.21,-0.36,0.14
0.21,-0.39,0.14
0.21,-0.41,0.14
0.21,-0.44,0.14
0.2,-0.46,0.14
0.21,-0.48,0.14
0.22,-0.52,0.14
0.24,-0.58,0.14
0.26,-0.63,0.13
0.28,-0.66,0.13
0.29,-0.71,0.13
0.32,-0.77,0.11
0.35,-0.83,0.1
0.39,-0.89,0.1
0.41,-0.94,0.1
0.41,-0.98,0.12
0.43,-0.98,0.13
0.45,-0.95,0.13
0.46,-0.93,0.14
0.48,-0.9,0.14
0.48,-0.89,0.15
0.49,-0.88,0.16
0.5,-0.88,0.16
0.48,-0.87,0.16
0.48,-0.88,0.16
0.49,-0.89,0.16
0.48,-0.9,0.16
0.45,-0.93,0.17
0.45,-0.94,0.17
0.47,-0.94,0.17
0.45,-0.95,0.18
0.44,-0.94,0.19
0.44,-0.94,0.18
0.45,-0.93,0.18
0.46,-0.93,0.17
0.46,-0.93,0.17
0.47,-0.93,0.17
0.47,-0.93,0.18
0.47,-0.94,0.18
0.47,-0.94,0.17
0.47,-0.94,0.18
0.46,-0.95,0.19
0.45,-0.96,0.18
0.47,-0.95,0.18
0.47,-0.96,0.18
0.47,-0.95,0.18
0.47,-0.95,0.17
0.47,-0.95,0.18
0.47,-0.95,0.17
0.48,-0.94,0.18
0.48,-0.93,0.19
0.46,-0.93,0.19
0.46,-0.93,0.19
0.46,-0.93,0.19
0.45,-0.94,0.19
0.44,-0.95,0.19
0.44,-0.94,0.19
0.43,-0.93,0.19
0.43,-0.93,0.19
0.42,-0.92,0.19
0.42,-0.91,0.19
0.41,-0.9,0.19
0.41,-0.9,0.19
0.41,-0.91,0.18
0.4,-0.92,0.18
0.4,-0.92,0.18
0.4,-0.93,0.18
0.39,-0.93,0.18
0.39,-0.93,0.17
0.39,-0.93,0.17
0.39,-0.93,0.16
0.39,-0.92,0.16
0.38,-0.93,0.16
0.38,-0.93,0.15
0.38,-0.93,0.15
0.38,-0.93,0.15
0.38,-0.94,0.15
0.38,-0.93,0.15
0.38,-0.93,0.14
0.38,-0.92,0.14
0.38,-0.91,0.14
0.38,-0.91,0.13
0.39,-0.92,0.13
0.39,-0.92,0.13
0.39,-0.91,0.13
0.4,-0.91,0.13
0.41,-0.91,0.13
0.41,-0.92,0.13
0.41,-0.92,0.13
0.4,-0.92,0.14
0.4,-0.92,0.14
0.4,-0.92,0.14
0.4,-0.92,0.14
0.4,-0.92,0.14
0.4,-0.93,0.14
0.4,-0.94,0.14
0.41,-0.94,0.14
0.41,-0.94,0.14
0.41,-0.94,0.15
0.41,-0.94,0.14
0.41,-0.94,0.14
0.41,-0.94,0.15
0.41,-0.93,0.15
0.41,-0.93,0.14
0.41,-0.94,0.15
0.41,-0.94,0.15
0.4,-0.93,0.15
0.4,-0.93,0.15
0.4,-0.92,0.15
0.4,-0.92,0.15
0.4,-0.92,0.15
0.4,-0.92,0.15
0.4,-0.92,0.16
0.4,-0.92,0.16
0.4,-0.92,0.15
0.4,-0.92,0.15
0.39,-0.92,0.15
0.4,-0.92,0.14
0.4,-0.92,0.14
0.4,-0.92,0.14
0.4,-0.92,0.14
0.4,-0.92,0.14
0.4,-0.92,0.14
0.4,-0.92,0.14
0.4,-0.92,0.14
0.4,-0.92,0.14
0.4,-0.93,0.14
0.4,-0.92,0.15
0.4,-0.93,0.14
0.4,-0.93,0.15
0.4,-0.92,0.15
0.41,-0.92,0.15
0.41,-0.92,0.16
0.41,-0.92,0.16
0.41,-0.92,0.15
0.41,-0.92,0.16
0.41,-0.92,0.16
0.41,-0.91,0.16
0.42,-0.92,0.16
0.42,-0.92,0.16
0.42,-0.92,0.16
0.42,-0.93,0.16
0.42,-0.93,0.16
0.42,-0.92,0.16
0.41,-0.92,0.17
0.42,-0.92,0.17
0.43,-0.92,0.16
0.43,-0.92,0.16
0.43,-0.92,0.17
0.42,-0.92,0.17
0.42,-0.92,0.17
0.42,-0.93,0.17
0.42,-0.94,0.17
0.43,-0.94,0.17
0.42,-0.94,0.18
0.42,-0.93,0.18
0.42,-0.93,0.17
0.42,-0.94,0.17
0.42,-0.94,0.17
0.42,-0.94,0.17
0.42,-0.95,0.17
0.42,-0.95,0.17
0.42,-0.95,0.17
0.42,-0.94,0.17
0.41,-0.94,0.17
0.41,-0.94,0.17
0.4,-0.93,0.17
0.41,-0.93,0.16
0.41,-0.92,0.16
0.4,-0.92,0.16
0.39,-0.92,0.16
0.39,-0.92,0.16
0.39,-0.91,0.16
0.39,-0.92,0.16
0.39,-0.92,0.16
0.39,-0.92,0.16
0.38,-0.93,0.16
0.38,-0.93,0.16
0.38,-0.93,0.16
0.38,-0.92,0.16
0.37,-0.92,0.16
0.37,-0.91,0.16
0.37,-0.91,0.15
0.36,-0.91,0.15
0.36,-0.91,0.15
0.36,-0.92,0.14
0.37,-0.91,0.14
0.36,-0.91,0.14
0.36,-0.91,0.14
0.36,-0.91,0.14
0.35,-0.91,0.14
0.35,-0.92,0.13
0.34,-0.91,0.13
0.34,-0.91,0.13
0.34,-0.9,0.13
0.35,-0.89,0.12
0.35,-0.88,0.12
0.34,-0.88,0.12
0.34,-0.87,0.12
0.34,-0.85,0.13
0.33,-0.83,0.14
0.32,-0.81,0.14
0.31,-0.79,0.14
0.31,-0.77,0.14
0.32,-0.76,0.14
0.32,-0.74,0.14
0.31,-0.72,0.14
0.3,-0.71,0.15
0.29,-0.72,0.15
0.28,-0.75,0.14
0.28,-0.74,0.14
0.29,-0.73,0.15
0.29,-0.75,0.14
0.29,-0.73,0.15
0.31,-0.67,0.17
0.32,-0.69,0.15
0.32,-0.72,0.15
0.32,-0.72,0.16
0.33,-0.74,0.15
0.34,-0.76,0.15
0.34,-0.78,0.15
0.35,-0.8,0.15
0.36,-0.83,0.14
0.38,-0.84,0.13
0.4,-0.84,0.13
0.42,-0.85,0.14
0.44,-0.86,0.15
0.45,-0.86,0.18
0.47,-0.86,0.17
0.48,-0.86,0.16
0.49,-0.85,0.15
0.51,-0.84,0.14
0.51,-0.84,0.15
0.51,-0.82,0.18
0.51,-0.8,0.21
0.49,-0.8,0.25
0.47,-0.8,0.27
0.49,-0.79,0.26
0.5,-0.8,0.25
0.51,-0.79,0.25
0.48,-0.82,0.25
0.46,-0.84,0.27
0.47,-0.83,0.28
0.47,-0.83,0.28
0.48,-0.84,0.29
0.49,-0.86,0.29
0.52,-0.86,0.28
0.55,-0.86,0.27
0.58,-0.89,0.27
0.6,-0.9,0.27
0.62,-0.93,0.27
0.64,-0.95,0.27
0.64,-0.96,0.26
0.64,-0.97,0.26
0.7,-1,0.26
0.71,-1,0.26
0.72,-1,0.25
0.73,-1,0.23
0.73,-1.01,0.23
0.75,-1.01,0.24
0.75,-1.01,0.24
0.75,-1.01,0.23
0.76,-1,0.23
0.76,-1,0.22
0.76,-0.99,0.21
0.76,-0.99,0.21
0.77,-0.97,0.23
0.79,-0.94,0.24
0.8,-0.91,0.25
0.8,-0.88,0.27
0.8,-0.85,0.27
0.81,-0.83,0.27
0.83,-0.81,0.27
0.83,-0.79,0.27
0.82,-0.78,0.27
0.81,-0.78,0.28
0.81,-0.77,0.3
0.83,-0.76,0.32
0.84,-0.75,0.34
0.85,-0.73,0.36
0.85,-0.66,0.36
0.84,-0.64,0.36
0.82,-0.6,0.35
0.8,-0.57,0.35
0.78,-0.52,0.34
0.75,-0.51,0.34
0.74,-0.47,0.34
0.74,-0.43,0.36
0.73,-0.43,0.38
0.74,-0.43,0.38
0.75,-0.42,0.37
0.74,-0.44,0.36
0.74,-0.46,0.36
0.74,-0.47,0.36
0.74,-0.48,0.37
0.75,-0.48,0.37
0.75,-0.5,0.37
0.74,-0.54,0.37
0.76,-0.55,0.37
0.78,-0.54,0.38
0.83,-0.54,0.41
0.87,-0.55,0.42
0.9,-0.58,0.42
0.97,-0.57,0.44
1.02,-0.54,0.47
1.02,-0.52,0.49
1.04,-0.5,0.42
1,-0.52,0.4
0.97,-0.52,0.38
0.91,-0.53,0.35
0.86,-0.51,0.33
0.83,-0.51,0.32
0.78,-0.53,0.29
0.73,-0.59,0.29
0.71,-0.6,0.29
0.71,-0.54,0.27
0.68,-0.57,0.25
0.64,-0.65,0.26
0.64,-0.62,0.27
0.66,-0.63,0.27
0.66,-0.64,0.26
0.67,-0.63,0.27
0.67,-0.63,0.29
0.67,-0.64,0.3
0.69,-0.64,0.3
0.72,-0.64,0.3
0.74,-0.64,0.3
0.76,-0.64,0.31
0.77,-0.64,0.32
0.78,-0.63,0.33
0.8,-0.62,0.34
0.81,-0.63,0.35
0.83,-0.63,0.37
0.82,-0.63,0.36
0.78,-0.62,0.36
0.76,-0.62,0.34
0.74,-0.63,0.33
0.72,-0.63,0.32
0.7,-0.62,0.32
0.69,-0.62,0.32
0.7,-0.62,0.32
0.7,-0.63,0.33
0.71,-0.66,0.33
0.73,-0.62,0.32
0.74,-0.62,0.32
0.74,-0.64,0.33
0.74,-0.63,0.32
0.75,-0.64,0.31
0.79,-0.6,0.31
0.79,-0.6,0.32
0.75,-0.66,0.33
0.74,-0.65,0.32
0.72,-0.64,0.32
0.73,-0.66,0.31
0.73,-0.66,0.31
0.73,-0.65,0.31
0.73,-0.66,0.31
0.74,-0.65,0.32
0.73,-0.65,0.32
0.73,-0.65,0.33
0.72,-0.65,0.33
0.72,-0.65,0.33
0.72,-0.65,0.33
0.72,-0.64,0.33
0.73,-0.64,0.33
0.73,-0.64,0.32
0.73,-0.64,0.32
0.74,-0.65,0.32
0.73,-0.66,0.31
0.73,-0.65,0.31
0.73,-0.66,0.3
0.73,-0.65,0.3
0.73,-0.65,0.31
0.72,-0.66,0.31
0.73,-0.65,0.31
0.73,-0.65,0.31
0.73,-0.66,0.31
0.73,-0.66,0.31
0.73,-0.66,0.31
0.73,-0.66,0.3
0.73,-0.65,0.3
0.73,-0.65,0.3
0.73,-0.65,0.31
0.72,-0.65,0.31
0.72,-0.65,0.31
0.73,-0.65,0.31
0.73,-0.66,0.31
0.73,-0.66,0.31
0.73,-0.66,0.3
0.73,-0.64,0.3
0.73,-0.65,0.31
0.73,-0.67,0.3
0.72,-0.65,0.3
0.72,-0.65,0.3
0.73,-0.65,0.3
0.73,-0.65,0.3
0.74,-0.65,0.3
0.73,-0.65,0.3
0.73,-0.65,0.3
0.74,-0.65,0.31
0.73,-0.65,0.31
0.73,-0.65,0.31
0.73,-0.65,0.31
0.73,-0.65,0.3
0.73,-0.65,0.31
0.73,-0.64,0.31
0.73,-0.64,0.3
0.73,-0.65,0.3
0.73,-0.65,0.31
0.73,-0.65,0.3
0.73,-0.65,0.3
0.73,-0.65,0.3
0.73,-0.64,0.31
0.74,-0.64,0.31
0.74,-0.65,0.31
0.73,-0.65,0.31
0.73,-0.64,0.3
0.73,-0.64,0.3
0.73,-0.64,0.3
0.73,-0.64,0.3
0.73,-0.64,0.3
0.73,-0.64,0.3
0.73,-0.64,0.3
0.73,-0.64,0.3
0.73,-0.64,0.3
0.73,-0.62,0.3
0.74,-0.59,0.3
0.73,-0.6,0.3
0.71,-0.67,0.3
0.72,-0.65,0.31
0.72,-0.59,0.31
0.72,-0.61,0.31
0.71,-0.63,0.31
0.72,-0.62,0.31
0.72,-0.62,0.3
0.71,-0.62,0.3
0.71,-0.62,0.3
0.7,-0.62,0.3
0.7,-0.62,0.3
0.7,-0.63,0.3
0.7,-0.63,0.3
0.7,-0.63,0.3
0.7,-0.63,0.3
0.7,-0.63,0.29
0.69,-0.63,0.29
0.68,-0.63,0.3
0.68,-0.62,0.3
0.67,-0.63,0.3
0.67,-0.62,0.3
0.66,-0.62,0.29
0.66,-0.63,0.29
0.66,-0.63,0.29
0.65,-0.64,0.29
0.65,-0.64,0.28
0.65,-0.64,0.27
0.64,-0.65,0.27
0.64,-0.65,0.27
0.64,-0.65,0.26
0.63,-0.66,0.25
0.63,-0.67,0.25
0.62,-0.68,0.25
0.62,-0.69,0.25
0.61,-0.7,0.25
0.6,-0.74,0.25
0.59,-0.75,0.24
0.58,-0.77,0.25
0.58,-0.78,0.24
0.57,-0.81,0.24
0.55,-0.9,0.24
0.55,-0.99,0.26
0.55,-1.04,0.28
0.53,-1.07,0.28
0.51,-1.1,0.28
0.49,-1.18,0.32
0.48,-1.25,0.35
0.49,-1.28,0.35
0.44,-1.42,0.3
0.43,-1.5,0.27
0.47,-1.47,0.24
0.49,-1.53,0.26
0.5,-1.62,0.28
0.48,-1.69,0.28
0.52,-1.69,0.3
0.57,-1.62,0.29
0.55,-1.6,0.27
0.53,-1.61,0.25
0.53,-1.55,0.27
0.52,-1.49,0.29
0.52,-1.48,0.26
0.5,-1.49,0.25
0.49,-1.48,0.24
0.47,-1.46,0.23
0.46,-1.44,0.22
0.45,-1.4,0.22
0.43,-1.35,0.21
0.4,-1.29,0.2
0.38,-1.25,0.18
0.36,-1.2,0.16
0.35,-1.14,0.14
0.33,-1.08,0.13
0.32,-1.02,0.12
0.31,-0.95,0.13
0.29,-0.89,0.14
0.3,-0.84,0.14
0.29,-0.79,0.15
0.27,-0.76,0.15
0.27,-0.72,0.14
0.25,-0.67,0.14
0.23,-0.62,0.14
0.24,-0.58,0.13
0.24,-0.56,0.12
0.22,-0.51,0.12
0.22,-0.48,0.13
0.21,-0.46,0.14
0.2,-0.44,0.15
0.2,-0.45,0.15
0.2,-0.44,0.15
0.21,-0.44,0.14
0.21,-0.44,0.13
0.22,-0.44,0.11
0.22,-0.44,0.1
0.23,-0.45,0.09
0.23,-0.46,0.1
0.23,-0.46,0.1
0.23,-0.47,0.09
0.25,-0.5,0.1
0.26,-0.54,0.11
0.26,-0.56,0.11
0.26,-0.58,0.11
0.27,-0.62,0.1
0.27,-0.67,0.09
0.28,-0.7,0.09
0.3,-0.74,0.09
0.31,-0.77,0.08
0.32,-0.8,0.08
0.34,-0.84,0.08
0.35,-0.86,0.08
0.36,-0.88,0.08
0.37,-0.91,0.09
0.38,-0.92,0.1
0.39,-0.93,0.11
0.42,-0.93,0.13
0.44,-0.92,0.14
0.45,-0.91,0.14
0.45,-0.91,0.14
0.46,-0.91,0.14
0.46,-0.92,0.15
0.44,-0.92,0.16
0.44,-0.92,0.16
0.44,-0.92,0.17
0.44,-0.92,0.18
0.44,-0.92,0.17
0.43,-0.93,0.17
0.43,-0.95,0.18
0.45,-0.94,0.19
0.44,-0.94,0.19
0.43,-0.94,0.21
0.45,-0.94,0.22
0.45,-0.94,0.21
0.42,-0.94,0.21
0.44,-0.93,0.19
0.45,-0.92,0.21
0.44,-0.93,0.22
0.45,-0.92,0.22
0.46,-0.9,0.22
0.45,-0.91,0.21
0.45,-0.92,0.2
0.45,-0.92,0.21
0.45,-0.92,0.21
0.45,-0.91,0.21
0.45,-0.92,0.19
0.44,-0.92,0.19
0.44,-0.92,0.2
0.44,-0.92,0.19
0.44,-0.91,0.19
0.44,-0.91,0.19
0.44,-0.91,0.19
0.44,-0.9,0.18
0.43,-0.9,0.18
0.43,-0.9,0.18
0.42,-0.9,0.18
0.42,-0.91,0.17
0.41,-0.92,0.17
0.41,-0.93,0.17
0.41,-0.94,0.17
0.41,-0.94,0.16
0.41,-0.95,0.16
0.41,-0.95,0.16
0.4,-0.95,0.16
0.4,-0.95,0.16
0.4,-0.94,0.15
0.4,-0.93,0.15
0.4,-0.93,0.15
0.4,-0.93,0.15
0.4,-0.93,0.15
0.4,-0.93,0.15
0.4,-0.93,0.15
0.4,-0.93,0.16
0.4,-0.92,0.15
0.4,-0.92,0.15
0.4,-0.91,0.15
0.4,-0.91,0.15
0.4,-0.91,0.15
0.4,-0.92,0.15
0.4,-0.93,0.15
0.4,-0.94,0.15
0.4,-0.94,0.15
0.4,-0.94,0.15
0.4,-0.94,0.14
0.4,-0.94,0.13
0.4,-0.93,0.13
0.4,-0.92,0.12
0.41,-0.92,0.12
0.41,-0.91,0.12
0.41,-0.92,0.12
0.4,-0.92,0.13
0.4,-0.91,0.13
0.4,-0.92,0.12
0.4,-0.92,0.12
0.4,-0.92,0.12
0.39,-0.92,0.12
0.4,-0.92,0.12
0.4,-0.92,0.12
0.4,-0.91,0.12
0.4,-0.9,0.12
0.4,-0.91,0.12
0.4,-0.91,0.11
0.41,-0.91,0.12
0.41,-0.92,0.12
0.41,-0.92,0.12
0.42,-0.92,0.13
0.42,-0.92,0.13
0.42,-0.92,0.13
0.42,-0.93,0.14
0.42,-0.94,0.14
0.42,-0.94,0.15
0.42,-0.95,0.15
0.42,-0.95,0.16
0.42,-0.95,0.16
0.42,-0.95,0.16
0.42,-0.94,0.16
0.42,-0.94,0.16
0.43,-0.94,0.16
0.43,-0.94,0.16
0.43,-0.94,0.17
0.42,-0.94,0.17
0.41,-0.94,0.18
0.41,-0.94,0.18
0.41,-0.94,0.18
0.41,-0.93,0.18
0.41,-0.93,0.18
0.41,-0.93,0.17
0.4,-0.93,0.17
0.4,-0.93,0.18
0.4,-0.93,0.17
0.4,-0.93,0.17
0.4,-0.93,0.17
0.4,-0.93,0.16
0.4,-0.93,0.16
0.4,-0.93,0.15
0.41,-0.93,0.16
0.41,-0.94,0.16
0.4,-0.94,0.16
0.4,-0.94,0.15
0.41,-0.93,0.15
0.4,-0.93,0.15
0.4,-0.93,0.15
0.4,-0.93,0.14
0.4,-0.93,0.14
0.4,-0.93,0.14
0.4,-0.93,0.14
0.4,-0.93,0.14
0.39,-0.92,0.14
0.39,-0.92,0.14
0.39,-0.93,0.14
0.39,-0.93,0.13
0.39,-0.93,0.13
0.39,-0.93,0.13
0.4,-0.93,0.13
0.39,-0.93,0.13
0.4,-0.93,0.12
0.4,-0.93,0.13
0.39,-0.93,0.12
0.39,-0.93,0.12
0.39,-0.93,0.12
0.39,-0.93,0.12
0.39,-0.93,0.12
0.38,-0.93,0.12
0.39,-0.93,0.12
0.38,-0.93,0.12
0.38,-0.93,0.12
0.38,-0.92,0.12
0.37,-0.91,0.12
0.37,-0.91,0.12
0.36,-0.9,0.12
0.35,-0.9,0.12
0.35,-0.9,0.13
0.35,-0.9,0.13
0.35,-0.87,0.13
0.33,-0.86,0.14
0.36,-0.84,0.15
0.36,-0.81,0.15
0.33,-0.8,0.14
0.33,-0.8,0.13
0.35,-0.8,0.13
0.36,-0.79,0.14
0.34,-0.78,0.13
0.32,-0.75,0.12
0.31,-0.72,0.12
0.3,-0.7,0.13
0.29,-0.68,0.13
0.29,-0.66,0.13
0.29,-0.65,0.12
0.28,-0.65,0.12
0.28,-0.66,0.12
0.29,-0.68,0.12
0.3,-0.69,0.13
0.29,-0.69,0.14
0.29,-0.69,0.15
0.29,-0.7,0.15
0.28,-0.72,0.17
0.29,-0.72,0.17
0.3,-0.73,0.17
0.3,-0.74,0.16
0.31,-0.74,0.16
0.31,-0.76,0.16
0.31,-0.78,0.16
0.31,-0.81,0.16
0.32,-0.83,0.17
0.32,-0.83,0.18
0.33,-0.84,0.18
0.33,-0.86,0.19
0.33,-0.87,0.19
0.35,-0.87,0.18
0.35,-0.88,0.17
0.34,-0.89,0.16
0.34,-0.89,0.16
0.35,-0.91,0.16
0.38,-0.92,0.18
0.4,-0.92,0.21
0.42,-0.93,0.23
0.42,-0.94,0.24
0.43,-0.94,0.23
0.46,-0.95,0.22
0.49,-0.97,0.21
0.51,-0.98,0.2
0.53,-0.99,0.21
0.54,-1,0.22
0.54,-1,0.23
0.55,-1,0.24
0.57,-1,0.26
0.58,-0.99,0.27
0.61,-0.99,0.26
0.63,-1,0.26
0.65,-0.99,0.26
0.66,-0.99,0.26
0.68,-0.99,0.26
0.68,-0.99,0.25
0.69,-0.99,0.26
0.69,-0.99,0.26
0.7,-0.99,0.26
0.7,-1.01,0.25
0.7,-1.01,0.26
0.7,-1.02,0.26
0.72,-1.03,0.27
0.73,-1.04,0.27
0.73,-1.04,0.27
0.73,-1.05,0.28
0.73,-1.07,0.28
0.72,-1.09,0.27
0.72,-1.12,0.27
0.72,-1.15,0.26
0.74,-1.18,0.25
0.75,-1.19,0.26
0.76,-1.18,0.28
0.75,-1.13,0.32
0.72,-0.97,0.33
0.69,-0.88,0.33
0.67,-0.8,0.32
0.65,-0.73,0.32
0.63,-0.67,0.32
0.62,-0.63,0.33
0.6,-0.59,0.33
0.59,-0.57,0.33
0.58,-0.56,0.33
0.57,-0.55,0.34
0.57,-0.56,0.36
0.57,-0.56,0.38
0.59,-0.57,0.37
0.58,-0.61,0.36
0.58,-0.64,0.35
0.59,-0.64,0.34
0.62,-0.64,0.36
0.69,-0.64,0.42
0.77,-0.65,0.46
0.84,-0.69,0.48
0.88,-0.7,0.49
0.9,-0.67,0.5
0.91,-0.64,0.49
0.89,-0.64,0.46
0.91,-0.62,0.44
0.91,-0.6,0.4
0.86,-0.62,0.37
0.77,-0.6,0.36
0.73,-0.61,0.36
0.69,-0.61,0.35
0.65,-0.62,0.34
0.62,-0.64,0.33
0.59,-0.66,0.32
0.56,-0.68,0.3
0.55,-0.68,0.29
0.53,-0.69,0.27
0.52,-0.7,0.26
0.53,-0.72,0.27
0.54,-0.72,0.28
0.54,-0.72,0.29
0.55,-0.73,0.3
0.55,-0.72,0.32
0.57,-0.72,0.32
0.58,-0.73,0.33
0.59,-0.73,0.35
0.62,-0.73,0.37
0.64,-0.73,0.38
0.67,-0.73,0.39
0.7,-0.74,0.39
0.72,-0.74,0.39
0.73,-0.74,0.39
0.73,-0.74,0.38
0.72,-0.74,0.36
0.69,-0.74,0.34
0.68,-0.73,0.34
0.67,-0.73,0.33
0.65,-0.74,0.33
0.64,-0.74,0.33
0.63,-0.73,0.32
0.63,-0.71,0.32
0.62,-0.74,0.31
0.6,-0.76,0.31
0.59,-0.76,0.31
0.61,-0.75,0.3
0.61,-0.76,0.29
0.61,-0.76,0.3
0.62,-0.73,0.32
0.62,-0.73,0.32
0.63,-0.74,0.33
0.65,-0.73,0.33
0.65,-0.73,0.33
0.65,-0.74,0.34
0.66,-0.74,0.34
0.66,-0.72,0.34
0.66,-0.74,0.34
0.65,-0.74,0.34
0.65,-0.72,0.35
0.63,-0.73,0.34
0.62,-0.73,0.34
0.63,-0.72,0.35
0.62,-0.73,0.35
0.62,-0.73,0.34
0.63,-0.72,0.35
0.63,-0.72,0.35
0.63,-0.73,0.35
0.64,-0.72,0.34
0.65,-0.71,0.33
0.65,-0.72,0.32
0.65,-0.73,0.32
0.65,-0.7,0.32
0.66,-0.71,0.32
0.66,-0.73,0.32
0.66,-0.71,0.32
0.67,-0.68,0.32
0.67,-0.7,0.31
0.66,-0.73,0.31
0.66,-0.7,0.31
0.65,-0.72,0.3
0.65,-0.75,0.3
0.66,-0.71,0.31
0.67,-0.7,0.32
0.67,-0.72,0.31
0.67,-0.71,0.3
0.66,-0.67,0.29
0.65,-0.75,0.31
0.66,-0.71,0.32
0.66,-0.7,0.31
0.65,-0.71,0.31
0.65,-0.71,0.32
0.65,-0.71,0.33
0.65,-0.71,0.33
0.65,-0.71,0.33
0.64,-0.71,0.33
0.65,-0.71,0.33
0.65,-0.72,0.33
0.65,-0.72,0.33
0.65,-0.72,0.33
0.65,-0.72,0.33
0.65,-0.72,0.33
0.65,-0.73,0.32
0.65,-0.73,0.32
0.66,-0.73,0.32
0.65,-0.73,0.32
0.65,-0.73,0.32
0.65,-0.73,0.32
0.65,-0.72,0.32
0.64,-0.72,0.32
0.65,-0.72,0.31
0.65,-0.73,0.31
0.65,-0.72,0.32
0.65,-0.72,0.31
0.66,-0.72,0.31
0.66,-0.72,0.31
0.66,-0.72,0.31
0.66,-0.72,0.31
0.66,-0.72,0.31
0.66,-0.72,0.31
0.66,-0.72,0.31
0.65,-0.72,0.31
0.65,-0.72,0.31
0.64,-0.72,0.31
0.65,-0.72,0.31
0.64,-0.73,0.31
0.64,-0.73,0.31
0.64,-0.72,0.31
0.64,-0.72,0.31
0.64,-0.73,0.31
0.64,-0.72,0.31
0.64,-0.72,0.31
0.64,-0.72,0.31
0.64,-0.72,0.31
0.64,-0.72,0.31
0.64,-0.73,0.31
0.64,-0.73,0.31
0.64,-0.73,0.31
0.64,-0.72,0.31
0.63,-0.72,0.3
0.63,-0.72,0.3
0.63,-0.72,0.3
0.63,-0.72,0.31
0.63,-0.72,0.31
0.63,-0.72,0.31
0.63,-0.72,0.3
0.63,-0.72,0.3
0.63,-0.72,0.3
0.62,-0.72,0.3
0.62,-0.73,0.3
0.62,-0.73,0.3
0.62,-0.73,0.3
0.62,-0.73,0.3
0.61,-0.74,0.3
0.61,-0.74,0.3
0.61,-0.74,0.3
0.6,-0.74,0.3
0.6,-0.74,0.3
0.59,-0.74,0.3
0.59,-0.74,0.3
0.59,-0.74,0.29
0.59,-0.74,0.29
0.58,-0.74,0.29
0.57,-0.74,0.28
0.56,-0.74,0.28
0.56,-0.75,0.28
0.55,-0.77,0.29
0.55,-0.77,0.29
0.54,-0.77,0.29
0.53,-0.77,0.29
0.53,-0.77,0.28
0.52,-0.77,0.28
0.52,-0.77,0.28
0.52,-0.77,0.28
0.51,-0.78,0.28
0.51,-0.79,0.27
0.51,-0.8,0.27
0.49,-0.8,0.27
0.48,-0.81,0.27
0.48,-0.82,0.27
0.48,-0.83,0.27
0.48,-0.84,0.27
0.48,-0.86,0.28
0.48,-0.88,0.28
0.48,-0.9,0.28
0.48,-0.92,0.27
0.48,-0.95,0.27
0.47,-1,0.28
0.47,-1.05,0.29
0.5,-1.12,0.32
0.54,-1.15,0.33
0.54,-1.14,0.36
0.51,-1.18,0.32
0.51,-1.2,0.28
0.51,-1.17,0.27
0.52,-1.15,0.29
0.52,-1.16,0.3
0.52,-1.2,0.29
0.53,-1.25,0.28
0.54,-1.28,0.29
0.53,-1.32,0.3
0.53,-1.35,0.3
0.53,-1.38,0.29
0.52,-1.4,0.29
0.49,-1.44,0.29
0.47,-1.45,0.28
0.48,-1.42,0.28
0.47,-1.41,0.26
0.44,-1.41,0.25
0.42,-1.39,0.25
0.4,-1.39,0.24
0.4,-1.38,0.24
0.38,-1.38,0.23
0.37,-1.38,0.22
0.36,-1.37,0.21
0.34,-1.35,0.21
0.33,-1.32,0.2
0.32,-1.3,0.19
0.3,-1.26,0.18
0.29,-1.24,0.18
0.27,-1.2,0.18
0.28,-1.17,0.16
0.28,-1.13,0.16
0.25,-1.05,0.18
0.24,-0.99,0.19
0.26,-0.94,0.16
0.27,-0.92,0.14
0.23,-0.87,0.15
0.24,-0.8,0.15
0.24,-0.78,0.14
0.21,-0.76,0.14
0.22,-0.71,0.15
0.2,-0.69,0.14
0.19,-0.65,0.12
0.19,-0.62,0.13
0.2,-0.59,0.13
0.19,-0.56,0.12
0.16,-0.54,0.12
0.17,-0.5,0.13
0.17,-0.48,0.14
0.18,-0.46,0.13
0.18,-0.47,0.13
0.18,-0.46,0.13
0.19,-0.46,0.13
0.18,-0.47,0.13
0.18,-0.47,0.14
0.19,-0.49,0.14
0.19,-0.52,0.13
0.2,-0.55,0.13
0.21,-0.57,0.12
0.22,-0.6,0.12
0.23,-0.63,0.12
0.24,-0.65,0.12
0.25,-0.67,0.11
0.26,-0.69,0.11
0.27,-0.72,0.11
0.29,-0.74,0.11
0.3,-0.76,0.1
0.3,-0.78,0.1
0.31,-0.81,0.1
0.33,-0.84,0.1
0.34,-0.88,0.1
0.37,-0.92,0.1
0.38,-0.95,0.11
0.38,-0.97,0.13
0.38,-0.98,0.13
0.38,-0.98,0.13
0.38,-0.96,0.14
0.39,-0.95,0.15
0.39,-0.91,0.14
0.39,-0.9,0.16
0.38,-0.9,0.17
0.4,-0.9,0.17
0.4,-0.91,0.16
0.4,-0.91,0.17
0.39,-0.93,0.17
0.39,-0.95,0.17
0.4,-0.94,0.17
0.39,-0.94,0.17
0.38,-0.95,0.17
0.39,-0.94,0.16
0.41,-0.94,0.16
0.41,-0.94,0.17
0.41,-0.95,0.17
0.42,-0.94,0.17
0.42,-0.94,0.16
0.43,-0.95,0.16
0.43,-0.94,0.17
0.44,-0.94,0.17
0.44,-0.93,0.17
0.43,-0.94,0.18
0.42,-0.94,0.19
0.43,-0.94,0.19
0.42,-0.94,0.2
0.41,-0.94,0.21
0.42,-0.94,0.21
0.41,-0.94,0.21
0.4,-0.94,0.2
0.4,-0.95,0.2
0.4,-0.96,0.2
0.4,-0.96,0.2
0.39,-0.95,0.2
0.39,-0.95,0.2
0.39,-0.94,0.19
0.4,-0.94,0.19
0.39,-0.93,0.18
0.39,-0.92,0.17
0.39,-0.92,0.17
0.4,-0.91,0.16
0.4,-0.91,0.16
0.4,-0.91,0.16
0.4,-0.91,0.15
0.4,-0.91,0.15
0.4,-0.91,0.15
0.39,-0.92,0.14
0.39,-0.93,0.14
0.39,-0.93,0.14
0.38,-0.94,0.13
0.39,-0.95,0.13
0.39,-0.95,0.12
0.39,-0.95,0.12
0.39,-0.96,0.12
0.39,-0.95,0.12
0.39,-0.94,0.12
0.39,-0.94,0.12
0.39,-0.94,0.12
0.38,-0.94,0.11
0.38,-0.94,0.12
0.38,-0.94,0.12
0.37,-0.94,0.12
0.37,-0.94,0.12
0.37,-0.94,0.12
0.36,-0.93,0.13
0.37,-0.93,0.13
0.37,-0.93,0.13
0.37,-0.93,0.13
0.37,-0.93,0.14
0.37,-0.93,0.14
0.38,-0.93,0.14
0.37,-0.93,0.14
0.37,-0.93,0.14
0.38,-0.94,0.14
0.38,-0.94,0.14
0.38,-0.94,0.14
0.38,-0.94,0.14
0.38,-0.94,0.15
0.38,-0.93,0.15
0.39,-0.93,0.15
0.39,-0.93,0.15
0.38,-0.94,0.15
0.38,-0.94,0.15
0.38,-0.94,0.15
0.39,-0.94,0.16
0.38,-0.94,0.16
0.38,-0.94,0.16
0.39,-0.93,0.15
0.39,-0.93,0.15
0.39,-0.94,0.15
0.39,-0.94,0.15
0.39,-0.94,0.15
0.39,-0.94,0.15
0.39,-0.94,0.14
0.39,-0.94,0.14
0.39,-0.94,0.14
0.39,-0.94,0.14
0.39,-0.93,0.14
0.39,-0.93,0.14
0.39,-0.93,0.14
0.39,-0.93,0.14
0.39,-0.93,0.14
0.39,-0.93,0.14
0.39,-0.94,0.13
0.39,-0.94,0.13
0.38,-0.94,0.13
0.38,-0.94,0.13
0.39,-0.94,0.13
0.39,-0.94,0.13
0.39,-0.94,0.12
0.39,-0.94,0.12
0.39,-0.94,0.12
0.39,-0.94,0.12
0.39,-0.94,0.12
0.39,-0.94,0.13
0.38,-0.94,0.13
0.38,-0.94,0.12
0.38,-0.95,0.12
0.38,-0.95,0.12
0.38,-0.95,0.12
0.38,-0.95,0.13
0.38,-0.94,0.13
0.37,-0.94,0.13
0.37,-0.94,0.13
0.37,-0.94,0.13
0.37,-0.94,0.13
0.37,-0.94,0.12
0.36,-0.94,0.12
0.36,-0.94,0.12
0.36,-0.94,0.12
0.36,-0.94,0.12
0.36,-0.94,0.13
0.36,-0.94,0.12
0.36,-0.93,0.12
0.36,-0.92,0.13
0.37,-0.93,0.13
0.37,-0.92,0.13
0.37,-0.89,0.13
0.35,-0.9,0.12
0.35,-0.89,0.12
0.35,-0.87,0.14
0.35,-0.86,0.16
0.34,-0.86,0.14
0.33,-0.85,0.12
0.33,-0.82,0.13
0.33,-0.8,0.15
0.33,-0.78,0.14
0.34,-0.74,0.14
0.32,-0.71,0.15
0.29,-0.72,0.14
0.3,-0.7,0.14
0.3,-0.67,0.14
0.29,-0.65,0.13
0.28,-0.64,0.13
0.28,-0.62,0.13
0.26,-0.61,0.12
0.26,-0.6,0.12
0.27,-0.57,0.12
0.29,-0.56,0.14
0.28,-0.6,0.15
0.27,-0.62,0.16
0.28,-0.62,0.17
0.27,-0.65,0.17
0.27,-0.67,0.17
0.27,-0.68,0.16
0.26,-0.7,0.15
0.26,-0.73,0.16
0.28,-0.76,0.17
0.3,-0.81,0.18
0.31,-0.87,0.19
0.31,-0.91,0.2
0.32,-0.95,0.2
0.34,-0.96,0.22
0.34,-0.95,0.22
0.34,-0.96,0.21
0.34,-0.96,0.22
0.34,-0.95,0.22
0.36,-0.94,0.23
0.38,-0.96,0.24
0.42,-0.99,0.25
0.44,-1.02,0.25
0.46,-1.04,0.25
0.5,-1.07,0.25
0.53,-1.09,0.24
0.54,-1.1,0.24
0.56,-1.1,0.26
0.58,-1.11,0.27
0.59,-1.13,0.28
0.6,-1.13,0.28
0.62,-1.12,0.27
0.62,-1.11,0.27
0.63,-1.09,0.27
0.65,-1.06,0.28
0.68,-1.03,0.3
0.71,-0.99,0.3
0.71,-0.96,0.3
0.71,-0.93,0.3
0.72,-0.91,0.3
0.73,-0.9,0.3
0.75,-0.89,0.31
0.77,-0.9,0.31
0.77,-0.89,0.31
0.78,-0.89,0.33
0.8,-0.87,0.37
0.84,-0.85,0.39
0.87,-0.84,0.39
0.87,-0.83,0.39
0.88,-0.83,0.39
0.89,-0.86,0.39
0.89,-0.88,0.39
0.88,-0.89,0.39
0.87,-0.88,0.38
0.86,-0.86,0.38
0.84,-0.8,0.38
0.82,-0.74,0.38
0.81,-0.68,0.39
0.8,-0.6,0.38
0.78,-0.53,0.38
0.76,-0.47,0.37
0.73,-0.44,0.37
0.69,-0.41,0.37
0.68,-0.35,0.38
0.68,-0.35,0.37
0.66,-0.34,0.37
0.65,-0.33,0.37
0.65,-0.34,0.37
0.65,-0.37,0.38
0.65,-0.41,0.38
0.64,-0.4,0.4
0.7,-0.36,0.45
0.77,-0.36,0.54
0.85,-0.43,0.6
0.94,-0.5,0.63
0.97,-0.42,0.63
1.04,-0.27,0.7
1.12,-0.35,0.72
1.15,-0.55,0.59
1.16,-0.59,0.42
1.03,-0.52,0.42
0.94,-0.5,0.45
0.86,-0.54,0.46
0.76,-0.57,0.43
0.66,-0.56,0.4
0.61,-0.52,0.37
0.6,-0.5,0.36
0.57,-0.53,0.34
0.54,-0.55,0.32
0.55,-0.54,0.31
0.54,-0.56,0.3
0.55,-0.57,0.3
0.56,-0.55,0.31
0.57,-0.54,0.33
0.59,-0.54,0.35
0.6,-0.52,0.39
0.63,-0.48,0.45
0.7,-0.49,0.48
0.78,-0.56,0.49
0.84,-0.58,0.52
0.9,-0.6,0.49
0.95,-0.61,0.44
0.94,-0.62,0.43
0.92,-0.63,0.42
0.91,-0.62,0.39
0.88,-0.61,0.39
0.8,-0.6,0.38
0.76,-0.6,0.38
0.72,-0.59,0.37
0.69,-0.59,0.36
0.68,-0.59,0.35
0.67,-0.58,0.35
0.67,-0.58,0.35
0.68,-0.59,0.35
0.69,-0.61,0.36
0.71,-0.61,0.37
0.73,-0.61,0.37
0.74,-0.61,0.37
0.75,-0.61,0.4
0.76,-0.61,0.4
0.76,-0.62,0.39
0.75,-0.63,0.4
0.75,-0.61,0.39
0.74,-0.63,0.39
0.73,-0.63,0.39
0.73,-0.61,0.4
0.72,-0.63,0.4
0.7,-0.63,0.4
0.7,-0.61,0.39
0.7,-0.62,0.39
0.69,-0.64,0.39
0.69,-0.63,0.39
0.7,-0.63,0.38
0.72,-0.63,0.38
0.72,-0.62,0.38
0.71,-0.62,0.38
0.72,-0.62,0.38
0.72,-0.63,0.38
0.72,-0.65,0.38
0.72,-0.64,0.38
0.72,-0.63,0.38
0.72,-0.63,0.38
0.72,-0.62,0.38
0.72,-0.62,0.39
0.71,-0.64,0.38
0.71,-0.64,0.38
0.71,-0.65,0.38
0.71,-0.63,0.38
0.72,-0.63,0.39
0.71,-0.64,0.39
0.71,-0.63,0.39
0.71,-0.65,0.38
0.7,-0.65,0.38
0.71,-0.62,0.38
0.7,-0.62,0.38
0.7,-0.63,0.38
0.71,-0.64,0.38
0.71,-0.64,0.38
0.71,-0.64,0.38
0.71,-0.64,0.38
0.71,-0.64,0.38
0.71,-0.63,0.39
0.71,-0.62,0.39
0.72,-0.62,0.39
0.72,-0.64,0.39
0.71,-0.63,0.38
0.71,-0.63,0.38
0.71,-0.64,0.38
0.7,-0.64,0.38
0.71,-0.64,0.38
0.7,-0.65,0.38
0.7,-0.65,0.38
0.71,-0.64,0.39
0.71,-0.63,0.38
0.71,-0.63,0.38
0.7,-0.65,0.38
0.71,-0.65,0.38
0.71,-0.62,0.38
0.71,-0.62,0.38
0.71,-0.63,0.38
0.71,-0.65,0.38
0.71,-0.65,0.39
0.71,-0.61,0.39
0.71,-0.63,0.38
0.71,-0.63,0.38
0.7,-0.63,0.38
0.7,-0.63,0.38
0.71,-0.63,0.38
0.71,-0.63,0.38
0.72,-0.63,0.39
0.72,-0.63,0.39
0.72,-0.63,0.38
0.72,-0.63,0.38
0.72,-0.63,0.38
0.72,-0.63,0.38
0.71,-0.64,0.38
0.71,-0.64,0.38
0.71,-0.63,0.39
0.72,-0.63,0.39
0.73,-0.63,0.39
0.74,-0.63,0.39
0.76,-0.63,0.38
0.77,-0.62,0.38
0.8,-0.61,0.39
0.82,-0.6,0.38
0.85,-0.6,0.36
0.88,-0.61,0.33
0.9,-0.6,0.32
0.92,-0.59,0.32
0.97,-0.59,0.33
1.09,-0.57,0.31
1.11,-0.57,0.32
1.1,-0.57,0.35
1.08,-0.56,0.38
1.06,-0.53,0.4
1.05,-0.51,0.39
1.04,-0.47,0.38
1.04,-0.44,0.37
1.05,-0.44,0.35
1.07,-0.42,0.36
1.07,-0.4,0.38
1.08,-0.4,0.4
1.1,-0.41,0.4
1.08,-0.4,0.4
1.07,-0.38,0.39
1.09,-0.36,0.41
1.08,-0.36,0.43
1.04,-0.33,0.46
1.01,-0.29,0.47
0.97,-0.28,0.46
0.99,-0.25,0.45
1,-0.26,0.46
1,-0.29,0.47
1.03,-0.23,0.5
1.02,-0.18,0.52
1.01,-0.17,0.51
0.93,-0.13,0.49
0.87,-0.12,0.5
0.83,-0.1,0.51
0.82,-0.1,0.5
0.83,-0.04,0.49
0.84,-0.04,0.5
0.86,-0.08,0.51
0.87,-0.04,0.52
0.86,0.01,0.56
0.82,0,0.59
0.79,0,0.59
0.74,0.01,0.59
0.72,0.01,0.58
0.73,0.01,0.55
0.74,-0.02,0.52
0.75,-0.01,0.5
0.75,0.01,0.49
0.76,-0.01,0.49
0.78,0,0.49
0.77,0.02,0.5
0.75,0.06,0.51
0.74,0.07,0.51
0.72,0.07,0.49
0.72,0.1,0.48
0.73,0.12,0.48
0.74,0.15,0.5
0.74,0.12,0.48
0.74,0.15,0.47
0.77,0.17,0.47
0.79,0.18,0.46
0.78,0.19,0.46
0.77,0.23,0.47
0.74,0.25,0.48
0.72,0.26,0.48
0.71,0.29,0.49
0.7,0.3,0.5
0.68,0.31,0.5
0.66,0.32,0.5
0.66,0.32,0.49
0.67,0.31,0.49
0.69,0.32,0.48
0.71,0.33,0.49
0.7,0.34,0.5
0.69,0.35,0.51
0.68,0.35,0.52
0.67,0.36,0.52
0.66,0.37,0.54
0.66,0.37,0.55
0.67,0.37,0.56
0.69,0.37,0.56
0.71,0.37,0.56
0.72,0.37,0.56
0.74,0.38,0.56
0.74,0.39,0.57
0.72,0.4,0.57
0.7,0.41,0.57
0.69,0.41,0.56
0.67,0.42,0.57
0.66,0.42,0.57
0.66,0.42,0.57
0.65,0.43,0.57
0.66,0.42,0.57
0.67,0.42,0.57
0.67,0.43,0.57
0.67,0.43,0.57
0.66,0.44,0.58
0.66,0.44,0.58
0.65,0.45,0.58
0.64,0.45,0.59
0.63,0.45,0.58
0.63,0.46,0.58
0.63,0.46,0.58
0.62,0.47,0.58
0.62,0.48,0.57
0.62,0.48,0.58
0.62,0.48,0.58
0.63,0.48,0.58
0.63,0.48,0.58
0.65,0.49,0.58
0.66,0.49,0.58
0.66,0.49,0.58
0.67,0.49,0.58
0.67,0.49,0.58
0.67,0.49,0.58
0.67,0.49,0.58
0.66,0.49,0.58
0.66,0.49,0.58
0.66,0.5,0.58
0.65,0.5,0.58
0.65,0.5,0.58
0.65,0.5,0.58
0.65,0.5,0.57
0.65,0.5,0.57
0.65,0.5,0.57
0.65,0.5,0.58
0.65,0.5,0.58
0.65,0.5,0.57
0.65,0.5,0.57
0.65,0.5,0.57
0.65,0.5,0.57
0.64,0.5,0.56
0.64,0.5,0.56
0.64,0.5,0.56
0.64,0.51,0.56
0.63,0.51,0.56
0.64,0.51,0.56
0.64,0.52,0.56
0.64,0.52,0.56
0.64,0.51,0.56
0.64,0.52,0.56
0.64,0.52,0.56
0.64,0.52,0.56
0.64,0.52,0.56
0.64,0.52,0.56
