Acc_x,Acc_y,Acc_z
0.36,-0.91,-0.09
0.36,-0.85,-0.08
0.35,-0.8,-0.07
0.35,-0.76,-0.08
0.34,-0.71,-0.08
0.33,-0.68,-0.08
0.33,-0.63,-0.08
0.33,-0.61,-0.07
0.32,-0.59,-0.06
0.32,-0.57,-0.06
0.31,-0.6,-0.05
0.33,-0.66,-0.05
0.35,-0.71,-0.07
0.36,-0.77,-0.08
0.4,-0.84,-0.08
0.42,-0.91,-0.07
0.43,-0.97,-0.06
0.46,-1,-0.05
0.5,-1.01,-0.02
0.53,-1.01,0.01
0.57,-0.97,0.04
0.62,-0.94,0.07
0.67,-0.91,0.1
0.72,-0.89,0.12
0.75,-0.88,0.13
0.76,-0.86,0.14
0.78,-0.86,0.14
0.77,-0.87,0.15
0.77,-0.9,0.15
0.74,-0.94,0.17
0.71,-1.01,0.19
0.7,-1.07,0.2
0.71,-1.18,0.22
0.72,-1.3,0.22
0.71,-1.4,0.22
0.7,-1.41,0.24
0.7,-1.32,0.22
0.72,-1.26,0.18
0.75,-1.21,0.18
0.73,-1.17,0.17
0.73,-1.11,0.18
0.73,-1.06,0.17
0.72,-1.04,0.16
0.71,-1,0.15
0.69,-0.95,0.15
0.66,-0.91,0.14
0.64,-0.88,0.14
0.62,-0.87,0.14
0.62,-0.89,0.11
0.59,-0.94,0.08
0.55,-1,0.06
0.56,-1.03,0.04
0.53,-1.06,0.05
0.5,-1.08,0.06
0.49,-1.08,0.06
0.49,-1.07,0.05
0.48,-1.08,0.04
0.48,-1.09,0.04
0.47,-1.07,0.04
0.45,-1.04,0.04
0.43,-1,0.05
0.42,-0.97,0.06
0.41,-0.93,0.06
0.4,-0.9,0.06
0.39,-0.9,0.06
0.38,-0.9,0.06
0.36,-0.89,0.07
0.36,-0.89,0.08
0.35,-0.89,0.07
0.34,-0.89,0.08
0.33,-0.88,0.08
0.32,-0.87,0.08
0.31,-0.85,0.08
0.31,-0.83,0.08
0.31,-0.82,0.08
0.3,-0.8,0.08
0.3,-0.8,0.08
0.3,-0.78,0.07
0.29,-0.78,0.07
0.29,-0.78,0.07
0.28,-0.78,0.07
0.27,-0.77,0.07
0.26,-0.76,0.08
0.26,-0.76,0.09
0.26,-0.76,0.09
0.25,-0.78,0.08
0.24,-0.8,0.08
0.24,-0.81,0.08
0.23,-0.83,0.08
0.22,-0.85,0.07
0.22,-0.88,0.07
0.23,-0.89,0.07
0.24,-0.9,0.06
0.26,-0.91,0.05
0.28,-0.92,0.05
0.3,-0.96,0.03
0.32,-1.04,0.02
0.33,-1.13,0.02
0.32,-1.22,0.02
0.31,-1.26,0.02
0.32,-1.26,0.03
0.34,-1.21,0.02
0.35,-1.17,0.01
0.37,-1.13,0
0.39,-1.07,0
0.41,-1,-0.01
0.44,-0.98,-0.02
0.41,-1.02,-0.03
0.35,-1.15,0.02
0.41,-1.26,0.03
0.46,-1.35,0.01
0.5,-1.43,0.03
0.52,-1.5,-0.02
0.48,-1.59,-0.03
0.46,-1.57,0.07
0.41,-1.46,0.15
0.26,-1.35,0.07
0.3,-1.26,-0.04
0.37,-1.16,-0.15
0.43,-1.09,-0.17
0.47,-1.01,-0.17
0.48,-0.96,-0.17
0.47,-0.92,-0.14
0.45,-0.89,-0.14
0.41,-0.85,-0.14
0.38,-0.81,-0.13
0.36,-0.79,-0.13
0.33,-0.76,-0.13
0.32,-0.75,-0.13
0.31,-0.74,-0.13
0.3,-0.74,-0.13
0.3,-0.75,-0.12
0.31,-0.75,-0.11
0.33,-0.75,-0.1
0.35,-0.73,-0.09
0.36,-0.71,-0.07
0.37,-0.71,-0.05
0.39,-0.73,-0.04
0.4,-0.77,-0.04
0.4,-0.8,-0.04
0.43,-0.83,-0.04
0.48,-0.87,-0.03
0.52,-0.92,0.05
0.52,-0.94,0.08
0.54,-0.98,0.1
0.55,-1.01,0.11
0.57,-1.01,0.14
0.59,-1.01,0.16
0.59,-1.01,0.16
0.6,-0.99,0.17
0.64,-0.98,0.18
0.66,-0.98,0.21
0.68,-1.04,0.22
0.7,-1.16,0.21
0.69,-1.28,0.22
0.65,-1.36,0.24
0.65,-1.36,0.25
0.63,-1.32,0.25
0.62,-1.28,0.25
0.6,-1.23,0.24
0.57,-1.15,0.26
0.56,-1.07,0.26
0.59,-1.01,0.25
0.61,-0.97,0.25
0.63,-0.93,0.25
0.64,-0.9,0.25
0.65,-0.88,0.25
0.68,-0.86,0.25
0.69,-0.85,0.21
0.67,-0.9,0.17
0.66,-0.97,0.14
0.66,-1.04,0.13
0.64,-1.12,0.1
0.65,-1.18,0.09
0.65,-1.23,0.09
0.64,-1.29,0.09
0.65,-1.31,0.1
0.65,-1.3,0.1
0.65,-1.29,0.08
0.64,-1.29,0.06
0.61,-1.27,0.05
0.59,-1.24,0.05
0.57,-1.2,0.06
0.55,-1.16,0.07
0.5,-1.13,0.07
0.46,-1.08,0.07
0.44,-1.04,0.07
0.42,-1.01,0.08
0.38,-0.98,0.09
0.36,-0.96,0.09
0.35,-0.94,0.09
0.34,-0.91,0.1
0.33,-0.89,0.11
0.34,-0.87,0.11
0.35,-0.84,0.11
0.34,-0.83,0.1
0.35,-0.82,0.09
0.36,-0.81,0.08
0.35,-0.79,0.08
0.33,-0.76,0.08
0.32,-0.74,0.08
0.31,-0.72,0.06
0.29,-0.7,0.04
0.28,-0.68,0.03
0.3,-0.67,0.03
0.32,-0.66,0.03
0.33,-0.65,0.02
0.35,-0.63,0
0.37,-0.62,-0.01
0.38,-0.61,-0.02
0.39,-0.59,-0.03
0.4,-0.58,-0.05
0.39,-0.56,-0.05
0.39,-0.54,-0.04
0.38,-0.54,-0.04
0.38,-0.52,-0.03
0.39,-0.51,-0.01
0.42,-0.51,-0.03
0.46,-0.53,-0.08
0.49,-0.55,-0.12
0.5,-0.57,-0.14
0.55,-0.61,-0.14
0.57,-0.65,-0.14
0.57,-0.68,-0.13
0.56,-0.73,-0.11
0.57,-0.78,-0.09
0.57,-0.84,-0.09
0.58,-0.92,-0.08
0.57,-1.02,-0.07
0.55,-1.13,-0.08
0.56,-1.25,-0.1
0.55,-1.37,-0.09
0.53,-1.47,-0.09
0.51,-1.54,-0.1
0.48,-1.59,-0.1
0.46,-1.61,-0.1
0.47,-1.61,-0.1
0.51,-1.54,-0.11
0.55,-1.43,-0.09
0.55,-1.33,-0.07
0.62,-1.24,-0.05
0.64,-1.18,-0.02
0.63,-1.14,0.01
0.62,-1.08,0.01
0.57,-1.04,-0.07
0.52,-1.09,-0.11
0.46,-1.31,-0.07
0.38,-1.39,-0.01
0.31,-1.45,0.02
0.29,-1.44,0.01
0.3,-1.41,0
0.3,-1.36,-0.01
0.31,-1.28,-0.02
0.33,-1.19,-0.02
0.37,-1.1,-0.01
0.41,-1.01,0.01
0.44,-0.93,0.01
0.46,-0.86,0.01
0.47,-0.8,0.01
0.47,-0.74,0
0.47,-0.68,-0.01
0.45,-0.63,-0.01
0.43,-0.59,0.01
0.4,-0.58,0.02
0.38,-0.57,0.03
0.38,-0.57,0.05
0.38,-0.6,0.06
0.39,-0.63,0.06
0.39,-0.67,0.07
0.4,-0.71,0.1
0.4,-0.76,0.11
0.4,-0.82,0.12
0.41,-0.88,0.14
0.43,-0.95,0.15
0.44,-0.94,0.16
0.45,-0.91,0.16
0.48,-0.87,0.16
0.5,-0.84,0.17
0.52,-0.82,0.16
0.53,-0.81,0.17
0.54,-0.8,0.2
0.54,-0.79,0.23
0.55,-0.8,0.23
0.57,-0.84,0.21
0.57,-0.88,0.2
0.57,-0.92,0.19
0.56,-0.94,0.19
0.54,-0.97,0.19
0.53,-0.99,0.18
0.55,-1,0.17
0.55,-1.02,0.17
0.56,-1.04,0.15
0.58,-1.05,0.14
0.6,-1.08,0.11
0.61,-1.16,0.08
0.63,-1.26,0.05
0.68,-1.3,0.01
0.7,-1.28,0.03
0.68,-1.28,0.03
0.71,-1.25,0.02
0.72,-1.22,0
0.69,-1.18,-0.01
0.66,-1.11,-0.01
0.64,-1.04,-0.03
0.61,-1,-0.05
0.6,-1,-0.05
0.6,-1.04,-0.05
0.6,-1.1,-0.06
0.58,-1.14,-0.05
0.57,-1.17,-0.03
0.56,-1.2,-0.02
0.55,-1.21,-0.01
0.53,-1.21,-0.02
0.52,-1.22,-0.03
0.52,-1.21,-0.03
0.5,-1.22,0
0.49,-1.21,0.01
0.48,-1.19,0.02
0.46,-1.16,0.02
0.43,-1.13,0.02
0.4,-1.09,0.03
0.38,-1.06,0.02
0.35,-1.03,0.03
0.33,-1,0.04
0.32,-0.97,0.06
0.29,-0.91,0.04
0.27,-0.91,0.05
0.28,-0.88,0.07
0.28,-0.86,0.06
0.28,-0.84,0.05
0.29,-0.81,0.04
0.29,-0.8,0.03
0.28,-0.8,0.03
0.27,-0.79,0.03
0.25,-0.78,0.03
0.25,-0.76,0.03
0.26,-0.74,0.04
0.26,-0.73,0.05
0.26,-0.72,0.04
0.26,-0.73,0.03
0.25,-0.73,0.03
0.24,-0.73,0.03
0.24,-0.74,0.03
0.24,-0.75,0.02
0.24,-0.75,0.02
0.23,-0.74,0.03
0.23,-0.73,0.03
0.25,-0.73,0.02
0.26,-0.72,0.02
0.26,-0.71,0.03
0.29,-0.71,0.04
0.34,-0.78,0.05
0.35,-0.84,0.07
0.36,-0.92,0.09
0.38,-1.01,0.11
0.39,-1.11,0.12
0.39,-1.19,0.13
0.38,-1.27,0.13
0.33,-1.31,0.13
0.36,-1.3,0.15
0.38,-1.29,0.19
0.36,-1.31,0.22
0.37,-1.32,0.2
0.4,-1.3,0.18
0.44,-1.25,0.17
0.47,-1.19,0.18
0.48,-1.16,0.19
0.49,-1.12,0.21
0.55,-1.08,0.23
0.57,-1.11,0.22
0.54,-1.14,0.21
0.57,-1.16,0.25
0.49,-1.25,0.26
0.44,-1.33,0.19
0.48,-1.3,0.19
0.41,-1.27,0.19
0.38,-1.24,0.15
0.38,-1.17,0.12
0.41,-1.12,0.09
0.42,-1.07,0.06
0.41,-1.03,0.05
0.42,-0.98,0.04
0.43,-0.93,0.03
0.44,-0.88,0.02
0.44,-0.84,0.01
0.44,-0.81,0
0.44,-0.78,-0.01
0.44,-0.78,0
0.43,-0.78,0
0.43,-0.8,-0.01
0.42,-0.83,-0.01
0.42,-0.87,-0.02
0.41,-0.91,-0.02
0.4,-0.94,-0.01
0.42,-0.96,-0.01
0.42,-0.97,-0.01
0.41,-0.95,-0.01
0.41,-0.91,0
0.43,-0.86,0
0.46,-0.83,0.01
0.49,-0.8,0.01
0.53,-0.78,0.02
0.57,-0.77,0.04
0.61,-0.77,0.08
0.64,-0.79,0.08
0.63,-0.82,0.1
0.62,-0.85,0.11
0.62,-0.88,0.11
0.59,-0.9,0.12
0.56,-0.91,0.14
0.54,-0.9,0.15
0.53,-0.88,0.16
0.52,-0.87,0.16
0.53,-0.86,0.16
0.54,-0.85,0.17
0.56,-0.85,0.16
0.58,-0.85,0.15
0.59,-0.86,0.15
0.61,-0.88,0.14
0.63,-0.96,0.15
0.66,-1.1,0.13
0.69,-1.24,0.13
0.69,-1.35,0.13
0.68,-1.43,0.12
0.69,-1.47,0.13
0.68,-1.5,0.12
0.68,-1.49,0.12
0.68,-1.43,0.13
0.67,-1.35,0.14
0.67,-1.25,0.16
0.65,-1.05,0.17
0.64,-0.99,0.16
0.64,-0.98,0.15
0.63,-1.02,0.15
0.61,-1.09,0.15
0.6,-1.2,0.15
0.62,-1.24,0.17
0.58,-1.33,0.13
0.43,-1.37,0.12
0.29,-1.32,0.18
0.23,-1.3,0.19
0.27,-1.24,0.2
0.36,-1.2,0.18
0.37,-1.2,0.16
0.32,-1.19,0.17
0.3,-1.16,0.17
0.31,-1.11,0.15
0.35,-1.06,0.14
0.36,-1.02,0.13
0.34,-0.99,0.13
0.32,-0.97,0.12
0.31,-0.96,0.12
0.3,-0.93,0.12
0.29,-0.9,0.13
0.27,-0.88,0.14
0.26,-0.87,0.12
0.23,-0.84,0.1
0.23,-0.82,0.09
0.23,-0.8,0.08
0.23,-0.79,0.07
0.23,-0.78,0.06
0.24,-0.76,0.06
0.24,-0.74,0.06
0.25,-0.73,0.05
0.26,-0.73,0.04
0.25,-0.74,0.04
0.25,-0.74,0.04
0.25,-0.75,0.03
0.25,-0.77,0.03
0.25,-0.78,0.03
0.25,-0.79,0.03
0.25,-0.8,0.02
0.25,-0.8,0.02
0.25,-0.79,0.02
0.25,-0.79,0.02
0.25,-0.78,0.02
0.26,-0.76,0.03
0.28,-0.76,0.03
0.3,-0.77,0.02
0.31,-0.78,0.02
0.32,-0.8,0.03
0.34,-0.83,0.04
0.38,-0.94,0.05
0.39,-1.03,0.05
0.38,-1.13,0.07
0.38,-1.2,0.09
0.36,-1.26,0.1
0.34,-1.32,0.11
0.36,-1.36,0.12
0.38,-1.39,0.12
0.39,-1.4,0.13
0.38,-1.41,0.16
0.35,-1.4,0.14
0.34,-1.35,0.11
0.33,-1.28,0.09
0.3,-1.2,0.07
0.32,-1.12,0.04
0.38,-1.07,0.04
0.43,-1.1,0.08
0.47,-1.18,0.12
0.47,-1.26,0.13
0.5,-1.31,0.11
0.52,-1.38,0.04
0.53,-1.38,-0.02
0.53,-1.35,-0.05
0.5,-1.31,-0.04
0.46,-1.25,-0.01
0.43,-1.19,-0.03
0.43,-1.04,-0.06
0.43,-0.97,-0.06
0.4,-0.88,-0.05
0.41,-0.82,-0.04
0.4,-0.79,-0.05
0.38,-0.77,-0.07
0.38,-0.75,-0.04
0.35,-0.76,-0.06
0.36,-0.75,-0.08
0.36,-0.75,-0.06
0.34,-0.81,-0.06
0.32,-0.85,-0.05
0.36,-0.85,-0.05
0.38,-0.87,-0.06
0.35,-0.9,-0.05
0.33,-0.9,-0.03
0.33,-0.89,-0.04
0.35,-0.85,-0.05
0.36,-0.8,-0.04
0.37,-0.77,-0.02
0.42,-0.75,-0.01
0.49,-0.74,0.01
0.56,-0.74,0.03
0.6,-0.75,0.08
0.64,-0.78,0.11
0.68,-0.81,0.14
0.73,-0.85,0.16
0.74,-0.86,0.17
0.75,-0.87,0.19
0.74,-0.88,0.2
0.7,-0.91,0.22
0.67,-0.92,0.26
0.66,-0.95,0.28
0.64,-0.99,0.31
0.61,-1.03,0.34
0.61,-1.07,0.34
0.63,-1.1,0.33
0.65,-1.13,0.31
0.69,-1.17,0.3
0.71,-1.22,0.29
0.71,-1.21,0.28
0.7,-1.16,0.28
0.7,-1.11,0.28
0.71,-1.08,0.28
0.7,-1.08,0.28
0.69,-1.07,0.27
0.68,-1.06,0.27
0.66,-1.04,0.26
0.64,-1.03,0.28
0.63,-1.02,0.29
0.63,-0.99,0.28
0.62,-0.97,0.29
0.59,-0.94,0.29
0.58,-0.92,0.28
0.58,-0.92,0.26
0.58,-0.97,0.25
0.58,-1.05,0.23
0.57,-1.14,0.2
0.52,-1.24,0.18
0.48,-1.31,0.17
0.49,-1.35,0.15
0.44,-1.37,0.14
0.4,-1.37,0.15
0.39,-1.35,0.17
0.38,-1.33,0.17
0.39,-1.27,0.16
0.39,-1.2,0.14
0.37,-1.14,0.13
0.35,-1.08,0.14
0.34,-1.03,0.15
0.35,-0.97,0.15
0.34,-0.92,0.15
0.32,-0.88,0.15
0.31,-0.86,0.15
0.31,-0.84,0.14
0.31,-0.82,0.15
0.3,-0.8,0.15
0.29,-0.79,0.15
0.28,-0.78,0.15
0.28,-0.77,0.15
0.27,-0.76,0.14
0.26,-0.75,0.14
0.24,-0.74,0.13
0.23,-0.72,0.13
0.22,-0.71,0.13
0.21,-0.7,0.12
0.2,-0.68,0.11
0.19,-0.67,0.1
0.19,-0.66,0.1
0.19,-0.64,0.1
0.19,-0.63,0.09
0.21,-0.64,0.09
0.23,-0.65,0.09
0.24,-0.67,0.08
0.25,-0.68,0.09
0.25,-0.69,0.09
0.25,-0.71,0.08
0.26,-0.75,0.07
0.27,-0.78,0.06
0.29,-0.82,0.06
0.3,-0.85,0.05
0.3,-0.89,0.04
0.3,-0.93,0.02
0.3,-0.97,0.01
0.33,-1.05,-0.01
0.35,-1.11,0
0.38,-1.17,-0.02
0.43,-1.29,-0.05
0.45,-1.44,-0.08
0.45,-1.59,-0.13
0.41,-1.7,-0.16
0.36,-1.76,-0.15
0.35,-1.74,-0.14
0.36,-1.62,-0.09
0.36,-1.47,-0.03
0.39,-1.34,-0.05
0.39,-1.24,-0.06
0.41,-1.17,-0.07
0.44,-1.19,-0.1
0.39,-1.31,-0.17
0.39,-1.44,-0.23
0.45,-1.49,-0.23
0.43,-1.47,-0.22
0.38,-1.42,-0.2
0.38,-1.36,-0.18
0.39,-1.29,-0.15
0.36,-1.22,-0.13
0.34,-1.15,-0.12
0.34,-1.09,-0.12
0.34,-1.04,-0.12
0.35,-0.98,-0.11
0.38,-0.86,-0.11
0.39,-0.82,-0.1
0.4,-0.78,-0.09
0.43,-0.76,-0.09
0.42,-0.74,-0.08
0.43,-0.73,-0.08
0.43,-0.73,-0.07
0.42,-0.72,-0.05
0.41,-0.7,-0.02
0.41,-0.7,-0.03
0.42,-0.7,-0.03
0.41,-0.7,-0.01
0.39,-0.72,0.03
0.42,-0.75,0.05
0.45,-0.77,0.06
0.46,-0.8,0.07
0.47,-0.83,0.08
0.47,-0.86,0.09
0.48,-0.88,0.11
0.49,-0.88,0.13
0.5,-0.88,0.17
0.52,-0.87,0.2
0.53,-0.86,0.22
0.56,-0.86,0.24
0.58,-0.86,0.27
0.59,-0.85,0.28
0.63,-0.88,0.27
0.62,-0.9,0.3
0.6,-0.91,0.33
0.56,-0.97,0.33
0.54,-1.04,0.31
0.53,-1.09,0.31
0.54,-1.18,0.31
0.56,-1.31,0.31
0.56,-1.44,0.32
0.55,-1.53,0.33
0.57,-1.54,0.32
0.59,-1.49,0.3
0.58,-1.45,0.27
0.57,-1.38,0.25
0.59,-1.27,0.23
0.61,-1.14,0.22
0.61,-1.04,0.21
0.63,-0.95,0.21
0.64,-0.87,0.2
0.65,-0.83,0.18
0.64,-0.81,0.16
0.63,-0.82,0.14
0.61,-0.87,0.13
0.58,-0.95,0.09
0.56,-1.02,0.09
0.54,-1.08,0.09
0.51,-1.19,0.09
0.5,-1.19,0.08
0.49,-1.16,0.09
0.49,-1.14,0.09
0.48,-1.15,0.07
0.49,-1.17,0.05
0.48,-1.17,0.05
0.46,-1.16,0.07
0.44,-1.14,0.08
0.44,-1.11,0.08
0.43,-1.08,0.08
0.4,-1.07,0.07
0.37,-1.06,0.07
0.35,-1.04,0.06
0.34,-1.02,0.06
0.31,-1,0.06
0.28,-0.99,0.07
0.27,-0.98,0.07
0.28,-0.96,0.07
0.28,-0.93,0.07
0.27,-0.9,0.07
0.28,-0.88,0.07
0.29,-0.85,0.06
0.3,-0.82,0.05
0.3,-0.79,0.04
0.29,-0.77,0.03
0.27,-0.73,0.03
0.27,-0.7,0.03
0.27,-0.68,0.04
0.28,-0.67,0.04
0.27,-0.67,0.05
0.28,-0.67,0.05
0.27,-0.67,0.05
0.27,-0.67,0.06
0.27,-0.68,0.06
0.27,-0.69,0.06
0.26,-0.7,0.07
0.25,-0.69,0.08
0.24,-0.69,0.08
0.24,-0.7,0.08
0.23,-0.7,0.08
0.24,-0.72,0.09
0.25,-0.73,0.1
0.26,-0.76,0.11
0.29,-0.8,0.12
0.32,-0.85,0.13
0.35,-0.92,0.13
0.39,-1.02,0.13
0.42,-1.13,0.13
0.43,-1.25,0.13
0.41,-1.35,0.15
0.39,-1.47,0.16
0.37,-1.51,0.26
0.39,-1.53,0.2
0.4,-1.5,0.2
0.43,-1.37,0.27
0.5,-1.32,0.22
0.51,-1.3,0.24
0.53,-1.23,0.32
0.61,-1.17,0.3
0.6,-1.15,0.27
0.58,-1.11,0.24
0.55,-1.09,0.22
0.47,-1.11,0.23
0.33,-1.17,0.22
0.3,-1.19,0.18
0.34,-1.17,0.15
0.27,-1.15,0.17
0.23,-1.15,0.17
0.25,-1.14,0.15
0.28,-1.12,0.14
0.32,-1.1,0.12
0.35,-1.07,0.1
0.38,-1.05,0.09
0.42,-1.01,0.07
0.44,-0.97,0.04
0.44,-0.92,0.03
0.44,-0.88,0.01
0.43,-0.79,0
0.42,-0.75,0
0.42,-0.71,-0.01
0.4,-0.68,-0.01
0.38,-0.66,-0.01
0.38,-0.64,-0.02
0.38,-0.64,-0.02
0.38,-0.65,-0.02
0.39,-0.66,-0.02
0.39,-0.69,-0.01
0.39,-0.73,-0.01
0.4,-0.76,-0.01
0.4,-0.79,-0.01
0.42,-0.81,-0.01
0.42,-0.82,0
0.44,-0.82,0
0.48,-0.81,0.03
0.54,-0.83,0.07
0.58,-0.84,0.12
0.6,-0.85,0.15
0.62,-0.88,0.17
0.63,-0.93,0.19
0.64,-0.96,0.19
0.63,-0.99,0.21
0.63,-1,0.24
0.62,-1.01,0.25
0.59,-0.99,0.29
0.56,-0.97,0.29
0.55,-0.95,0.31
0.55,-0.95,0.33
0.56,-0.97,0.35
0.58,-1.01,0.35
0.61,-1.05,0.35
0.63,-1.11,0.35
0.66,-1.21,0.35
0.68,-1.36,0.35
0.7,-1.5,0.34
0.67,-1.58,0.36
0.64,-1.58,0.36
0.64,-1.54,0.34
0.63,-1.49,0.33
0.62,-1.41,0.31
0.59,-1.3,0.3
0.54,-1.19,0.29
0.52,-1.08,0.27
0.5,-0.99,0.25
0.49,-0.94,0.23
0.49,-0.94,0.21
0.49,-0.98,0.18
0.5,-1.03,0.16
0.49,-1.09,0.12
0.47,-1.15,0.11
0.45,-1.19,0.1
0.4,-1.21,0.11
0.38,-1.24,0.11
0.39,-1.23,0.13
0.39,-1.24,0.14
0.38,-1.23,0.13
0.39,-1.2,0.12
0.37,-1.18,0.11
0.35,-1.17,0.11
0.33,-1.15,0.1
0.33,-1.13,0.1
0.3,-1.13,0.09
0.31,-1.12,0.09
0.33,-1.1,0.1
0.3,-1.08,0.08
0.28,-1.07,0.07
0.29,-1.03,0.08
0.29,-0.98,0.07
0.29,-0.95,0.04
0.3,-0.9,0.03
0.3,-0.84,0.03
0.3,-0.79,0.03
0.32,-0.74,0.04
0.32,-0.7,0.06
0.33,-0.64,0.07
0.34,-0.6,0.09
0.34,-0.58,0.09
0.31,-0.55,0.09
0.33,-0.53,0.09
0.34,-0.51,0.08
0.32,-0.52,0.06
0.29,-0.53,0.07
0.27,-0.54,0.08
0.26,-0.56,0.09
0.27,-0.57,0.1
0.28,-0.59,0.1
0.27,-0.6,0.1
0.28,-0.61,0.1
0.29,-0.63,0.09
0.31,-0.64,0.09
0.33,-0.64,0.09
0.34,-0.66,0.08
0.35,-0.68,0.08
0.37,-0.7,0.09
0.39,-0.73,0.1
0.41,-0.78,0.11
0.42,-0.83,0.11
0.44,-0.89,0.12
0.45,-0.95,0.12
0.46,-1.02,0.12
0.46,-1.09,0.13
0.46,-1.16,0.15
0.45,-1.21,0.17
0.43,-1.21,0.18
0.42,-1.25,0.17
0.4,-1.35,0.14
0.36,-1.5,0.1
0.33,-1.61,0.06
0.29,-1.69,0.09
0.28,-1.76,0.1
0.33,-1.7,0.09
0.38,-1.55,0.09
0.39,-1.46,0.1
0.39,-1.36,0.1
0.42,-1.23,0.07
0.45,-1.11,0.07
0.46,-1.03,0.06
0.48,-1.01,0.04
0.49,-1.01,0.01
0.47,-1.03,-0.02
0.42,-1.07,-0.04
0.39,-1.12,-0.05
0.37,-1.17,-0.04
0.33,-1.22,-0.02
0.29,-1.25,-0.02
0.26,-1.26,-0.03
0.24,-1.26,-0.04
0.21,-1.27,-0.08
0.21,-1.26,-0.1
0.26,-1.16,-0.11
0.24,-1.08,-0.13
0.28,-0.98,-0.12
0.32,-0.91,-0.11
0.33,-0.86,-0.11
0.36,-0.81,-0.11
0.38,-0.78,-0.12
0.4,-0.77,-0.11
0.4,-0.78,-0.1
0.4,-0.78,-0.07
0.4,-0.77,-0.05
0.41,-0.74,-0.03
0.41,-0.72,-0.02
0.4,-0.72,0.01
0.39,-0.72,0.03
0.4,-0.72,0.05
0.41,-0.74,0.08
0.42,-0.75,0.11
0.45,-0.76,0.14
0.48,-0.76,0.18
0.49,-0.77,0.19
0.49,-0.77,0.19
0.47,-0.78,0.2
0.46,-0.78,0.23
0.48,-0.75,0.26
0.5,-0.76,0.28
0.57,-0.77,0.29
0.6,-0.79,0.3
0.61,-0.82,0.31
0.62,-0.85,0.31
0.65,-0.89,0.3
0.64,-0.93,0.32
0.64,-0.99,0.33
0.66,-1.03,0.33
0.66,-1.07,0.34
0.66,-1.1,0.34
0.65,-1.11,0.33
0.64,-1.11,0.33
0.64,-1.1,0.34
0.63,-1.08,0.34
0.63,-1.05,0.33
0.62,-1.02,0.32
0.63,-1,0.3
0.65,-1.03,0.28
0.66,-1.12,0.28
0.68,-1.25,0.27
0.71,-1.34,0.26
0.7,-1.38,0.26
0.68,-1.39,0.26
0.65,-1.38,0.27
0.62,-1.37,0.25
0.6,-1.33,0.24
0.53,-1.27,0.24
0.5,-1.25,0.24
0.47,-1.23,0.21
0.45,-1.23,0.18
0.44,-1.22,0.16
0.44,-1.21,0.16
0.45,-1.23,0.14
0.42,-1.28,0.14
0.43,-1.29,0.16
0.43,-1.31,0.14
0.38,-1.35,0.13
0.37,-1.33,0.12
0.37,-1.31,0.11
0.33,-1.3,0.08
0.25,-1.3,0.06
0.29,-1.23,0.05
0.35,-1.2,0.07
0.32,-1.21,0.08
0.34,-1.18,0.07
0.34,-1.16,0.06
0.3,-1.15,0.05
0.3,-1.13,0.04
0.31,-1.1,0.04
0.29,-1.08,0.03
0.27,-1.07,0.03
0.27,-1.04,0.04
0.29,-1,0.02
0.32,-0.96,0.02
0.35,-0.92,0.02
0.37,-0.89,0.03
0.38,-0.87,0.02
0.38,-0.84,0.03
0.37,-0.8,0.04
0.33,-0.79,0.03
0.29,-0.77,0.03
0.29,-0.74,0.04
0.28,-0.74,0.02
0.3,-0.73,0.01
0.31,-0.69,0.01
0.26,-0.67,0.02
0.23,-0.66,0.03
0.26,-0.65,0.04
0.29,-0.64,0.03
0.3,-0.63,0.03
0.3,-0.62,0.04
0.31,-0.61,0.04
0.33,-0.6,0.04
0.34,-0.6,0.04
0.34,-0.6,0.05
0.34,-0.61,0.05
0.34,-0.62,0.06
0.35,-0.63,0.07
0.35,-0.68,0.08
0.36,-0.7,0.08
0.36,-0.71,0.07
0.36,-0.72,0.07
0.37,-0.73,0.06
0.38,-0.73,0.06
0.4,-0.74,0.06
0.41,-0.76,0.06
0.42,-0.79,0.06
0.43,-0.82,0.05
0.43,-0.9,0.01
0.45,-1.06,-0.03
0.47,-1.26,-0.05
0.45,-1.48,-0.07
0.42,-1.66,-0.08
0.37,-1.75,-0.1
0.39,-1.77,-0.07
0.42,-1.79,-0.1
0.41,-1.76,-0.16
0.44,-1.62,-0.15
0.47,-1.5,-0.14
0.53,-1.42,-0.15
0.53,-1.38,-0.17
0.51,-1.37,-0.22
0.56,-1.38,-0.23
0.58,-1.43,-0.25
0.56,-1.46,-0.27
0.51,-1.41,-0.26
0.45,-1.4,-0.24
0.35,-1.38,-0.2
0.33,-1.35,-0.23
0.32,-1.28,-0.2
0.29,-1.19,-0.1
0.29,-1.14,-0.11
0.39,-1.1,-0.18
0.43,-1.03,-0.23
0.41,-1,-0.27
0.38,-0.98,-0.29
0.37,-0.96,-0.27
0.35,-0.95,-0.25
0.32,-0.95,-0.22
0.29,-0.96,-0.18
0.26,-0.96,-0.16
0.25,-0.94,-0.15
0.25,-0.9,-0.14
0.24,-0.87,-0.13
0.25,-0.84,-0.12
0.24,-0.84,-0.1
0.25,-0.85,-0.08
0.25,-0.86,-0.05
0.27,-0.88,-0.03
0.29,-0.88,-0.04
0.29,-0.88,-0.01
0.28,-0.87,0
0.28,-0.88,0.02
0.27,-0.89,0.04
0.27,-0.89,0.05
0.28,-0.9,0.07
0.28,-0.92,0.07
0.3,-0.93,0.07
0.31,-0.92,0.09
0.33,-0.91,0.11
0.36,-0.9,0.13
0.38,-0.9,0.16
0.39,-0.9,0.2
0.4,-0.9,0.23
0.42,-0.89,0.26
0.43,-0.88,0.29
0.44,-0.86,0.32
0.43,-0.85,0.33
0.42,-0.83,0.34
0.41,-0.84,0.35
0.38,-0.85,0.38
0.38,-0.85,0.39
0.38,-0.86,0.4
0.37,-0.88,0.42
0.38,-0.89,0.43
0.39,-0.9,0.44
0.4,-0.95,0.44
0.38,-0.97,0.43
0.38,-0.97,0.43
0.39,-0.97,0.42
0.39,-0.97,0.42
0.39,-0.96,0.41
0.39,-0.94,0.4
0.38,-0.92,0.39
0.37,-0.93,0.38
0.37,-0.96,0.36
0.37,-1.01,0.34
0.39,-1.07,0.32
0.4,-1.11,0.3
0.41,-1.11,0.28
0.4,-1.08,0.25
0.41,-1.04,0.24
0.43,-1,0.23
0.47,-1,0.2
0.5,-1,0.15
0.52,-1,0.11
0.52,-1.04,0.08
0.53,-1.08,0.07
0.55,-1.14,0.04
0.56,-1.2,0.01
0.57,-1.25,-0.01
0.58,-1.26,-0.01
0.59,-1.25,0
0.58,-1.19,-0.01
0.57,-1.14,-0.03
0.57,-1.1,-0.04
0.58,-1.09,-0.05
0.58,-1.09,-0.05
0.58,-1.08,-0.05
0.59,-1.07,-0.06
0.58,-1.07,-0.09
0.59,-1.03,-0.09
0.61,-1.02,-0.1
0.6,-1.05,-0.12
0.61,-1.03,-0.12
0.63,-0.99,-0.12
0.65,-1,-0.11
0.62,-1.03,-0.11
0.63,-1.02,-0.12
0.65,-1.01,-0.13
0.62,-1.01,-0.15
0.61,-0.98,-0.14
0.61,-0.96,-0.12
0.6,-0.94,-0.12
0.6,-0.91,-0.11
0.61,-0.89,-0.1
0.61,-0.88,-0.08
0.6,-0.87,-0.08
0.59,-0.85,-0.08
0.58,-0.85,-0.09
0.56,-0.84,-0.08
0.54,-0.83,-0.05
0.54,-0.82,-0.03
0.55,-0.82,-0.03
0.55,-0.8,-0.02
0.55,-0.8,-0.01
0.54,-0.79,0.01
0.53,-0.78,0.03
0.51,-0.76,0.05
0.5,-0.74,0.07
0.49,-0.71,0.1
0.48,-0.7,0.11
0.48,-0.69,0.12
0.49,-0.65,0.14
0.5,-0.61,0.18
0.5,-0.59,0.21
0.5,-0.58,0.22
0.49,-0.59,0.23
0.48,-0.57,0.25
0.46,-0.54,0.25
0.45,-0.55,0.25
0.43,-0.55,0.26
0.4,-0.56,0.27
0.38,-0.57,0.28
0.38,-0.58,0.29
0.38,-0.59,0.29
0.4,-0.61,0.29
0.42,-0.63,0.29
0.45,-0.66,0.27
0.46,-0.7,0.25
0.47,-0.75,0.22
0.46,-0.81,0.2
0.45,-0.87,0.19
0.46,-0.96,0.18
0.47,-1.06,0.17
0.47,-1.17,0.16
0.47,-1.24,0.16
0.48,-1.26,0.16
0.49,-1.25,0.15
0.5,-1.22,0.14
0.49,-1.2,0.13
0.48,-1.17,0.12
0.47,-1.12,0.12
0.46,-1.07,0.12
0.45,-1.03,0.1
0.46,-0.98,0.1
0.47,-0.93,0.09
0.47,-0.93,0.09
0.49,-0.98,0.09
0.49,-1.05,0.09
0.47,-1.12,0.09
0.45,-1.2,0.07
0.35,-1.23,0.04
0.34,-1.2,0.04
0.39,-1.17,0.03
0.37,-1.18,0.02
0.34,-1.17,0.04
0.35,-1.13,0.04
0.39,-1.1,0.03
0.42,-1.08,0.03
0.41,-1.08,0.04
0.43,-1.07,0.03
0.45,-1.06,0.02
0.45,-1.05,0.02
0.47,-1.04,0.02
0.47,-1.04,0.02
0.46,-1.04,0.01
0.45,-1.01,0.01
0.44,-0.97,0.04
0.44,-0.94,0.05
0.45,-0.93,0.06
0.45,-0.91,0.06
0.45,-0.88,0.07
0.46,-0.86,0.08
0.47,-0.84,0.09
0.48,-0.84,0.11
0.49,-0.83,0.12
0.5,-0.84,0.14
0.51,-0.84,0.14
0.5,-0.85,0.15
0.49,-0.85,0.17
0.49,-0.86,0.19
0.49,-0.87,0.2
0.49,-0.87,0.21
0.49,-0.87,0.21
0.5,-0.88,0.22
0.49,-0.89,0.24
0.49,-0.9,0.25
0.5,-0.91,0.25
0.51,-0.92,0.25
0.52,-0.94,0.24
0.52,-0.95,0.24
0.51,-0.96,0.25
0.5,-0.96,0.26
0.48,-0.95,0.26
0.47,-0.95,0.25
0.46,-0.95,0.25
0.45,-0.96,0.24
0.45,-0.97,0.23
0.45,-0.98,0.23
0.44,-0.99,0.22
0.44,-1.01,0.21
0.45,-1.06,0.2
0.48,-1.29,0.18
0.5,-1.41,0.18
0.5,-1.48,0.19
0.5,-1.52,0.18
0.5,-1.54,0.17
0.5,-1.54,0.15
0.5,-1.49,0.13
0.5,-1.43,0.1
0.48,-1.36,0.08
0.47,-1.28,0.05
0.46,-1.2,0.02
0.43,-1.11,0.02
0.41,-1.05,0.02
0.4,-1.02,0
0.4,-1.04,-0.01
0.42,-1.06,0
0.41,-1.12,0
0.39,-1.19,0
0.39,-1.22,-0.01
0.42,-1.25,-0.01
0.44,-1.28,0
0.41,-1.3,0
0.39,-1.29,0
0.39,-1.27,0
0.36,-1.26,0
0.34,-1.25,0
0.31,-1.19,0
0.27,-1.15,0
0.25,-1.11,-0.01
0.26,-1.08,0
0.28,-1.04,0.02
0.24,-1.02,0.02
0.21,-0.99,0.01
0.23,-0.95,0.03
0.21,-0.94,0.05
0.2,-0.91,0.04
0.2,-0.86,0.02
0.2,-0.82,0.02
0.22,-0.79,0.01
0.23,-0.77,0.01
0.23,-0.75,0
0.24,-0.72,0
0.25,-0.7,0.01
0.25,-0.68,0
0.26,-0.66,0.01
0.27,-0.65,0.03
0.26,-0.65,0.03
0.25,-0.64,0.04
0.25,-0.63,0.05
0.25,-0.63,0.04
0.25,-0.64,0.04
0.25,-0.65,0.04
0.24,-0.66,0.06
0.26,-0.7,0.07
0.25,-0.71,0.08
0.25,-0.72,0.1
0.25,-0.72,0.13
0.27,-0.7,0.14
0.3,-0.71,0.17
0.32,-0.75,0.17
0.34,-0.79,0.17
0.35,-0.86,0.18
0.37,-0.97,0.19
0.38,-1.12,0.19
0.37,-1.27,0.19
0.36,-1.37,0.19
0.33,-1.39,0.21
0.34,-1.36,0.26
0.34,-1.4,0.27
0.33,-1.41,0.25
0.34,-1.37,0.27
0.36,-1.33,0.24
0.39,-1.28,0.2
0.39,-1.24,0.22
0.41,-1.19,0.24
0.47,-1.12,0.25
0.52,-1.06,0.26
0.54,-0.99,0.26
0.54,-0.99,0.26
0.56,-1.09,0.23
0.48,-1.14,0.21
0.41,-1.21,0.2
0.42,-1.27,0.17
0.44,-1.29,0.17
0.38,-1.28,0.17
0.38,-1.26,0.16
0.38,-1.24,0.15
0.37,-1.2,0.15
0.37,-1.14,0.13
0.38,-1.07,0.11
0.4,-0.99,0.11
0.41,-0.92,0.09
0.41,-0.87,0.06
0.44,-0.83,0.06
0.47,-0.8,0.06
0.5,-0.79,0.07
0.52,-0.78,0.08
0.52,-0.78,0.09
0.51,-0.78,0.09
0.5,-0.76,0.13
0.49,-0.75,0.16
0.5,-0.76,0.18
0.52,-0.76,0.2
0.54,-0.78,0.21
0.56,-0.79,0.23
0.63,-0.81,0.23
0.66,-0.81,0.25
0.67,-0.81,0.26
0.67,-0.8,0.27
0.66,-0.8,0.27
0.66,-0.81,0.27
0.65,-0.82,0.28
0.64,-0.85,0.28
0.63,-0.88,0.28
0.62,-0.92,0.28
0.62,-0.95,0.29
0.63,-0.98,0.27
0.64,-1,0.26
0.65,-1.01,0.24
0.64,-1.03,0.22
0.65,-1.06,0.2
0.65,-1.09,0.19
0.66,-1.13,0.17
0.66,-1.16,0.15
0.66,-1.18,0.13
0.67,-1.19,0.11
0.67,-1.19,0.08
0.67,-1.18,0.05
0.67,-1.15,0.01
0.62,-1.13,-0.03
0.6,-1.1,-0.06
0.58,-1.07,-0.15
0.54,-1.08,-0.16
0.54,-1.07,-0.2
0.56,-1.07,-0.27
0.55,-1.08,-0.33
0.56,-1.07,-0.39
0.57,-1.1,-0.44
0.54,-1.12,-0.5
0.51,-1.12,-0.54
0.48,-1.09,-0.58
0.45,-1.05,-0.62
0.42,-1.05,-0.66
0.39,-1.02,-0.67
0.37,-0.97,-0.68
0.37,-0.97,-0.69
0.34,-0.96,-0.69
0.37,-0.94,-0.7
0.41,-0.94,-0.72
0.42,-0.95,-0.73
0.44,-0.93,-0.72
0.46,-0.92,-0.72
0.47,-0.91,-0.71
0.47,-0.9,-0.7
0.46,-0.9,-0.69
0.46,-0.91,-0.69
0.45,-0.92,-0.69
0.44,-0.89,-0.66
0.44,-0.89,-0.65
0.46,-0.88,-0.63
0.48,-0.87,-0.61
0.51,-0.86,-0.61
0.52,-0.86,-0.59
0.55,-0.85,-0.57
0.58,-0.86,-0.54
0.6,-0.87,-0.53
0.62,-0.88,-0.51
0.62,-0.89,-0.51
0.62,-0.91,-0.5
0.6,-0.93,-0.48
0.59,-0.95,-0.46
0.58,-0.95,-0.43
0.58,-0.96,-0.4
0.59,-0.97,-0.39
0.59,-0.98,-0.37
0.59,-0.99,-0.35
0.59,-0.99,-0.33
0.59,-0.99,-0.32
0.58,-0.98,-0.3
0.57,-0.97,-0.28
0.56,-0.96,-0.27
0.53,-0.96,-0.26
0.51,-0.95,-0.24
0.49,-0.93,-0.22
0.46,-0.92,-0.22
0.44,-0.91,-0.21
0.44,-0.9,-0.21
0.44,-0.88,-0.2
0.42,-0.86,-0.17
0.42,-0.85,-0.16
0.42,-0.85,-0.16
0.42,-0.86,-0.16
0.41,-0.88,-0.15
0.41,-0.9,-0.14
0.38,-0.91,-0.11
0.36,-0.91,-0.1
0.36,-0.91,-0.1
0.36,-0.9,-0.09
0.35,-0.89,-0.05
0.36,-0.87,-0.02
0.35,-0.87,0.01
0.35,-0.86,0.04
0.34,-0.86,0.05
0.33,-0.84,0.07
0.33,-0.82,0.09
0.31,-0.82,0.11
0.3,-0.83,0.13
0.29,-0.86,0.14
0.28,-0.9,0.16
0.28,-1.02,0.21
0.27,-1.09,0.23
0.24,-1.13,0.24
0.23,-1.16,0.26
0.22,-1.19,0.26
0.22,-1.23,0.28
0.19,-1.26,0.29
0.17,-1.26,0.3
0.2,-1.24,0.29
0.24,-1.24,0.28
0.25,-1.22,0.28
0.25,-1.18,0.29
0.26,-1.13,0.27
0.3,-1.09,0.26
0.31,-1.05,0.27
0.29,-1.03,0.27
0.3,-1.01,0.27
0.29,-0.98,0.27
0.28,-0.96,0.27
0.27,-0.94,0.27
0.26,-0.92,0.27
0.26,-0.93,0.26
0.25,-0.93,0.26
0.24,-0.92,0.27
0.24,-0.94,0.28
0.25,-0.95,0.28
0.27,-0.96,0.27
0.29,-0.95,0.27
0.29,-0.95,0.27
0.29,-0.95,0.27
0.3,-0.95,0.27
0.29,-0.96,0.28
0.28,-0.96,0.29
0.29,-0.96,0.29
0.34,-0.94,0.27
0.36,-0.93,0.26
0.35,-0.93,0.25
0.36,-0.91,0.25
0.36,-0.89,0.24
0.35,-0.88,0.23
0.36,-0.87,0.23
0.34,-0.86,0.23
0.34,-0.85,0.23
0.36,-0.84,0.21
0.37,-0.84,0.2
0.37,-0.84,0.2
0.37,-0.84,0.19
0.38,-0.84,0.18
0.39,-0.84,0.18
0.39,-0.84,0.17
0.4,-0.84,0.16
0.4,-0.85,0.16
0.42,-0.86,0.14
0.42,-0.91,0.14
0.43,-0.95,0.13
0.44,-0.99,0.12
0.44,-1.04,0.11
0.46,-1.13,0.1
0.48,-1.22,0.1
0.5,-1.31,0.1
0.51,-1.35,0.09
0.5,-1.35,0.08
0.5,-1.33,0.06
0.5,-1.3,0.04
0.51,-1.29,0.02
0.52,-1.25,-0.01
0.54,-1.2,-0.04
0.56,-1.15,-0.06
0.56,-1.1,-0.07
0.56,-1.04,-0.08
0.56,-0.99,-0.09
0.55,-0.93,-0.09
0.53,-0.89,-0.09
0.51,-0.86,-0.08
0.48,-0.87,-0.08
0.46,-0.92,-0.09
0.47,-0.97,-0.1
0.5,-1,-0.1
0.51,-1.05,-0.1
0.5,-1.18,-0.08
0.49,-1.22,-0.07
0.51,-1.23,-0.07
0.52,-1.23,-0.08
0.5,-1.24,-0.08
0.5,-1.22,-0.08
0.5,-1.19,-0.08
0.48,-1.17,-0.08
0.48,-1.13,-0.07
0.47,-1.09,-0.06
0.42,-1.08,-0.05
0.42,-1.04,-0.04
0.43,-1,-0.04
0.41,-1,-0.03
0.39,-0.99,-0.03
0.42,-0.95,-0.02
0.4,-0.92,-0.01
0.36,-0.92,-0.01
0.4,-0.88,0
0.4,-0.86,-0.02
0.35,-0.85,-0.02
0.35,-0.82,0
0.35,-0.79,0.01
0.33,-0.78,-0.01
0.31,-0.77,-0.01
0.29,-0.75,0.01
0.31,-0.72,0.01
0.32,-0.71,0.01
0.32,-0.68,0.01
0.33,-0.66,0.02
0.35,-0.66,0.03
0.36,-0.67,0.03
0.36,-0.68,0.04
0.36,-0.7,0.04
0.35,-0.74,0.04
0.35,-0.78,0.04
0.35,-0.82,0.05
0.34,-0.87,0.06
0.34,-0.92,0.08
0.33,-0.95,0.09
0.34,-0.99,0.09
0.35,-1.06,0.09
0.37,-1.19,0.08
0.36,-1.31,0.06
0.33,-1.38,0.06
0.33,-1.4,0.07
0.31,-1.44,0.07
0.32,-1.44,0.06
0.33,-1.37,0.06
0.32,-1.28,0.07
0.33,-1.19,0.08
0.34,-1.09,0.09
0.4,-0.92,0.08
0.42,-0.89,0.06
0.42,-0.9,0.04
0.45,-0.88,0.02
0.47,-0.86,-0.01
0.42,-0.89,-0.04
0.37,-0.94,-0.04
0.36,-0.97,-0.04
0.34,-1.01,-0.03
0.3,-1.08,-0.03
0.26,-1.14,0
0.22,-1.18,0.02
0.22,-1.2,0.01
0.26,-1.19,0
0.29,-1.16,-0.02
0.32,-1.14,-0.04
0.34,-1.12,-0.04
0.36,-1.08,-0.03
0.38,-1.02,-0.04
0.4,-0.97,-0.05
0.41,-0.92,-0.07
0.39,-0.88,-0.07
0.37,-0.85,-0.06
0.38,-0.83,-0.07
0.41,-0.82,-0.07
0.43,-0.83,-0.08
0.41,-0.85,-0.07
0.39,-0.89,-0.07
0.4,-0.92,-0.07
0.41,-0.94,-0.06
0.44,-0.96,-0.05
0.47,-0.99,-0.04
0.5,-0.99,-0.04
0.5,-0.99,-0.03
0.52,-0.99,-0.01
0.54,-0.98,-0.01
0.55,-0.98,0.01
0.56,-0.97,0.03
0.57,-0.96,0.05
0.57,-0.95,0.07
0.56,-0.95,0.08
0.57,-0.93,0.08
0.58,-0.92,0.09
0.59,-0.91,0.11
0.59,-0.89,0.13
0.6,-0.89,0.14
0.64,-0.89,0.16
0.65,-0.91,0.19
0.66,-0.95,0.19
0.68,-0.99,0.18
0.67,-1.02,0.17
0.64,-1.03,0.17
0.6,-1.03,0.19
0.55,-1.02,0.19
0.56,-1.02,0.19
0.58,-1.07,0.16
0.56,-1.18,0.18
0.68,-1.29,0.18
0.72,-1.36,0.12
0.74,-1.41,0.08
0.75,-1.4,0.04
0.56,-1.39,0.05
0.44,-1.39,0.09
0.44,-1.37,0.06
0.47,-1.34,0.02
0.45,-1.3,-0.03
0.46,-1.23,-0.08
0.43,-1.18,-0.13
0.35,-1.15,-0.15
0.35,-1.08,-0.2
0.41,-1.01,-0.25
0.43,-0.97,-0.31
0.4,-1,-0.35
0.36,-1.08,-0.36
0.35,-1.12,-0.42
0.34,-1.15,-0.49
0.33,-1.18,-0.52
0.3,-1.19,-0.53
0.27,-1.17,-0.59
0.23,-1.15,-0.62
0.21,-1.14,-0.62
0.19,-1.12,-0.61
0.19,-1.08,-0.6
0.2,-1.04,-0.63
0.2,-1.01,-0.66
0.2,-0.99,-0.7
0.21,-0.98,-0.72
0.21,-0.98,-0.71
0.21,-0.98,-0.69
0.21,-0.97,-0.66
0.21,-0.94,-0.64
0.2,-0.91,-0.62
0.2,-0.89,-0.6
0.2,-0.86,-0.58
0.2,-0.84,-0.55
0.22,-0.82,-0.51
0.25,-0.81,-0.48
0.28,-0.8,-0.45
0.3,-0.8,-0.43
0.32,-0.8,-0.41
0.33,-0.8,-0.38
0.33,-0.79,-0.34
0.32,-0.78,-0.32
0.32,-0.77,-0.29
0.31,-0.76,-0.25
0.32,-0.76,-0.21
0.33,-0.78,-0.18
0.34,-0.81,-0.15
0.32,-0.84,-0.14
0.32,-0.88,-0.13
0.32,-0.91,-0.11
0.32,-0.94,-0.09
0.32,-0.95,-0.07
0.34,-0.96,-0.03
0.34,-0.97,0
0.35,-0.99,0.02
0.38,-1,0.04
0.38,-1.02,0.05
0.38,-1.05,0.06
0.38,-1.06,0.05
0.38,-1.06,0.03
0.37,-1.07,0.05
0.38,-1.11,0.09
0.4,-1.19,0.08
0.39,-1.25,0.11
0.34,-1.26,0.16
0.3,-1.24,0.21
0.25,-1.21,0.23
0.2,-1.17,0.24
0.14,-1.14,0.24
0.14,-1.09,0.21
0.28,-1,0.2
0.32,-0.95,0.22
0.36,-0.91,0.19
0.4,-0.85,0.13
0.39,-0.78,0.16
0.31,-0.78,0.19
0.24,-0.8,0.17
0.2,-0.85,0.18
0.19,-0.93,0.21
0.21,-1.02,0.25
0.23,-1.1,0.23
0.23,-1.18,0.23
0.22,-1.24,0.22
0.22,-1.29,0.2
0.23,-1.32,0.19
0.27,-1.31,0.17
0.28,-1.27,0.15
0.28,-1.21,0.14
0.31,-1.13,0.15
0.32,-1.08,0.14
0.36,-1,0.14
0.36,-0.95,0.14
0.32,-0.94,0.14
0.33,-0.91,0.14
0.33,-0.9,0.12
0.32,-0.9,0.11
0.32,-0.91,0.11
0.31,-0.93,0.13
0.33,-0.94,0.14
0.33,-0.95,0.15
0.36,-0.95,0.15
0.38,-0.93,0.15
0.39,-0.92,0.15
0.43,-0.91,0.14
0.45,-0.91,0.13
0.47,-0.89,0.13
0.47,-0.89,0.14
0.45,-0.89,0.14
0.46,-0.88,0.14
0.45,-0.88,0.15
0.45,-0.86,0.13
0.45,-0.85,0.13
0.43,-0.86,0.14
0.45,-0.85,0.13
0.47,-0.85,0.12
0.47,-0.85,0.11
0.48,-0.85,0.11
0.49,-0.86,0.1
0.49,-0.88,0.1
0.49,-0.89,0.09
0.49,-0.9,0.09
0.49,-0.91,0.03
0.47,-0.95,0.01
0.45,-0.98,-0.01
0.45,-1.01,-0.03
0.47,-1.03,-0.05
0.48,-1.07,-0.06
0.5,-1.14,-0.09
0.54,-1.28,-0.12
0.58,-1.47,-0.14
0.61,-1.61,-0.15
0.59,-1.66,-0.17
0.56,-1.63,-0.18
0.53,-1.55,-0.21
0.49,-1.49,-0.26
0.45,-1.42,-0.28
0.41,-1.34,-0.3
0.38,-1.25,-0.3
0.36,-1.17,-0.32
0.33,-1.11,-0.33
0.33,-1.08,-0.35
0.34,-1.08,-0.4
0.33,-1.13,-0.41
0.34,-1.18,-0.42
0.33,-1.21,-0.44
0.31,-1.25,-0.44
0.33,-1.24,-0.45
0.26,-1.28,-0.48
0.2,-1.17,-0.54
0.21,-1.14,-0.49
0.21,-1.13,-0.48
0.22,-1.11,-0.48
0.19,-1.09,-0.47
0.19,-1.05,-0.46
0.19,-1.01,-0.45
0.19,-0.98,-0.43
0.18,-0.95,-0.4
0.19,-0.91,-0.39
0.2,-0.9,-0.4
0.19,-0.9,-0.4
0.17,-0.91,-0.4
0.16,-0.91,-0.39
0.17,-0.88,-0.37
0.18,-0.85,-0.34
0.2,-0.82,-0.31
0.23,-0.8,-0.3
0.26,-0.78,-0.3
0.28,-0.77,-0.29
0.29,-0.78,-0.29
0.29,-0.79,-0.28
0.29,-0.81,-0.27
0.29,-0.82,-0.26
0.3,-0.83,-0.25
0.3,-0.82,-0.23
0.31,-0.8,-0.19
0.32,-0.8,-0.17
0.31,-0.8,-0.16
0.31,-0.8,-0.14
0.3,-0.8,-0.13
0.28,-0.81,-0.12
0.28,-0.82,-0.1
0.28,-0.84,-0.1
0.29,-0.85,-0.09
0.3,-0.87,-0.08
0.31,-0.89,-0.07
0.32,-0.91,-0.08
0.32,-0.94,-0.08
0.32,-0.98,-0.08
0.33,-1.01,-0.08
0.34,-1.05,-0.06
0.34,-1.08,-0.04
0.34,-1.12,-0.02
0.36,-1.18,-0.01
0.38,-1.25,-0.01
0.38,-1.29,0.01
0.36,-1.3,0.04
0.35,-1.28,0.06
0.35,-1.25,0.08
0.34,-1.18,0.1
0.35,-1.13,0.11
0.37,-1.02,0.13
0.41,-0.95,0.13
0.43,-0.89,0.15
0.44,-0.86,0.18
0.45,-0.85,0.2
0.45,-0.83,0.18
0.44,-0.82,0.18
0.4,-0.82,0.22
0.35,-0.85,0.23
0.35,-0.88,0.25
0.36,-0.94,0.26
0.32,-1.03,0.26
0.23,-1.16,0.24
0.21,-1.28,0.23
0.23,-1.36,0.26
0.23,-1.42,0.27
0.26,-1.47,0.24
0.28,-1.49,0.21
0.3,-1.44,0.19
0.31,-1.35,0.18
0.32,-1.24,0.17
0.35,-1.13,0.16
0.39,-1.02,0.15
0.42,-0.92,0.14
0.44,-0.85,0.13
0.42,-0.82,0.12
0.41,-0.76,0.13
0.37,-0.74,0.12
0.35,-0.72,0.11
0.34,-0.71,0.12
0.32,-0.72,0.13
0.31,-0.73,0.13
0.32,-0.74,0.14
0.32,-0.76,0.14
0.32,-0.76,0.15
0.34,-0.78,0.14
0.38,-0.79,0.13
0.41,-0.81,0.13
0.44,-0.83,0.12
0.46,-0.86,0.11
0.47,-0.88,0.11
0.46,-0.9,0.11
0.48,-0.91,0.11
0.48,-0.91,0.11
0.46,-0.9,0.12
0.46,-0.89,0.11
0.48,-0.88,0.1
0.48,-0.88,0.1
0.49,-0.88,0.11
0.5,-0.88,0.11
0.51,-0.9,0.1
0.51,-0.92,0.1
0.5,-0.96,0.11
0.47,-1.06,0.11
0.45,-1.09,0.1
0.42,-1.11,0.09
0.41,-1.14,0.08
0.42,-1.2,0.06
0.45,-1.32,0.05
0.49,-1.45,0.05
0.52,-1.51,0.05
0.53,-1.49,0.05
0.52,-1.43,0.04
0.51,-1.39,0.02
0.51,-1.33,0.01
0.49,-1.25,0
0.48,-1.18,-0.02
0.46,-1.12,-0.03
0.43,-1.07,-0.02
0.41,-1.03,-0.02
0.41,-1.02,-0.03
0.43,-1.03,-0.03
0.42,-1.08,-0.04
0.42,-1.12,-0.05
0.42,-1.15,-0.04
0.42,-1.17,-0.03
0.41,-1.18,-0.03
0.4,-1.17,-0.02
0.38,-1.14,-0.02
0.34,-1.11,-0.02
0.34,-1.07,-0.02
0.32,-1.04,-0.02
0.29,-1.02,-0.01
0.28,-1,-0.01
0.31,-0.98,0
0.31,-1,0.01
0.27,-1.02,0.02
0.27,-1.03,0.03
0.27,-1.05,0.02
0.26,-1.05,0.03
0.24,-1.04,0.03
0.23,-1.02,0.04
0.22,-1,0.04
0.21,-0.95,0.02
0.2,-0.92,0.02
0.21,-0.88,0.03
0.23,-0.84,0.03
0.23,-0.82,0.01
0.23,-0.81,-0.01
0.24,-0.79,0.01
0.25,-0.78,0.02
0.24,-0.77,0.02
0.25,-0.78,0.02
0.25,-0.78,0.02
0.24,-0.79,0.03
0.22,-0.81,0.03
0.21,-0.82,0.03
0.2,-0.82,0.03
0.19,-0.83,0.04
0.2,-0.84,0.05
0.2,-0.85,0.05
0.21,-0.87,0.05
0.22,-0.9,0.05
0.26,-0.97,0.04
0.31,-1.09,0.05
0.31,-1.25,0.05
0.23,-1.4,0.05
0.25,-1.42,0.06
0.33,-1.36,0.07
0.33,-1.32,0.06
0.34,-1.22,0.08
0.33,-1.13,0.12
0.36,-1.04,0.12
0.4,-0.94,0.11
0.42,-0.84,0.12
0.44,-0.77,0.13
0.5,-0.7,0.14
0.53,-0.69,0.17
0.52,-0.72,0.2
0.52,-0.76,0.2
0.52,-0.85,0.19
0.41,-1.04,0.19
0.36,-1.17,0.19
0.35,-1.27,0.2
0.35,-1.36,0.22
0.31,-1.43,0.26
0.26,-1.44,0.24
0.31,-1.36,0.21
0.39,-1.25,0.19
0.41,-1.18,0.18
0.43,-1.1,0.17
0.48,-0.99,0.16
0.53,-0.89,0.15
0.54,-0.85,0.15
0.57,-0.83,0.15
0.58,-0.82,0.14
0.56,-0.82,0.14
0.53,-0.84,0.15
0.51,-0.85,0.16
0.5,-0.87,0.16
0.49,-0.89,0.17
0.5,-0.9,0.17
0.51,-0.9,0.18
0.51,-0.88,0.19
0.51,-0.87,0.2
0.52,-0.85,0.19
0.53,-0.84,0.19
0.54,-0.84,0.19
0.55,-0.84,0.17
0.57,-0.84,0.17
0.58,-0.84,0.16
0.57,-0.84,0.15
0.57,-0.83,0.15
0.59,-0.83,0.14
0.6,-0.82,0.13
0.6,-0.84,0.12
0.61,-0.86,0.12
0.61,-0.89,0.12
0.6,-0.93,0.1
0.59,-0.95,0.08
0.58,-0.96,0.06
0.57,-0.97,0.06
0.55,-0.96,0.06
0.54,-0.94,0.06
0.54,-0.94,0.06
0.53,-0.96,0.08
0.55,-1.01,0.09
0.59,-1.13,0.07
0.64,-1.32,0.03
0.65,-1.5,-0.01
0.65,-1.55,-0.01
0.65,-1.54,0
0.65,-1.54,-0.04
0.68,-1.37,-0.06
0.66,-1.3,-0.06
0.64,-1.21,-0.07
0.61,-1.13,-0.09
0.59,-1.07,-0.12
0.55,-1.07,-0.16
0.5,-1.08,-0.19
0.47,-1.12,-0.21
0.43,-1.16,-0.21
0.42,-1.19,-0.22
0.42,-1.23,-0.24
0.45,-1.29,-0.26
0.46,-1.32,-0.26
0.45,-1.33,-0.27
0.42,-1.34,-0.3
0.4,-1.3,-0.31
0.37,-1.27,-0.32
0.33,-1.25,-0.32
0.3,-1.21,-0.31
0.29,-1.17,-0.3
0.28,-1.13,-0.3
0.28,-1.09,-0.3
0.29,-1.06,-0.3
0.32,-1.02,-0.29
0.34,-0.98,-0.29
0.35,-0.94,-0.29
0.35,-0.88,-0.3
0.33,-0.88,-0.31
0.31,-0.88,-0.3
0.31,-0.86,-0.3
0.32,-0.83,-0.29
0.33,-0.81,-0.28
0.33,-0.78,-0.27
0.34,-0.76,-0.25
0.36,-0.74,-0.23
0.37,-0.72,-0.22
0.38,-0.71,-0.2
0.38,-0.7,-0.18
0.39,-0.69,-0.17
0.39,-0.68,-0.16
0.38,-0.67,-0.14
0.38,-0.66,-0.12
0.37,-0.65,-0.11
0.36,-0.66,-0.11
0.34,-0.67,-0.09
0.34,-0.68,-0.07
0.34,-0.69,-0.06
0.35,-0.72,-0.05
0.36,-0.75,-0.03
0.38,-0.79,-0.01
0.39,-0.82,0.02
0.4,-0.85,0.05
0.41,-0.92,0.13
0.45,-0.95,0.16
0.47,-0.99,0.2
0.47,-1.02,0.27
0.48,-1.05,0.3
0.48,-1.06,0.3
0.46,-1.05,0.32
0.43,-1.07,0.32
0.39,-1.13,0.31
0.35,-1.18,0.35
0.33,-1.18,0.39
0.35,-1.18,0.38
0.34,-1.23,0.37
0.29,-1.2,0.42
0.28,-1.13,0.47
0.35,-1.09,0.43
0.4,-1.03,0.41
0.38,-0.97,0.42
0.4,-0.95,0.41
0.46,-0.91,0.41
0.5,-0.9,0.4
0.5,-0.92,0.4
0.5,-0.94,0.41
0.5,-0.98,0.4
0.5,-1.03,0.4
0.48,-1.08,0.43
0.45,-1.13,0.45
0.39,-1.13,0.45
0.36,-1.11,0.45
0.35,-1.07,0.45
0.35,-1.02,0.43
0.36,-0.97,0.43
0.37,-0.93,0.41
0.39,-0.91,0.39
0.41,-0.89,0.37
0.43,-0.88,0.35
0.44,-0.87,0.34
0.45,-0.86,0.33
0.46,-0.85,0.31
0.47,-0.84,0.3
0.47,-0.83,0.29
0.47,-0.82,0.29
0.48,-0.82,0.29
0.49,-0.82,0.28
0.5,-0.82,0.28
0.5,-0.81,0.27
0.51,-0.81,0.27
0.51,-0.8,0.26
0.51,-0.79,0.26
0.5,-0.78,0.26
0.5,-0.77,0.24
0.5,-0.76,0.23
0.48,-0.76,0.21
0.48,-0.77,0.19
0.48,-0.78,0.17
0.48,-0.8,0.15
0.46,-0.82,0.14
0.47,-0.83,0.13
0.48,-0.85,0.13
0.49,-0.86,0.12
0.49,-0.88,0.1
0.48,-0.9,0.07
0.47,-0.93,0.04
0.46,-0.95,0.03
0.45,-0.96,0.02
0.44,-0.97,0.01
0.44,-0.97,0.01
0.44,-0.95,0.01
0.43,-0.96,0
0.46,-1.01,-0.02
0.51,-1.12,-0.04
0.54,-1.24,-0.05
0.56,-1.34,-0.05
0.58,-1.42,-0.05
0.58,-1.46,-0.04
0.56,-1.48,-0.04
0.55,-1.47,-0.04
0.53,-1.45,-0.04
0.52,-1.39,-0.07
0.52,-1.24,-0.12
0.52,-1.19,-0.12
0.48,-1.18,-0.12
0.5,-1.18,-0.13
0.52,-1.2,-0.15
0.49,-1.25,-0.16
0.46,-1.29,-0.17
0.42,-1.32,-0.17
0.39,-1.34,-0.15
0.38,-1.34,-0.15
0.36,-1.32,-0.16
0.32,-1.29,-0.15
0.31,-1.24,-0.16
0.32,-1.19,-0.17
0.29,-1.16,-0.16
0.29,-1.11,-0.15
0.29,-1.07,-0.15
0.28,-1.06,-0.13
0.33,-1.03,-0.14
0.35,-1,-0.16
0.33,-0.98,-0.17
0.31,-0.96,-0.16
0.35,-0.92,-0.15
0.34,-0.89,-0.16
0.31,-0.88,-0.17
0.3,-0.85,-0.19
0.27,-0.79,-0.19
0.28,-0.77,-0.2
0.3,-0.74,-0.19
0.3,-0.71,-0.2
0.33,-0.67,-0.18
0.36,-0.66,-0.17
0.36,-0.66,-0.17
0.37,-0.65,-0.16
0.38,-0.65,-0.16
0.38,-0.65,-0.15
0.37,-0.66,-0.14
0.37,-0.68,-0.13
0.37,-0.7,-0.12
0.37,-0.73,-0.1
0.37,-0.76,-0.08
0.37,-0.8,-0.05
0.37,-0.84,-0.02
0.38,-0.88,0
0.39,-0.92,0.03
0.4,-0.96,0.06
0.42,-1,0.09
0.42,-1.04,0.12
0.46,-1.04,0.14
0.44,-1.09,0.17
0.42,-1.16,0.21
0.45,-1.2,0.24
0.4,-1.32,0.27
0.39,-1.32,0.3
0.36,-1.29,0.34
0.36,-1.26,0.34
0.33,-1.21,0.34
0.3,-1.15,0.37
0.32,-1.1,0.37
0.32,-1.02,0.38
0.3,-0.93,0.4
0.31,-0.88,0.37
0.32,-0.81,0.35
0.35,-0.78,0.34
0.37,-0.76,0.34
0.38,-0.78,0.35
0.36,-0.82,0.33
0.35,-0.87,0.33
0.33,-0.96,0.33
0.3,-1.03,0.34
0.28,-1.09,0.35
0.27,-1.15,0.34
0.26,-1.21,0.33
0.26,-1.24,0.33
0.28,-1.23,0.32
0.3,-1.17,0.31
0.33,-1.1,0.3
0.35,-1.05,0.29
0.37,-0.95,0.24
0.41,-0.91,0.22
0.43,-0.88,0.2
0.43,-0.86,0.18
0.43,-0.85,0.17
0.43,-0.87,0.18
0.41,-0.89,0.18
0.4,-0.89,0.16
0.42,-0.89,0.16
0.43,-0.91,0.16
0.43,-0.93,0.18
0.43,-0.94,0.18
0.43,-0.93,0.18
0.44,-0.9,0.18
0.44,-0.87,0.17
0.44,-0.85,0.18
0.43,-0.83,0.19
0.43,-0.8,0.2
0.42,-0.78,0.19
0.41,-0.77,0.18
0.41,-0.75,0.18
0.41,-0.75,0.17
0.42,-0.76,0.17
0.43,-0.77,0.16
0.44,-0.78,0.16
0.45,-0.8,0.14
0.46,-0.86,0.14
0.46,-0.88,0.13
0.45,-0.91,0.12
0.43,-0.94,0.1
0.42,-0.96,0.09
0.42,-0.99,0.09
0.43,-1.03,0.07
0.44,-1.07,0.06
0.45,-1.11,0.04
0.47,-1.18,0.03
0.5,-1.28,0.02
0.54,-1.42,0.02
0.54,-1.53,0.02
0.5,-1.58,0.04
0.52,-1.53,0.06
0.56,-1.45,0.06
0.55,-1.43,0.05
0.55,-1.37,0.04
0.55,-1.31,0.01
0.53,-1.24,0
0.49,-1.16,-0.01
0.44,-1.1,-0.02
0.42,-1.06,-0.02
0.42,-1.08,-0.02
0.41,-1.14,-0.02
0.41,-1.2,0
0.41,-1.24,0.01
0.42,-1.25,0.01
0.41,-1.26,0.01
0.41,-1.26,0.01
0.4,-1.26,0
0.4,-1.25,-0.01
0.37,-1.24,-0.01
0.35,-1.21,0.02
0.32,-1.19,0.02
0.32,-1.15,0.03
0.3,-1.1,0.03
0.29,-1.07,0.01
0.29,-1.04,0.02
0.26,-1.02,0.01
0.26,-0.99,0.01
0.26,-0.97,0.02
0.26,-0.94,0.02
0.26,-0.92,0.03
0.24,-0.9,0.03
0.24,-0.88,0.03
0.25,-0.85,0.03
0.24,-0.83,0.02
0.23,-0.79,0.02
0.22,-0.77,0.02
0.22,-0.75,0.02
0.23,-0.72,0.01
0.23,-0.71,0.02
0.24,-0.68,0.01
0.25,-0.67,0.02
0.26,-0.67,0.02
0.27,-0.68,0.04
0.28,-0.69,0.05
0.29,-0.71,0.06
0.3,-0.74,0.07
0.29,-0.77,0.07
0.29,-0.81,0.07
0.29,-0.84,0.09
0.3,-0.88,0.11
0.31,-0.92,0.13
0.31,-0.96,0.14
0.32,-1.01,0.15
0.33,-1.08,0.15
0.35,-1.19,0.14
0.37,-1.33,0.13
0.34,-1.43,0.13
0.31,-1.49,0.14
0.3,-1.5,0.15
0.35,-1.47,0.17
0.37,-1.43,0.19
0.35,-1.36,0.2
0.36,-1.23,0.2
0.39,-1.11,0.18
0.43,-1.01,0.19
0.47,-0.83,0.2
0.48,-0.78,0.17
0.48,-0.76,0.15
0.46,-0.76,0.15
0.41,-0.79,0.14
0.38,-0.84,0.12
0.36,-0.91,0.1
0.36,-0.99,0.08
0.35,-1.08,0.1
0.28,-1.15,0.13
0.22,-1.21,0.13
0.23,-1.24,0.11
0.26,-1.23,0.08
0.27,-1.19,0.06
0.28,-1.15,0.03
0.3,-1.1,0
0.32,-1.05,-0.01
0.34,-0.99,-0.01
0.38,-0.94,-0.02
0.4,-0.91,-0.02
0.4,-0.91,-0.03
0.4,-0.92,-0.04
0.44,-0.93,-0.05
0.45,-0.93,-0.05
0.41,-0.94,-0.04
0.4,-0.93,-0.03
0.37,-0.9,-0.03
0.35,-0.88,-0.02
0.35,-0.85,-0.01
0.36,-0.82,-0.01
0.38,-0.78,0
0.39,-0.75,0
0.41,-0.74,0
0.43,-0.74,0.01
0.45,-0.76,0.02
0.45,-0.79,0.03
0.45,-0.82,0.04
0.45,-0.86,0.04
0.46,-0.89,0.05
0.46,-0.92,0.06
0.44,-0.96,0.08
0.41,-0.99,0.09
0.41,-1,0.09
0.45,-1.01,0.1
0.5,-1.01,0.13
0.52,-1,0.18
0.5,-0.98,0.23
0.5,-0.96,0.25
0.54,-0.94,0.26
0.55,-0.96,0.26
0.57,-0.99,0.26
0.6,-1.02,0.28
0.62,-1.15,0.29
0.65,-1.26,0.29
0.67,-1.38,0.26
0.66,-1.43,0.25
0.6,-1.44,0.25
0.55,-1.42,0.25
0.56,-1.37,0.25
0.57,-1.33,0.24
0.55,-1.28,0.22
0.53,-1.22,0.2
0.55,-1.14,0.18
0.54,-1.08,0.16
0.52,-1.01,0.15
0.52,-0.95,0.14
0.53,-0.9,0.13
0.53,-0.89,0.12
0.51,-0.96,0.13
0.55,-1.02,0.08
0.57,-1.08,0.05
0.58,-1.13,0.05
0.45,-1.23,0.02
0.27,-1.32,0.08
0.33,-1.33,0.09
0.45,-1.32,0.03
0.41,-1.33,0.04
0.33,-1.34,0.07
0.29,-1.32,0.05
0.28,-1.28,0.03
0.26,-1.22,0.02
0.25,-1.17,0.02
0.24,-1.12,0.01
0.24,-1.06,0.01
0.27,-1.02,0.03
0.27,-1,0.05
0.26,-0.97,0.04
0.27,-0.93,0.04
0.27,-0.91,0.04
0.27,-0.88,0.04
0.27,-0.86,0.04
0.27,-0.84,0.04
0.27,-0.82,0.03
0.27,-0.81,0.03
0.26,-0.8,0.03
0.25,-0.79,0.03
0.24,-0.77,0.03
0.23,-0.76,0.03
0.24,-0.74,0.03
0.23,-0.73,0.04
0.23,-0.73,0.04
0.23,-0.73,0.04
0.24,-0.73,0.04
0.25,-0.74,0.04
0.25,-0.77,0.05
0.25,-0.76,0.06
0.23,-0.75,0.05
0.22,-0.73,0.05
0.22,-0.72,0.05
0.23,-0.72,0.04
0.24,-0.7,0.05
0.25,-0.71,0.04
0.28,-0.73,0.03
0.31,-0.75,0.03
0.32,-0.79,0.03
0.34,-0.84,0.02
0.35,-0.9,0.01
0.35,-0.98,0
0.37,-1.09,-0.01
0.36,-1.21,-0.02
0.38,-1.3,-0.02
0.39,-1.39,0.01
0.36,-1.5,0.02
0.37,-1.55,0.01
0.39,-1.56,0
0.38,-1.58,-0.01
0.38,-1.55,0
0.39,-1.47,0.01
0.4,-1.38,0
0.42,-1.28,0.02
0.46,-1.11,0.03
0.54,-1.07,0.02
0.53,-1.02,0.02
0.49,-0.99,0.02
0.45,-1,0
0.41,-1.04,-0.02
0.38,-1.11,-0.05
0.35,-1.19,-0.06
0.34,-1.27,-0.07
0.3,-1.34,-0.06
0.27,-1.39,-0.05
0.26,-1.43,-0.08
0.26,-1.42,-0.09
0.26,-1.37,-0.11
0.26,-1.27,-0.11
0.26,-1.18,-0.1
0.28,-1.08,-0.11
0.33,-0.96,-0.1
0.34,-0.88,-0.12
0.37,-0.8,-0.1
0.38,-0.74,-0.07
0.37,-0.71,-0.1
0.38,-0.66,-0.1
0.36,-0.62,-0.08
0.34,-0.62,-0.07
0.33,-0.63,-0.06
0.32,-0.67,-0.03
0.32,-0.72,-0.01
0.31,-0.78,0.01
0.32,-0.84,0.02
0.32,-0.9,0.03
0.33,-0.96,0.04
0.33,-1,0.05
0.32,-1,0.05
0.33,-0.99,0.05
0.34,-0.97,0.06
0.37,-0.94,0.07
0.4,-0.92,0.07
0.43,-0.88,0.07
0.47,-0.84,0.08
0.5,-0.82,0.08
0.53,-0.81,0.07
0.55,-0.81,0.09
0.55,-0.83,0.1
0.55,-0.86,0.11
0.54,-0.9,0.12
0.5,-0.96,0.14
0.47,-1.01,0.17
0.44,-1.06,0.17
0.43,-1.12,0.18
0.42,-1.19,0.2
0.42,-1.23,0.22
0.42,-1.25,0.24
0.39,-1.22,0.24
0.39,-1.18,0.24
0.39,-1.13,0.24
0.41,-1.07,0.23
0.43,-1.04,0.22
0.45,-1.04,0.23
0.45,-1.08,0.24
0.45,-1.14,0.26
0.48,-1.2,0.25
0.5,-1.23,0.25
0.47,-1.26,0.27
0.43,-1.31,0.27
0.39,-1.3,0.27
0.38,-1.27,0.26
0.37,-1.24,0.26
0.36,-1.19,0.28
0.34,-1.11,0.27
0.34,-1.08,0.23
0.35,-1.05,0.22
0.35,-0.99,0.21
0.34,-0.95,0.2
0.34,-0.94,0.18
0.33,-0.94,0.18
0.32,-0.95,0.17
0.3,-0.97,0.15
0.3,-0.96,0.11
0.28,-0.93,0.11
0.27,-0.92,0.1
0.26,-0.9,0.08
0.27,-0.87,0.06
0.27,-0.87,0.06
0.27,-0.87,0.06
0.3,-0.86,0.02
0.29,-0.86,0.02
0.28,-0.87,0.04
0.28,-0.88,0.02
0.27,-0.9,0.02
0.26,-0.93,0
0.25,-0.94,-0.01
0.25,-0.95,0
0.25,-0.96,0.01
0.24,-0.98,0
0.22,-0.99,0
0.19,-0.99,-0.03
0.19,-0.97,-0.04
0.21,-0.95,-0.03
0.22,-0.92,-0.04
0.22,-0.89,-0.04
0.21,-0.84,-0.04
0.22,-0.79,-0.05
0.23,-0.76,-0.06
0.24,-0.75,-0.08
0.29,-0.85,-0.1
0.32,-0.93,-0.1
0.34,-1.01,-0.09
0.36,-1.08,-0.08
0.35,-1.11,-0.07
0.34,-1.09,-0.04
0.32,-1.03,-0.03
0.32,-0.96,-0.03
0.33,-0.9,-0.05
0.35,-0.86,-0.06
0.38,-0.82,-0.05
0.4,-0.82,-0.02
0.43,-0.86,0.01
0.45,-0.92,0.03
0.47,-0.98,0.03
0.46,-1.06,0.04
0.47,-1.11,0.07
0.48,-1.18,0.1
0.45,-1.27,0.12
0.42,-1.34,0.1
0.43,-1.38,0.08
0.47,-1.39,0.08
0.48,-1.36,0.09
0.47,-1.34,0.1
0.46,-1.32,0.11
0.46,-1.27,0.11
0.51,-1.21,0.1
0.52,-1.18,0.12
0.55,-1.16,0.14
0.58,-1.14,0.14
0.6,-1.13,0.13
0.61,-1.13,0.12
0.6,-1.14,0.1
0.6,-1.13,0.1
0.61,-1.12,0.1
0.62,-1.12,0.1
0.62,-1.11,0.11
0.63,-1.1,0.1
0.63,-1.07,0.09
0.63,-1.06,0.09
0.65,-1.05,0.1
0.66,-1.04,0.1
0.67,-1.02,0.1
0.67,-0.99,0.09
0.67,-0.97,0.09
0.66,-0.96,0.09
0.65,-0.93,0.08
0.65,-0.91,0.07
0.64,-0.91,0.06
0.64,-0.91,0.06
0.64,-0.92,0.06
0.63,-0.93,0.05
0.61,-0.99,0.05
0.6,-1.01,0.05
0.59,-1.01,0.04
0.58,-1.01,0.04
0.58,-1,0.03
0.58,-0.98,0.02
0.57,-0.99,0.01
0.56,-1.03,0.01
0.54,-1.07,0.02
0.53,-1.11,0.04
0.52,-1.13,0.04
0.49,-1.14,0.05
0.47,-1.16,0.04
0.45,-1.16,0.02
0.44,-1.17,0.02
0.42,-1.19,0.03
0.4,-1.2,0.03
0.39,-1.21,0.03
0.38,-1.23,0.03
0.38,-1.25,0.03
0.37,-1.28,0.01
0.37,-1.3,0
0.34,-1.31,0.01
0.32,-1.32,0.02
0.32,-1.31,0.01
0.3,-1.3,0
0.31,-1.24,0.01
0.29,-1.22,0
0.28,-1.19,-0.01
0.27,-1.16,-0.01
0.28,-1.11,-0.01
0.28,-1.07,-0.03
0.29,-1.04,-0.03
0.28,-1.02,-0.03
0.27,-0.99,-0.03
0.26,-0.95,-0.02
0.26,-0.92,-0.02
0.27,-0.88,-0.02
0.28,-0.86,0
0.27,-0.85,0
0.27,-0.83,-0.01
0.27,-0.82,0
0.27,-0.82,0.02
0.26,-0.82,0.03
0.26,-0.81,0.04
0.26,-0.8,0.04
0.26,-0.81,0.03
0.25,-0.82,0.03
0.24,-0.81,0.04
0.24,-0.81,0.05
0.25,-0.82,0.06
0.25,-0.83,0.08
0.25,-0.88,0.09
0.27,-0.91,0.1
0.28,-0.94,0.11
0.31,-0.98,0.11
0.33,-1.06,0.11
0.34,-1.11,0.13
0.35,-1.14,0.17
0.35,-1.15,0.19
0.34,-1.16,0.18
0.35,-1.16,0.17
0.35,-1.15,0.17
0.35,-1.12,0.18
0.35,-1.08,0.19
0.35,-1.04,0.17
0.36,-1.01,0.17
0.39,-0.96,0.17
0.41,-0.94,0.18
0.44,-0.92,0.17
0.48,-0.92,0.16
0.47,-0.96,0.16
0.44,-1.01,0.15
0.45,-1.05,0.14
0.45,-1.11,0.15
0.43,-1.16,0.14
0.41,-1.2,0.14
0.37,-1.24,0.14
0.36,-1.2,0.14
0.39,-1.17,0.14
0.43,-1.14,0.13
0.46,-1.11,0.13
0.48,-1.07,0.1
0.49,-1.04,0.07
0.49,-0.97,0.06
0.48,-0.9,0.07
0.48,-0.85,0.07
0.48,-0.82,0.07
0.48,-0.82,0.07
0.46,-0.84,0.08
0.44,-0.87,0.08
0.44,-0.89,0.08
0.43,-0.91,0.09
0.42,-0.93,0.11
0.44,-0.94,0.12
0.46,-0.94,0.13
0.46,-0.94,0.15
0.47,-0.94,0.16
0.48,-0.93,0.16
0.48,-0.92,0.18
0.48,-0.9,0.21
0.48,-0.88,0.22
0.49,-0.86,0.22
0.49,-0.83,0.22
0.5,-0.81,0.21
0.54,-0.77,0.2
0.55,-0.77,0.2
0.55,-0.78,0.21
0.54,-0.8,0.22
0.55,-0.83,0.22
0.56,-0.86,0.23
0.57,-0.9,0.22
0.56,-0.95,0.21
0.54,-0.98,0.19
0.5,-1.01,0.18
0.47,-1.03,0.16
0.42,-1.04,0.13
0.4,-1.03,0.1
0.42,-1.02,0.06
0.47,-1.06,0.03
0.55,-1.18,-0.02
0.61,-1.32,-0.03
0.6,-1.4,-0.02
0.54,-1.44,-0.04
0.52,-1.46,-0.09
0.51,-1.5,-0.12
0.48,-1.54,-0.14
0.46,-1.53,-0.19
0.44,-1.49,-0.25
0.44,-1.41,-0.28
0.44,-1.32,-0.34
0.42,-1.12,-0.36
0.42,-1.06,-0.39
0.41,-1.06,-0.44
0.37,-1.08,-0.48
0.32,-1.11,-0.52
0.27,-1.13,-0.55
0.24,-1.12,-0.59
0.22,-1.1,-0.63
0.2,-1.07,-0.67
0.2,-1.02,-0.67
0.21,-0.99,-0.66
0.24,-0.98,-0.64
0.26,-0.98,-0.63
0.27,-1.01,-0.63
0.27,-1.06,-0.63
0.24,-1.1,-0.61
0.22,-1.1,-0.59
0.21,-1.08,-0.57
0.21,-1.08,-0.54
0.21,-1.07,-0.5
0.22,-1.06,-0.47
0.23,-1.04,-0.44
0.24,-1.03,-0.42
0.25,-1.04,-0.42
0.24,-1.05,-0.41
0.23,-1.05,-0.36
0.21,-1.02,-0.33
0.21,-1,-0.31
0.22,-1,-0.28
0.21,-0.99,-0.26
0.22,-0.98,-0.24
0.23,-0.97,-0.22
0.23,-0.98,-0.21
0.23,-0.98,-0.2
0.24,-0.97,-0.19
0.25,-0.97,-0.18
0.26,-0.96,-0.16
0.26,-0.97,-0.15
0.27,-0.97,-0.14
0.27,-0.97,-0.13
0.27,-0.98,-0.11
0.27,-0.99,-0.1
0.28,-1,-0.09
0.28,-1.02,-0.08
0.29,-1.03,-0.05
0.31,-1.05,-0.03
0.33,-1.06,-0.03
0.35,-1.08,0.01
0.33,-1.1,0.05
0.31,-1.14,0.06
0.34,-1.18,0.11
0.33,-1.22,0.15
0.24,-1.26,0.22
0.22,-1.22,0.24
0.23,-1.16,0.3
0.25,-1.08,0.37
0.27,-1.02,0.4
0.27,-0.96,0.41
0.28,-0.87,0.41
0.28,-0.79,0.39
0.25,-0.77,0.34
0.26,-0.76,0.34
0.21,-0.73,0.39
0.16,-0.7,0.42
0.2,-0.67,0.44
0.26,-0.72,0.39
0.28,-0.81,0.37
0.24,-0.91,0.39
0.24,-1.01,0.37
0.26,-1.07,0.35
0.28,-1.12,0.34
0.3,-1.17,0.34
0.33,-1.19,0.32
0.36,-1.19,0.3
0.39,-1.16,0.29
0.4,-1.12,0.29
0.4,-1.08,0.28
0.4,-1.04,0.27
0.44,-0.98,0.25
0.47,-0.98,0.22
0.46,-0.98,0.2
0.45,-0.97,0.2
0.45,-0.97,0.2
0.45,-0.97,0.2
0.45,-0.97,0.21
0.44,-0.97,0.21
0.43,-0.98,0.21
0.42,-0.98,0.21
0.41,-0.97,0.21
0.42,-0.96,0.21
0.43,-0.95,0.2
0.45,-0.92,0.2
0.46,-0.9,0.21
0.46,-0.89,0.21
0.47,-0.88,0.19
0.46,-0.87,0.18
0.48,-0.84,0.18
0.48,-0.81,0.18
0.46,-0.81,0.18
0.45,-0.8,0.18
0.45,-0.79,0.18
0.43,-0.81,0.17
0.42,-0.82,0.17
0.42,-0.84,0.14
0.4,-0.89,0.13
0.4,-0.92,0.11
0.41,-0.93,0.1
0.41,-0.94,0.1
0.4,-0.95,0.1
0.4,-0.96,0.11
0.4,-0.96,0.11
0.4,-0.96,0.12
0.4,-0.97,0.12
0.39,-0.97,0.11
0.38,-0.97,0.1
0.36,-0.99,0.09
0.36,-1.07,0.09
0.37,-1.18,0.1
0.36,-1.29,0.11
0.34,-1.33,0.12
0.31,-1.35,0.13
0.28,-1.36,0.12
0.26,-1.34,0.1
0.23,-1.27,0.08
0.2,-1.15,0.05
0.15,-1.04,0.04
0.14,-0.95,0.03
0.12,-0.86,0.03
0.11,-0.82,0.04
0.11,-0.82,0.06
0.1,-0.88,0.1
0.11,-0.95,0.09
0.09,-1.02,0.09
0.04,-1.08,0.08
-0.02,-1.11,0.07
-0.06,-1.12,0.05
-0.11,-1.15,0.03
-0.16,-1.16,0.04
-0.2,-1.14,0.05
-0.21,-1.11,0.05
-0.2,-1.08,0.03
-0.18,-1.04,0.04
-0.17,-1.02,0.04
-0.14,-0.98,0.04
-0.11,-0.95,0.04
-0.09,-0.95,0.03
-0.09,-0.95,0.01
-0.09,-0.94,-0.01
-0.08,-0.94,-0.03
-0.09,-0.94,-0.05
-0.09,-0.94,-0.06
-0.08,-0.95,-0.05
-0.07,-0.96,-0.05
-0.04,-0.97,-0.04
0,-1,-0.04
0.01,-1.02,-0.03
0.03,-1.05,-0.03
0.08,-1.07,-0.04
0.1,-1.08,-0.06
0.11,-1.07,-0.07
0.12,-1.05,-0.07
0.13,-1.02,-0.07
0.14,-0.99,-0.06
0.15,-0.97,-0.06
0.17,-0.96,-0.07
0.18,-0.96,-0.06
0.19,-0.97,-0.05
0.21,-0.99,-0.06
0.23,-1,-0.06
0.23,-0.99,-0.06
0.23,-0.99,-0.07
0.25,-0.98,-0.09
0.26,-0.99,-0.1
0.27,-0.99,-0.1
0.28,-0.99,-0.1
0.28,-1.01,-0.09
0.27,-1.03,-0.08
0.27,-1.03,-0.07
0.26,-1.03,-0.07
0.26,-1.03,-0.07
0.25,-1.02,-0.07
0.24,-1,-0.07
0.25,-0.97,-0.05
0.25,-0.98,-0.05
0.26,-0.98,-0.06
0.26,-0.99,-0.06
0.28,-0.99,-0.04
0.29,-0.99,-0.02
0.3,-0.97,0
0.29,-0.95,0.02
0.28,-0.95,0.03
0.28,-0.93,0.05
0.29,-0.9,0.08
0.29,-0.89,0.1
0.28,-0.89,0.11
0.28,-0.92,0.11
0.26,-0.93,0.12
0.26,-0.91,0.14
0.29,-0.86,0.17
0.34,-0.82,0.19
0.37,-0.82,0.21
0.38,-0.83,0.24
0.37,-0.85,0.25
0.38,-0.85,0.25
0.41,-0.86,0.25
0.45,-0.86,0.23
0.47,-0.86,0.22
0.48,-0.85,0.22
0.5,-0.83,0.22
0.54,-0.84,0.22
0.56,-0.85,0.22
0.54,-0.87,0.23
0.52,-0.85,0.24
0.5,-0.81,0.26
0.48,-0.79,0.26
0.46,-0.78,0.25
0.46,-0.79,0.24
0.5,-0.79,0.23
0.56,-0.79,0.2
0.62,-0.8,0.2
0.64,-0.8,0.2
0.62,-0.79,0.22
0.59,-0.8,0.25
0.57,-0.83,0.25
0.56,-0.86,0.25
0.59,-0.89,0.24
0.63,-0.91,0.24
0.67,-0.94,0.24
0.75,-1,0.23
0.86,-1.06,0.25
0.94,-1.11,0.29
0.97,-1.13,0.34
0.97,-1.15,0.39
0.94,-1.13,0.4
0.9,-1.1,0.37
0.86,-1.01,0.37
0.84,-0.96,0.37
0.83,-0.91,0.36
0.81,-0.86,0.37
0.82,-0.82,0.38
0.85,-0.8,0.39
0.88,-0.81,0.39
0.87,-0.83,0.39
0.88,-0.86,0.4
0.9,-0.87,0.41
