Acc_x,Acc_y,Acc_z
0,0,0
0,0,0
0,0,0
0,0,0
0,0,0
0,0,0
0,0,0
0,0,0
0,0,0
0,0,0
0,0,0
0,0,0
0,0,0
0,0,0
0,0,0
0,0,0
0,0,0
0,0,0
0,0,0
0,0,0
0,0,0
0,0,0
0,0,0
0,0,0
0,0,0
0,0,0
0,0,0
0,0,0
0,0,0
0,0,0
0,0,0
0,0,0
0,0,0
0,0,0
0,0,0
0,0,0
0,0,0
0,0,0
0,0,0
0,0,0
0,0,0
0,0,0
0,0,0
0,0,0
0,0,0
0,0,0
0,0,0
0,0,0
0,0,0
0,0,0
0,0,0
0,0,0
0,0,0
0,0,0
0,0,0
0,0,0
0,0,0
0,0,0
0,0,0
0,0,0
0,0,0
0,0,0
0,0,0
0,0,0
0,0,0
0,0,0
0,0,0
0,0,0
0,0,0
0,0,0
0,0,0
0,0,0
0,0,0
0,0,0
0,0,0
0,0,0
0,0,0
0,0,0
0,0,0
0,0,0
0,0,0
0,0,0
0,0,0
0,0,0
0,0,0
0,0,0
0,0,0
0,0,0
0,0,0
0,0,0
0,0,0
0,0,0
0,0,0
0,0,0
0,0,0
0,0,0
0,0,0
0,0,0
0,0,0
0,0,0
0,0,0
0,0,0
0.77,-0.21,0.94
0.82,-0.21,1.02
0.84,-0.21,1.04
0.83,-0.21,1.01
0.77,-0.18,0.95
0.68,-0.17,0.89
0.61,-0.17,0.88
0.55,-0.18,0.84
0.48,-0.2,0.77
0.41,-0.23,0.71
0.36,-0.26,0.7
0.36,-0.3,0.68
0.41,-0.38,0.67
0.55,-0.34,0.82
0.69,-0.25,1.05
0.67,-0.18,1.23
0.57,-0.19,1.24
0.51,-0.26,1.15
0.51,-0.3,1.01
0.59,-0.31,0.87
0.66,-0.27,0.79
0.65,-0.26,0.76
0.64,-0.27,0.71
0.61,-0.28,0.71
0.57,-0.3,0.71
0.54,-0.31,0.72
0.51,-0.31,0.73
0.5,-0.32,0.74
0.49,-0.3,0.78
0.45,-0.3,0.82
0.45,-0.34,0.83
0.47,-0.36,0.84
0.47,-0.36,0.85
0.46,-0.35,0.86
0.44,-0.35,0.87
0.44,-0.37,0.87
0.44,-0.38,0.86
0.44,-0.39,0.85
0.47,-0.42,0.85
0.51,-0.46,0.87
0.52,-0.48,0.88
0.52,-0.48,0.89
0.5,-0.46,0.89
0.5,-0.45,0.86
0.5,-0.44,0.82
0.49,-0.44,0.8
0.49,-0.44,0.8
0.48,-0.43,0.81
0.47,-0.42,0.85
0.44,-0.4,0.86
0.45,-0.4,0.86
0.48,-0.4,0.83
0.5,-0.4,0.8
0.51,-0.39,0.78
0.51,-0.38,0.76
0.52,-0.39,0.75
0.53,-0.39,0.73
0.54,-0.39,0.72
0.56,-0.4,0.7
0.59,-0.4,0.7
0.59,-0.39,0.72
0.59,-0.39,0.74
0.58,-0.4,0.74
0.57,-0.41,0.74
0.59,-0.39,0.73
0.59,-0.39,0.73
0.59,-0.39,0.73
0.6,-0.38,0.73
0.57,-0.37,0.75
0.55,-0.38,0.76
0.57,-0.38,0.75
0.59,-0.37,0.73
0.58,-0.37,0.72
0.58,-0.37,0.7
0.6,-0.37,0.71
0.57,-0.36,0.72
0.58,-0.37,0.71
0.59,-0.37,0.72
0.59,-0.38,0.74
0.6,-0.38,0.74
0.62,-0.38,0.73
0.63,-0.38,0.73
0.63,-0.38,0.73
0.63,-0.39,0.74
0.63,-0.4,0.76
0.61,-0.41,0.77
0.61,-0.42,0.77
0.62,-0.41,0.76
0.74,-0.39,0.65
0.79,-0.35,0.57
0.74,-0.34,0.6
0.74,-0.36,0.61
0.68,-0.35,0.62
0.6,-0.32,0.64
0.59,-0.31,0.62
0.61,-0.29,0.56
0.63,-0.28,0.5
0.62,-0.29,0.44
0.62,-0.3,0.42
0.65,-0.29,0.43
0.65,-0.28,0.54
0.58,-0.35,0.64
0.62,-0.35,0.75
0.65,-0.35,0.8
0.66,-0.38,0.82
0.7,-0.38,0.85
0.74,-0.4,0.85
0.75,-0.41,0.84
0.71,-0.41,0.85
0.62,-0.41,0.87
0.58,-0.42,0.91
0.51,-0.45,0.93
0.47,-0.47,0.9
0.46,-0.47,0.86
0.43,-0.47,0.83
0.38,-0.48,0.82
0.36,-0.47,0.81
0.38,-0.47,0.79
0.4,-0.45,0.76
0.44,-0.43,0.71
0.46,-0.41,0.69
0.49,-0.39,0.68
0.57,-0.39,0.66
0.64,-0.4,0.66
0.67,-0.4,0.69
0.68,-0.41,0.71
0.67,-0.42,0.7
0.64,-0.43,0.68
0.61,-0.43,0.65
0.59,-0.44,0.67
0.59,-0.46,0.74
0.58,-0.47,0.78
0.54,-0.47,0.81
0.51,-0.48,0.83
0.49,-0.47,0.84
0.45,-0.46,0.82
0.41,-0.45,0.77
0.41,-0.45,0.71
0.45,-0.45,0.67
0.48,-0.46,0.68
0.51,-0.46,0.72
0.54,-0.46,0.77
0.55,-0.45,0.81
0.52,-0.45,0.85
0.54,-0.47,0.92
0.6,-0.47,0.9
0.65,-0.47,0.84
0.72,-0.48,0.81
0.76,-0.48,0.79
0.76,-0.46,0.78
0.72,-0.44,0.73
0.72,-0.41,0.68
0.71,-0.39,0.65
0.47,-0.4,0.58
0.47,-0.42,0.59
0.53,-0.43,0.71
0.44,-0.43,0.84
0.37,-0.41,0.91
0.42,-0.4,0.95
0.47,-0.39,0.97
0.54,-0.37,0.92
0.58,-0.34,0.76
0.63,-0.34,0.58
0.71,-0.35,0.48
0.74,-0.36,0.48
0.69,-0.37,0.51
0.63,-0.38,0.53
0.54,-0.39,0.54
0.53,-0.41,0.54
0.6,-0.41,0.54
0.64,-0.4,0.51
0.69,-0.4,0.48
0.76,-0.41,0.49
0.84,-0.43,0.54
0.84,-0.41,0.62
0.65,-0.4,0.59
0.63,-0.41,0.47
0.73,-0.42,0.33
0.74,-0.42,0.2
0.7,-0.54,0.31
0.74,-0.61,0.52
0.76,-0.63,0.75
0.74,-0.62,0.92
0.74,-0.61,1.07
0.74,-0.57,1.15
0.71,-0.52,1.13
0.68,-0.49,1.04
0.66,-0.48,0.92
0.64,-0.48,0.79
0.62,-0.49,0.72
0.66,-0.53,0.68
0.7,-0.54,0.61
0.71,-0.58,0.58
0.71,-0.58,0.65
0.66,-0.52,0.73
0.6,-0.51,0.78
0.6,-0.47,0.83
0.54,-0.43,0.9
0.41,-0.41,0.84
0.33,-0.4,0.73
0.38,-0.39,0.73
0.46,-0.38,0.74
0.54,-0.38,0.71
0.59,-0.37,0.69
0.62,-0.38,0.66
0.7,-0.4,0.64
0.67,-0.41,0.62
0.62,-0.42,0.6
0.58,-0.42,0.63
0.54,-0.43,0.67
0.5,-0.42,0.73
0.45,-0.39,0.83
0.39,-0.36,0.94
0.36,-0.34,1.02
0.39,-0.32,1.06
0.47,-0.31,1.07
0.57,-0.3,1.07
0.65,-0.29,1.09
0.73,-0.28,1
0.77,-0.31,0.84
0.75,-0.34,0.7
0.82,-0.33,0.63
0.92,-0.29,0.54
0.94,-0.23,0.52
0.97,-0.15,0.59
1.05,-0.1,0.57
1.08,-0.07,0.51
1.07,-0.01,0.46
1,0.06,0.45
0.95,0.1,0.47
0.94,0.13,0.41
0.93,0.17,0.4
0.89,0.2,0.4
0.8,0.24,0.39
0.8,0.26,0.34
0.84,0.24,0.24
0.87,0.23,0.17
0.92,0.24,0.14
0.98,0.24,0.14
0.99,0.25,0.14
0.99,0.26,0.13
1,0.27,0.09
0.99,0.27,0.01
1.01,0.3,-0.02
1.02,0.31,-0.02
1.02,0.3,-0.03
1,0.31,-0.06
0.98,0.31,-0.12
0.97,0.32,-0.2
0.96,0.34,-0.29
0.94,0.36,-0.36
0.92,0.37,-0.43
0.9,0.37,-0.52
0.87,0.37,-0.55
0.85,0.39,-0.58
0.83,0.42,-0.62
0.82,0.39,-0.63
0.83,0.35,-0.6
0.83,0.35,-0.56
0.56,0.34,-0.46
0.75,-0.95,1.79
1.63,-1.73,2.58
1.45,-0.56,0.07
0.61,0.46,-0.9
0.49,1.01,-0.63
0.78,1.21,-0.41
0.92,0.95,-0.29
0.97,0.71,-0.26
1.09,0.73,-0.3
1.12,0.74,-0.36
0.99,0.73,-0.32
0.84,0.72,-0.24
0.74,0.72,-0.25
0.65,0.69,-0.27
0.61,0.67,-0.25
0.65,0.65,-0.23
0.73,0.65,-0.21
0.76,0.65,-0.16
0.8,0.64,-0.12
0.81,0.65,-0.12
0.79,0.66,-0.13
0.75,0.67,-0.15
0.7,0.66,-0.18
0.65,0.65,-0.18
0.62,0.64,-0.18
0.62,0.63,-0.18
0.63,0.63,-0.17
0.64,0.63,-0.15
0.66,0.63,-0.14
0.67,0.62,-0.12
0.67,0.61,-0.11
0.69,0.62,-0.12
0.69,0.63,-0.14
0.7,0.63,-0.16
0.72,0.64,-0.16
0.72,0.64,-0.15
0.72,0.64,-0.15
0.73,0.64,-0.15
0.75,0.64,-0.14
0.77,0.64,-0.14
0.77,0.65,-0.12
0.75,0.65,-0.12
0.75,0.67,-0.14
0.76,0.68,-0.15
0.77,0.69,-0.16
0.76,0.71,-0.15
0.74,0.71,-0.13
0.76,0.71,-0.12
0.76,0.7,-0.09
0.77,0.7,-0.06
0.82,0.71,-0.05
0.81,0.71,-0.04
0.81,0.71,-0.03
0.83,0.71,-0.03
0.86,0.71,-0.01
0.92,0.7,0.01
0.9,0.7,0.04
0.82,0.7,0.08
0.81,0.7,0.1
0.87,0.68,0.09
0.92,0.67,0.06
0.94,0.67,0.02
0.92,0.68,0
0.81,0.69,0.01
0.76,0.69,0.01
0.75,0.73,-0.01
0.72,0.78,-0.02
0.72,0.78,-0.02
0.63,0.75,0.01
0.58,0.75,0.04
0.54,0.76,0.03
0.45,0.75,0.05
0.4,0.78,0.07
0.38,0.83,0.04
0.38,0.84,-0.02
0.49,0.89,-0.04
0.37,0.86,0.03
0.4,0.86,0.01
0.38,0.86,-0.01
0.27,0.87,0.02
0.22,0.89,0.04
0.27,0.89,0.02
0.31,0.88,0.03
0.28,0.87,0.04
0.22,0.88,0.04
0.17,0.89,0.06
0.12,0.89,0.06
0.07,0.86,0.07
0.1,0.85,0.07
0.1,0.86,0.03
0.1,0.85,-0.01
0.13,0.83,-0.04
0.12,0.8,-0.05
0.16,0.76,-0.03
0.27,0.73,0.05
0.31,0.71,0.16
0.37,0.73,0.21
0.42,0.77,0.18
0.35,0.77,0.14
0.32,0.77,0.14
0.29,0.76,0.24
0.27,0.72,0.68
1.08,0.21,2.42
1.87,0.05,3.32
1.47,0.4,1.88
0.67,0.86,0.96
0.25,0.95,0.62
0.18,0.87,0.35
0.27,0.81,0.29
0.26,0.79,0.29
0.23,0.75,0.39
0.22,0.7,0.51
0.25,0.69,0.58
0.28,0.71,0.61
0.26,0.74,0.62
0.24,0.74,0.62
0.22,0.74,0.6
0.19,0.75,0.56
0.16,0.75,0.52
0.14,0.74,0.49
0.14,0.73,0.5
0.16,0.73,0.51
0.18,0.74,0.53
0.21,0.75,0.55
0.24,0.76,0.58
0.26,0.76,0.59
0.27,0.76,0.6
0.27,0.76,0.59
0.27,0.77,0.58
0.28,0.77,0.58
0.29,0.77,0.58
0.3,0.77,0.58
0.31,0.77,0.58
0.31,0.76,0.58
0.32,0.76,0.58
0.32,0.76,0.58
0.31,0.75,0.58
0.3,0.75,0.57
0.29,0.75,0.57
0.3,0.75,0.56
0.31,0.75,0.56
0.32,0.75,0.56
0.33,0.76,0.58
0.33,0.75,0.59
0.32,0.75,0.58
0.31,0.76,0.58
0.3,0.76,0.57
0.3,0.76,0.57
0.29,0.76,0.57
0.29,0.75,0.57
0.3,0.75,0.57
0.3,0.76,0.57
0.3,0.76,0.56
0.29,0.75,0.57
0.31,0.76,0.57
0.31,0.76,0.55
0.31,0.75,0.54
0.31,0.76,0.55
0.29,0.76,0.56
0.29,0.76,0.57
0.29,0.77,0.57
0.29,0.77,0.59
0.29,0.76,0.59
0.3,0.76,0.62
0.29,0.77,0.64
0.27,0.76,0.63
0.28,0.76,0.61
0.29,0.76,0.6
0.29,0.76,0.6
0.28,0.77,0.61
0.29,0.77,0.62
0.3,0.78,0.62
0.29,0.78,0.63
0.27,0.79,0.64
0.27,0.79,0.64
0.27,0.78,0.62
0.29,0.78,0.6
0.31,0.79,0.59
0.31,0.8,0.58
0.3,0.8,0.56
0.27,0.79,0.56
0.27,0.8,0.56
0.25,0.81,0.55
0.23,0.81,0.52
0.21,0.81,0.49
0.19,0.82,0.46
0.19,0.82,0.43
0.18,0.82,0.42
0.18,0.82,0.42
0.17,0.82,0.42
0.15,0.82,0.4
0.14,0.84,0.37
0.12,0.84,0.35
0.11,0.85,0.34
0.11,0.86,0.32
0.1,0.87,0.31
0.1,0.87,0.3
0.09,0.88,0.29
0.06,0.88,0.28
0.04,0.87,0.28
0.03,0.87,0.27
0.04,0.87,0.27
0.05,0.86,0.27
0.07,0.85,0.27
0.1,0.85,0.29
0.13,0.85,0.32
0.13,0.87,0.32
0.11,0.89,0.29
0.09,0.9,0.23
0.08,0.89,0.2
0.09,0.89,0.22
0.08,0.87,0.27
0.07,0.85,0.31
0.04,0.84,0.32
-0.02,0.83,0.35
-0.02,0.8,0.32
-0.03,0.78,0.3
-0.08,0.76,0.35
-0.11,0.71,0.4
0.87,0.52,1.13
2.31,0.72,2.44
1.62,0.96,2.01
0.52,0.83,0.93
0.32,0.8,0.78
-0.05,0.82,0.46
-0.05,0.8,0.17
0.08,0.77,0.13
0.07,0.8,0.24
0.06,0.8,0.36
0.1,0.77,0.46
0.13,0.76,0.53
0.14,0.76,0.56
0.17,0.8,0.55
0.17,0.8,0.54
0.18,0.81,0.53
0.18,0.81,0.53
0.19,0.8,0.55
0.19,0.8,0.58
0.2,0.78,0.61
0.23,0.76,0.63
0.28,0.75,0.62
0.32,0.74,0.6
0.35,0.73,0.56
0.36,0.73,0.53
0.37,0.75,0.52
0.37,0.76,0.53
0.35,0.76,0.55
0.31,0.77,0.57
0.28,0.79,0.6
0.26,0.8,0.62
0.22,0.81,0.62
0.18,0.81,0.59
0.15,0.8,0.56
0.14,0.8,0.54
0.13,0.79,0.53
0.12,0.79,0.54
0.13,0.78,0.54
0.14,0.78,0.56
0.17,0.8,0.57
0.18,0.8,0.57
0.2,0.8,0.56
0.23,0.81,0.56
0.23,0.8,0.58
0.24,0.78,0.58
0.24,0.79,0.58
0.24,0.81,0.57
0.24,0.8,0.56
0.24,0.79,0.54
0.25,0.8,0.53
0.25,0.8,0.53
0.24,0.78,0.53
0.23,0.79,0.53
0.24,0.8,0.53
0.24,0.79,0.53
0.21,0.77,0.52
0.2,0.77,0.52
0.21,0.77,0.52
0.22,0.76,0.52
0.21,0.76,0.53
0.19,0.77,0.53
0.21,0.78,0.53
0.24,0.78,0.54
0.24,0.78,0.56
0.24,0.79,0.59
0.28,0.78,0.61
0.27,0.78,0.61
0.23,0.77,0.59
0.21,0.76,0.57
0.23,0.76,0.59
0.24,0.76,0.63
0.24,0.76,0.64
0.24,0.78,0.64
0.24,0.79,0.63
0.23,0.81,0.61
0.22,0.83,0.58
0.21,0.84,0.56
0.2,0.85,0.53
0.2,0.85,0.51
0.19,0.86,0.5
0.18,0.86,0.48
0.18,0.87,0.49
0.18,0.87,0.49
0.18,0.87,0.46
0.18,0.86,0.42
0.17,0.86,0.4
0.17,0.86,0.38
0.16,0.86,0.36
0.17,0.85,0.35
0.16,0.85,0.35
0.17,0.84,0.36
0.18,0.84,0.39
0.19,0.84,0.39
0.2,0.85,0.39
0.2,0.85,0.38
0.2,0.85,0.39
0.2,0.85,0.4
0.18,0.86,0.41
0.17,0.87,0.4
0.16,0.87,0.36
0.15,0.88,0.33
0.14,0.87,0.31
0.14,0.85,0.3
0.16,0.85,0.3
0.17,0.85,0.31
0.17,0.84,0.29
0.18,0.85,0.27
0.17,0.86,0.28
0.14,0.88,0.29
0.09,0.85,0.3
0.05,0.82,0.31
0.03,0.79,0.34
0.03,0.77,0.38
0.27,0.56,0.77
1.44,0.45,1.6
1.92,0.81,1.69
0.97,0.9,1
0.18,0.65,0.74
-0.03,0.66,0.49
0.12,0.7,0.34
0.18,0.73,0.33
0.19,0.76,0.35
0.16,0.74,0.42
0.16,0.73,0.44
0.16,0.74,0.45
0.13,0.76,0.49
0.1,0.78,0.53
0.1,0.79,0.56
0.11,0.79,0.58
0.15,0.81,0.58
0.18,0.81,0.58
0.21,0.81,0.57
0.23,0.8,0.56
0.24,0.8,0.54
0.26,0.8,0.53
0.29,0.79,0.52
0.34,0.79,0.53
0.39,0.78,0.53
0.41,0.78,0.54
0.41,0.79,0.54
0.41,0.78,0.54
0.39,0.78,0.54
0.37,0.78,0.53
0.35,0.79,0.51
0.31,0.79,0.52
0.31,0.78,0.52
0.3,0.79,0.52
0.28,0.79,0.52
0.28,0.79,0.52
0.28,0.79,0.52
0.28,0.79,0.52
0.28,0.79,0.52
0.28,0.79,0.53
0.28,0.79,0.52
0.27,0.79,0.52
0.27,0.79,0.52
0.28,0.79,0.52
0.28,0.79,0.52
0.28,0.78,0.52
0.27,0.78,0.52
0.26,0.78,0.52
0.27,0.78,0.53
0.3,0.78,0.54
0.3,0.79,0.54
0.3,0.79,0.54
0.29,0.79,0.54
0.3,0.78,0.54
0.3,0.79,0.54
0.3,0.79,0.54
0.29,0.79,0.52
0.28,0.79,0.52
0.29,0.8,0.52
0.28,0.8,0.53
0.28,0.79,0.52
0.28,0.79,0.52
0.26,0.79,0.52
0.26,0.77,0.51
0.29,0.77,0.53
0.29,0.77,0.56
0.29,0.78,0.57
0.3,0.79,0.58
0.3,0.79,0.58
0.29,0.78,0.59
0.28,0.78,0.6
0.27,0.78,0.62
0.25,0.78,0.61
0.25,0.77,0.59
0.25,0.75,0.59
0.24,0.76,0.58
0.25,0.77,0.54
0.29,0.77,0.51
0.3,0.79,0.53
0.31,0.79,0.54
0.32,0.8,0.54
0.31,0.81,0.55
0.29,0.82,0.54
0.27,0.83,0.55
0.29,0.82,0.53
0.35,0.81,0.51
0.37,0.83,0.51
0.37,0.83,0.51
0.34,0.83,0.51
0.32,0.83,0.5
0.3,0.84,0.5
0.29,0.84,0.5
0.28,0.85,0.48
0.25,0.85,0.45
0.21,0.85,0.43
0.21,0.85,0.4
0.23,0.85,0.38
0.21,0.86,0.38
0.2,0.86,0.37
0.18,0.86,0.36
0.17,0.86,0.36
0.17,0.87,0.37
0.15,0.87,0.39
0.13,0.87,0.38
0.12,0.87,0.36
0.11,0.88,0.33
0.09,0.89,0.29
0.06,0.9,0.25
0.03,0.9,0.17
0,0.9,0.15
-0.01,0.89,0.14
0.03,0.89,0.13
0.08,0.88,0.15
0.12,0.87,0.21
0.15,0.87,0.26
0.16,0.87,0.3
0.13,0.88,0.31
0.09,0.89,0.26
0.07,0.88,0.2
0.06,0.87,0.15
0.05,0.86,0.14
0.04,0.84,0.16
0.06,0.81,0.23
0.11,0.8,0.31
0.12,0.79,0.4
0.17,0.77,0.47
0.26,0.76,0.48
0.25,0.83,0.5
0.84,0.67,1.7
1.38,0.63,2.29
1.34,0.83,1.1
1.02,0.82,0.59
0.37,0.78,0.63
0.1,0.76,0.46
0.22,0.76,0.29
0.21,0.79,0.34
0.12,0.77,0.35
0.11,0.75,0.37
0.12,0.75,0.41
0.08,0.76,0.45
0.05,0.78,0.5
0.07,0.78,0.53
0.14,0.79,0.55
0.2,0.8,0.54
0.2,0.81,0.51
0.19,0.81,0.48
0.19,0.8,0.47
0.2,0.79,0.47
0.22,0.8,0.48
0.25,0.79,0.48
0.27,0.79,0.49
0.3,0.79,0.5
0.35,0.8,0.53
0.4,0.8,0.55
0.43,0.8,0.54
0.44,0.81,0.54
0.44,0.81,0.53
0.43,0.81,0.51
0.41,0.8,0.5
0.38,0.8,0.49
0.35,0.8,0.47
0.31,0.8,0.47
0.31,0.81,0.46
0.3,0.81,0.46
0.3,0.81,0.46
0.31,0.81,0.47
0.31,0.81,0.48
0.3,0.8,0.48
0.3,0.8,0.49
0.31,0.79,0.49
0.33,0.79,0.5
0.33,0.79,0.5
0.32,0.79,0.51
0.31,0.8,0.5
0.31,0.8,0.5
0.3,0.8,0.5
0.3,0.8,0.49
0.31,0.8,0.49
0.32,0.8,0.5
0.33,0.79,0.5
0.33,0.8,0.49
0.33,0.8,0.49
0.33,0.79,0.49
0.33,0.8,0.49
0.34,0.8,0.49
0.34,0.8,0.49
0.34,0.8,0.49
0.33,0.8,0.48
0.33,0.8,0.48
0.34,0.8,0.49
0.34,0.8,0.49
0.34,0.8,0.49
0.34,0.8,0.5
0.34,0.8,0.5
0.33,0.8,0.49
0.32,0.8,0.49
0.32,0.8,0.48
0.32,0.8,0.48
0.32,0.8,0.48
0.32,0.81,0.47
0.31,0.81,0.47
0.31,0.81,0.48
0.29,0.81,0.49
0.28,0.81,0.49
0.29,0.81,0.48
0.31,0.8,0.48
0.34,0.8,0.49
0.37,0.8,0.49
0.4,0.8,0.51
0.4,0.8,0.52
0.37,0.81,0.51
0.34,0.82,0.49
0.3,0.82,0.42
0.29,0.8,0.4
0.28,0.8,0.41
0.29,0.8,0.43
0.3,0.8,0.45
0.29,0.8,0.47
0.3,0.8,0.5
0.32,0.81,0.53
0.32,0.82,0.53
0.31,0.82,0.53
0.3,0.81,0.55
0.3,0.82,0.56
0.29,0.83,0.57
0.28,0.82,0.55
0.26,0.82,0.53
0.23,0.82,0.51
0.22,0.82,0.48
0.21,0.82,0.48
0.21,0.82,0.48
0.22,0.82,0.49
0.21,0.83,0.5
0.2,0.83,0.51
0.19,0.83,0.5
0.17,0.83,0.48
0.16,0.83,0.45
0.15,0.84,0.44
0.14,0.84,0.43
0.16,0.85,0.44
0.16,0.85,0.43
0.14,0.86,0.43
0.13,0.86,0.42
0.14,0.86,0.4
0.14,0.85,0.39
0.16,0.85,0.38
0.21,0.85,0.36
0.28,0.84,0.37
0.32,0.85,0.39
0.3,0.84,0.41
0.27,0.84,0.4
0.25,0.83,0.4
0.22,0.82,0.42
0.18,0.81,0.46
0.15,0.82,0.49
0.14,0.85,0.49
0.13,0.87,0.46
0.12,0.88,0.4
0.1,0.86,0.36
0.08,0.83,0.33
0.07,0.81,0.29
0.29,0.69,0.25
1.24,0.72,0.57
1.66,0.95,1.01
0.77,0.81,1.15
-0.17,0.78,0.74
-0.11,0.7,0.48
-0.15,0.7,0.44
-0.02,0.73,0.42
0.18,0.77,0.38
0.25,0.76,0.38
0.22,0.75,0.42
0.22,0.76,0.47
0.26,0.79,0.5
0.27,0.81,0.52
0.27,0.81,0.53
0.27,0.81,0.54
0.27,0.81,0.54
0.27,0.81,0.54
0.27,0.81,0.54
0.27,0.8,0.54
0.27,0.79,0.53
0.28,0.79,0.53
0.3,0.79,0.53
0.3,0.79,0.53
0.31,0.79,0.54
0.32,0.79,0.55
0.33,0.79,0.55
0.33,0.79,0.55
0.32,0.8,0.54
0.3,0.79,0.54
0.28,0.79,0.53
0.26,0.8,0.53
0.26,0.8,0.52
0.26,0.8,0.52
0.26,0.8,0.52
0.25,0.8,0.52
0.24,0.8,0.52
0.25,0.8,0.52
0.26,0.8,0.52
0.25,0.8,0.52
0.25,0.79,0.52
0.25,0.79,0.52
0.26,0.79,0.52
0.26,0.79,0.53
0.27,0.79,0.53
0.27,0.79,0.53
0.27,0.79,0.53
0.26,0.79,0.52
0.27,0.79,0.51
0.27,0.79,0.5
0.27,0.79,0.51
0.28,0.79,0.52
0.28,0.8,0.53
0.27,0.81,0.53
0.27,0.81,0.51
0.28,0.79,0.5
0.27,0.78,0.5
0.3,0.78,0.51
0.32,0.79,0.52
0.33,0.8,0.53
0.34,0.81,0.52
0.33,0.82,0.49
0.31,0.82,0.47
0.31,0.8,0.48
0.31,0.78,0.51
0.32,0.79,0.55
0.33,0.79,0.57
0.33,0.79,0.58
0.31,0.79,0.57
0.28,0.8,0.55
0.25,0.8,0.52
0.25,0.78,0.51
0.26,0.78,0.55
0.27,0.79,0.6
0.27,0.79,0.63
0.26,0.78,0.64
0.24,0.79,0.64
0.22,0.8,0.62
0.19,0.81,0.58
0.16,0.82,0.54
0.16,0.81,0.51
0.16,0.81,0.5
0.17,0.82,0.5
0.17,0.82,0.5
0.16,0.82,0.49
0.15,0.82,0.48
0.14,0.82,0.47
0.13,0.82,0.45
0.13,0.83,0.43
0.13,0.83,0.41
0.13,0.83,0.41
0.13,0.83,0.4
0.13,0.83,0.4
0.14,0.82,0.41
0.16,0.82,0.44
0.18,0.82,0.47
0.19,0.83,0.5
0.21,0.83,0.53
0.23,0.83,0.56
0.23,0.84,0.58
0.23,0.85,0.55
0.23,0.86,0.52
0.2,0.86,0.48
0.17,0.86,0.45
0.16,0.85,0.42
0.13,0.83,0.38
0.08,0.81,0.35
0.06,0.8,0.33
0.06,0.77,0.37
0.12,0.76,0.39
0.17,0.77,0.4
0.24,0.86,0.33
0.52,0.78,0.63
1.16,0.6,1.34
1.28,0.86,1.16
0.73,0.91,0.67
0.2,0.7,0.69
-0.1,0.71,0.6
-0.06,0.75,0.46
0.08,0.78,0.39
0.2,0.79,0.4
0.29,0.79,0.44
0.35,0.78,0.48
0.36,0.78,0.51
0.32,0.78,0.52
0.27,0.78,0.53
0.24,0.78,0.53
0.22,0.78,0.53
0.24,0.78,0.54
0.26,0.78,0.55
0.26,0.78,0.55
0.26,0.77,0.55
0.25,0.77,0.54
0.25,0.77,0.53
0.25,0.77,0.55
0.31,0.77,0.56
0.35,0.78,0.57
0.36,0.78,0.56
0.35,0.78,0.56
0.34,0.78,0.54
0.33,0.78,0.53
0.31,0.78,0.52
0.3,0.78,0.53
0.28,0.78,0.53
0.28,0.78,0.53
0.27,0.78,0.53
0.27,0.78,0.53
0.28,0.78,0.52
0.29,0.78,0.52
0.29,0.78,0.52
0.28,0.78,0.52
0.28,0.78,0.52
0.28,0.78,0.52
0.29,0.78,0.52
0.29,0.78,0.53
0.29,0.77,0.53
0.29,0.77,0.54
0.29,0.77,0.55
0.28,0.77,0.55
0.28,0.78,0.54
0.27,0.78,0.51
0.31,0.77,0.51
0.35,0.77,0.51
0.37,0.77,0.54
0.36,0.77,0.58
0.36,0.77,0.61
0.36,0.78,0.62
0.35,0.79,0.6
0.33,0.8,0.6
0.3,0.8,0.59
0.3,0.8,0.57
0.31,0.79,0.57
0.33,0.79,0.58
0.33,0.79,0.58
0.31,0.79,0.59
0.28,0.79,0.57
0.25,0.77,0.56
0.23,0.77,0.54
0.23,0.78,0.53
0.23,0.79,0.53
0.22,0.8,0.52
0.19,0.8,0.51
0.17,0.8,0.49
0.17,0.8,0.5
0.18,0.81,0.5
0.17,0.81,0.51
0.17,0.82,0.49
0.18,0.82,0.46
0.18,0.82,0.44
0.15,0.82,0.44
0.15,0.82,0.43
0.15,0.83,0.42
0.14,0.83,0.43
0.15,0.83,0.43
0.16,0.83,0.43
0.17,0.83,0.44
0.18,0.83,0.45
0.2,0.83,0.46
0.21,0.84,0.48
0.22,0.84,0.49
0.22,0.85,0.49
0.22,0.85,0.48
0.21,0.84,0.47
0.2,0.84,0.46
0.19,0.83,0.46
0.16,0.82,0.46
0.14,0.82,0.46
0.12,0.82,0.45
0.1,0.82,0.43
0.09,0.82,0.43
0.08,0.82,0.42
0.11,0.81,0.4
0.18,0.8,0.34
0.29,0.81,0.27
0.7,0.82,0.51
1.54,0.87,1.16
1.34,0.84,1.07
0.45,0.73,0.78
0.03,0.74,0.88
-0.17,0.76,0.67
-0.13,0.74,0.48
-0.01,0.76,0.43
0.1,0.78,0.43
0.16,0.79,0.43
0.19,0.76,0.43
0.2,0.77,0.47
0.24,0.78,0.5
0.28,0.8,0.52
0.3,0.82,0.54
0.29,0.82,0.56
0.26,0.81,0.56
0.23,0.8,0.55
0.22,0.78,0.54
0.23,0.77,0.54
0.24,0.77,0.55
0.25,0.77,0.55
0.26,0.78,0.54
0.26,0.79,0.54
0.27,0.79,0.55
0.31,0.79,0.56
0.31,0.79,0.56
0.3,0.8,0.56
0.29,0.8,0.55
0.27,0.79,0.54
0.27,0.79,0.53
0.27,0.79,0.53
0.27,0.79,0.52
0.27,0.79,0.52
0.27,0.79,0.52
0.26,0.79,0.52
0.25,0.79,0.52
0.25,0.79,0.52
0.25,0.79,0.52
0.25,0.79,0.53
0.24,0.78,0.54
0.24,0.78,0.54
0.25,0.78,0.53
0.27,0.78,0.52
0.3,0.78,0.53
0.31,0.78,0.55
0.32,0.79,0.57
0.32,0.79,0.58
0.3,0.79,0.58
0.28,0.79,0.57
0.26,0.79,0.55
0.27,0.8,0.55
0.28,0.8,0.55
0.28,0.81,0.57
0.28,0.8,0.57
0.28,0.79,0.57
0.27,0.8,0.57
0.25,0.8,0.56
0.24,0.8,0.56
0.23,0.8,0.55
0.21,0.8,0.53
0.19,0.8,0.52
0.18,0.79,0.51
0.18,0.8,0.5
0.18,0.8,0.5
0.17,0.8,0.51
0.17,0.8,0.51
0.17,0.81,0.5
0.17,0.81,0.49
0.17,0.81,0.48
0.18,0.82,0.47
0.18,0.82,0.46
0.18,0.82,0.46
0.19,0.82,0.47
0.21,0.82,0.48
0.22,0.82,0.49
0.23,0.82,0.5
0.22,0.82,0.49
0.22,0.82,0.49
0.22,0.82,0.49
0.23,0.81,0.5
0.24,0.81,0.51
0.25,0.81,0.52
0.25,0.82,0.52
0.25,0.81,0.52
0.26,0.81,0.53
0.26,0.82,0.55
0.26,0.82,0.55
0.26,0.82,0.55
0.25,0.82,0.54
0.24,0.83,0.51
0.23,0.82,0.5
0.21,0.81,0.49
0.19,0.81,0.5
0.17,0.81,0.49
0.14,0.81,0.48
0.11,0.8,0.46
0.08,0.8,0.45
0.06,0.8,0.42
0.06,0.8,0.39
0.07,0.8,0.35
0.08,0.73,0.38
0.43,0.63,0.56
1.45,0.9,1.11
0.82,0.92,0.82
0.14,0.7,0.81
-0.15,0.71,0.7
-0.15,0.73,0.49
-0.02,0.74,0.39
0.11,0.77,0.4
0.19,0.78,0.4
0.24,0.78,0.42
0.28,0.78,0.46
0.31,0.78,0.51
0.32,0.78,0.54
0.31,0.79,0.57
0.29,0.79,0.59
0.27,0.79,0.58
0.26,0.78,0.56
0.25,0.78,0.55
0.26,0.78,0.56
0.28,0.78,0.56
0.29,0.78,0.56
0.3,0.77,0.56
0.3,0.77,0.56
0.29,0.77,0.56
0.29,0.78,0.55
0.3,0.78,0.54
0.3,0.78,0.53
0.31,0.79,0.54
0.3,0.79,0.54
0.3,0.79,0.54
0.29,0.79,0.53
0.28,0.79,0.52
0.26,0.79,0.52
0.25,0.78,0.52
0.24,0.78,0.52
0.25,0.78,0.53
0.25,0.77,0.54
0.27,0.77,0.55
0.27,0.77,0.56
0.27,0.77,0.56
0.28,0.77,0.57
0.28,0.77,0.57
0.28,0.78,0.57
0.28,0.78,0.58
0.27,0.78,0.58
0.27,0.79,0.58
0.27,0.78,0.58
0.28,0.78,0.56
0.29,0.79,0.54
0.3,0.79,0.54
0.31,0.79,0.55
0.31,0.79,0.56
0.31,0.8,0.56
0.29,0.8,0.54
0.26,0.8,0.53
0.24,0.8,0.52
0.24,0.79,0.51
0.24,0.79,0.51
0.24,0.79,0.51
0.24,0.8,0.51
0.24,0.8,0.5
0.24,0.8,0.5
0.24,0.81,0.49
0.22,0.81,0.49
0.21,0.81,0.47
0.2,0.81,0.47
0.2,0.81,0.47
0.2,0.82,0.47
0.22,0.82,0.47
0.23,0.82,0.47
0.28,0.81,0.5
0.28,0.81,0.5
0.28,0.83,0.49
0.25,0.83,0.46
0.23,0.82,0.44
0.23,0.8,0.49
0.23,0.81,0.53
0.21,0.83,0.52
0.17,0.82,0.47
0.12,0.82,0.39
0.08,0.81,0.3
0.11,0.7,0.28
0.6,0.63,0.59
1.29,0.83,1.27
0.97,0.91,1.25
0.27,0.76,0.78
-0.05,0.69,0.62
-0.27,0.69,0.48
-0.16,0.7,0.41
0.07,0.76,0.4
0.17,0.79,0.41
0.23,0.77,0.43
0.29,0.78,0.45
0.32,0.79,0.48
0.32,0.79,0.51
0.3,0.79,0.55
0.29,0.79,0.58
0.28,0.79,0.59
0.27,0.79,0.59
0.27,0.78,0.58
0.28,0.78,0.57
0.28,0.78,0.56
0.28,0.78,0.54
0.26,0.78,0.54
0.26,0.78,0.54
0.27,0.78,0.54
0.27,0.78,0.55
0.27,0.78,0.55
0.26,0.78,0.54
0.26,0.78,0.54
0.27,0.78,0.55
0.27,0.78,0.56
0.27,0.79,0.56
0.26,0.78,0.55
0.26,0.78,0.54
0.25,0.78,0.55
0.26,0.78,0.55
0.26,0.78,0.55
0.26,0.78,0.54
0.26,0.78,0.54
0.26,0.78,0.54
0.26,0.78,0.54
0.26,0.78,0.54
0.27,0.78,0.55
0.28,0.78,0.55
0.28,0.79,0.57
0.27,0.78,0.58
0.27,0.77,0.55
0.28,0.77,0.53
0.28,0.77,0.54
0.25,0.76,0.54
0.24,0.77,0.54
0.26,0.78,0.54
0.29,0.78,0.53
0.31,0.78,0.52
0.34,0.78,0.54
0.35,0.79,0.55
0.34,0.79,0.57
0.31,0.79,0.56
0.28,0.79,0.56
0.27,0.79,0.57
0.28,0.79,0.59
0.31,0.8,0.62
0.32,0.81,0.65
0.3,0.81,0.66
0.28,0.81,0.64
0.25,0.8,0.62
0.21,0.8,0.58
0.17,0.79,0.5
0.14,0.78,0.49
0.14,0.79,0.5
0.15,0.8,0.52
0.15,0.8,0.54
0.16,0.81,0.54
0.15,0.81,0.54
0.14,0.81,0.53
0.12,0.82,0.51
0.11,0.82,0.46
0.1,0.82,0.44
0.09,0.83,0.43
0.09,0.83,0.42
0.1,0.83,0.41
0.11,0.83,0.4
0.11,0.83,0.4
0.12,0.82,0.4
0.13,0.82,0.41
0.16,0.82,0.42
0.19,0.83,0.45
0.22,0.84,0.46
0.23,0.85,0.48
0.23,0.85,0.49
0.22,0.85,0.49
0.21,0.85,0.5
0.19,0.84,0.5
0.19,0.83,0.49
0.17,0.82,0.48
0.17,0.82,0.46
0.15,0.81,0.44
0.12,0.8,0.43
0.1,0.79,0.4
0.08,0.78,0.37
0.13,0.64,0.34
0.65,0.54,0.49
1.28,0.84,0.93
1.08,0.95,1.02
0.39,0.75,0.9
-0.04,0.7,0.9
-0.08,0.71,0.66
0.06,0.75,0.42
0.31,0.77,0.52
0.31,0.77,0.52
0.29,0.78,0.53
0.27,0.79,0.54
0.25,0.79,0.54
0.24,0.79,0.54
0.24,0.78,0.54
0.24,0.77,0.53
0.25,0.77,0.53
0.26,0.77,0.53
0.28,0.77,0.54
0.31,0.78,0.55
0.33,0.78,0.56
0.33,0.78,0.57
0.34,0.78,0.56
0.34,0.78,0.56
0.34,0.78,0.55
0.33,0.78,0.54
0.33,0.78,0.53
0.31,0.78,0.53
0.31,0.77,0.52
0.3,0.77,0.52
0.3,0.78,0.52
0.29,0.78,0.52
0.29,0.78,0.53
0.29,0.79,0.53
0.28,0.79,0.53
0.28,0.79,0.54
0.29,0.79,0.55
0.3,0.78,0.55
0.3,0.78,0.55
0.28,0.79,0.55
0.24,0.78,0.52
0.27,0.76,0.5
0.3,0.77,0.52
0.33,0.77,0.52
0.34,0.79,0.52
0.32,0.8,0.52
0.29,0.79,0.5
0.25,0.79,0.48
0.24,0.78,0.48
0.27,0.78,0.49
0.29,0.78,0.53
0.31,0.78,0.58
0.32,0.79,0.62
0.31,0.79,0.65
0.31,0.79,0.64
0.33,0.8,0.61
0.34,0.79,0.59
0.32,0.79,0.58
0.28,0.79,0.55
0.26,0.78,0.53
0.25,0.78,0.54
0.26,0.78,0.57
0.25,0.79,0.59
0.24,0.79,0.58
0.22,0.79,0.56
0.21,0.79,0.56
0.19,0.8,0.55
0.17,0.8,0.52
0.16,0.81,0.51
0.15,0.81,0.49
0.15,0.8,0.48
0.15,0.81,0.47
0.14,0.81,0.46
0.14,0.81,0.46
0.14,0.82,0.46
0.14,0.82,0.45
0.13,0.82,0.45
0.14,0.82,0.44
0.15,0.82,0.45
0.17,0.81,0.46
0.2,0.81,0.48
0.24,0.81,0.5
0.28,0.81,0.53
0.28,0.82,0.54
0.26,0.84,0.52
0.24,0.84,0.49
0.24,0.83,0.47
0.24,0.83,0.46
0.23,0.83,0.46
0.21,0.82,0.46
0.15,0.82,0.43
0.08,0.82,0.38
0.01,0.79,0.32
-0.04,0.78,0.66
1.48,0.77,1.01
1.32,0.82,0.98
0.2,0.59,0.95
-0.17,0.65,0.91
-0.02,0.77,0.74
0.11,0.72,0.49
0.18,0.71,0.42
0.26,0.76,0.43
0.25,0.77,0.44
0.26,0.74,0.44
0.3,0.74,0.47
0.34,0.76,0.51
0.36,0.78,0.55
0.36,0.79,0.56
0.34,0.8,0.56
0.32,0.79,0.56
0.32,0.79,0.56
0.31,0.78,0.55
0.31,0.77,0.54
0.32,0.77,0.54
0.33,0.76,0.54
0.33,0.77,0.53
0.32,0.77,0.53
0.32,0.77,0.53
0.33,0.77,0.54
0.33,0.77,0.55
0.32,0.77,0.55
0.31,0.77,0.55
0.3,0.77,0.54
0.3,0.77,0.53
0.29,0.76,0.53
0.27,0.77,0.52
0.28,0.77,0.52
0.28,0.77,0.52
0.27,0.77,0.53
0.26,0.77,0.53
0.26,0.77,0.53
0.26,0.77,0.54
0.25,0.77,0.53
0.22,0.77,0.53
0.23,0.77,0.51
0.25,0.77,0.5
0.28,0.76,0.5
0.31,0.75,0.5
0.37,0.75,0.5
0.45,0.75,0.52
0.48,0.73,0.56
0.47,0.73,0.55
0.46,0.74,0.49
0.45,0.71,0.49
0.41,0.72,0.5
0.42,0.73,0.5
0.45,0.74,0.53
0.51,0.75,0.54
0.54,0.76,0.53
0.56,0.76,0.51
0.55,0.75,0.49
0.51,0.75,0.47
0.48,0.75,0.47
0.47,0.74,0.48
0.48,0.73,0.5
0.44,0.73,0.52
0.35,0.73,0.56
0.39,0.73,0.56
0.53,0.75,0.49
0.54,0.74,0.43
0.46,0.74,0.43
0.43,0.76,0.44
0.44,0.76,0.4
0.48,0.75,0.4
0.51,0.75,0.41
0.52,0.74,0.38
0.53,0.73,0.36
0.53,0.73,0.37
0.51,0.73,0.34
0.51,0.72,0.3
0.53,0.71,0.27
0.56,0.71,0.24
0.6,0.7,0.16
0.66,0.72,0.17
0.69,0.77,0.13
0.69,0.77,0.07
0.66,0.75,0.06
0.65,0.73,0.01
0.67,0.75,-0.01
0.68,0.75,-0.03
0.67,0.74,-0.06
0.68,0.73,-0.06
0.68,0.73,-0.1
0.7,0.73,-0.16
0.71,0.72,-0.17
0.68,0.7,-0.2
0.69,0.72,-0.22
0.68,0.73,-0.2
0.64,0.71,-0.25
0.65,0.73,-0.31
0.67,0.76,-0.31
0.68,0.75,-0.32
0.72,0.74,-0.36
0.78,0.74,-0.39
0.78,0.74,-0.43
0.74,0.75,-0.49
0.7,0.78,-0.56
0.69,0.8,-0.57
0.7,0.78,-0.51
1.35,0.26,1.25
0.31,-0.26,2.66
0.03,-0.29,0.76
1.58,0.58,-0.72
1.08,1.32,-0.66
0.55,0.99,-0.65
0.65,0.79,-0.72
0.82,0.81,-0.69
0.73,0.78,-0.51
0.67,0.68,-0.35
0.68,0.64,-0.29
0.76,0.65,-0.33
0.79,0.68,-0.34
0.75,0.69,-0.32
0.71,0.69,-0.28
0.67,0.68,-0.23
0.65,0.67,-0.2
0.65,0.67,-0.18
0.65,0.67,-0.19
0.67,0.66,-0.18
0.69,0.66,-0.18
0.7,0.66,-0.18
0.69,0.67,-0.18
0.68,0.68,-0.2
0.66,0.69,-0.21
0.65,0.7,-0.22
0.65,0.7,-0.22
0.66,0.7,-0.22
0.67,0.7,-0.22
0.67,0.69,-0.22
0.67,0.69,-0.22
0.69,0.69,-0.23
0.7,0.68,-0.24
0.7,0.68,-0.25
0.7,0.68,-0.26
0.7,0.68,-0.26
0.7,0.68,-0.26
0.69,0.69,-0.26
0.69,0.69,-0.26
0.69,0.69,-0.26
0.69,0.69,-0.26
0.69,0.69,-0.26
0.69,0.68,-0.25
0.69,0.68,-0.24
0.69,0.69,-0.24
0.69,0.69,-0.25
0.69,0.69,-0.25
0.68,0.69,-0.26
0.68,0.69,-0.26
0.68,0.69,-0.25
0.67,0.69,-0.25
0.67,0.69,-0.26
0.68,0.69,-0.25
0.68,0.69,-0.25
0.68,0.69,-0.24
0.67,0.68,-0.24
0.68,0.68,-0.25
0.68,0.69,-0.25
0.68,0.7,-0.25
0.67,0.7,-0.24
0.67,0.69,-0.24
0.66,0.68,-0.24
0.66,0.69,-0.24
0.66,0.69,-0.25
0.67,0.68,-0.25
0.68,0.68,-0.25
0.68,0.68,-0.25
0.69,0.69,-0.25
0.69,0.69,-0.25
0.69,0.69,-0.25
0.68,0.7,-0.25
0.68,0.69,-0.25
0.68,0.69,-0.26
0.68,0.68,-0.26
0.68,0.68,-0.26
0.67,0.68,-0.26
0.67,0.68,-0.25
0.68,0.69,-0.26
0.68,0.68,-0.26
0.68,0.68,-0.26
0.68,0.68,-0.26
0.68,0.69,-0.26
0.68,0.69,-0.26
0.67,0.69,-0.26
0.68,0.7,-0.27
0.68,0.7,-0.28
0.69,0.69,-0.27
0.69,0.68,-0.27
0.69,0.68,-0.27
0.68,0.69,-0.27
0.68,0.69,-0.27
0.69,0.69,-0.28
0.68,0.69,-0.28
0.68,0.67,-0.28
0.65,0.67,-0.26
0.62,0.68,-0.25
0.65,0.67,-0.25
0.65,0.69,-0.24
0.64,0.69,-0.25
0.65,0.7,-0.26
0.67,0.7,-0.27
0.69,0.69,-0.25
0.69,0.67,-0.22
0.7,0.66,-0.19
0.7,0.67,-0.18
0.7,0.67,-0.19
0.7,0.67,-0.21
0.7,0.67,-0.22
0.7,0.67,-0.23
0.69,0.66,-0.24
0.69,0.67,-0.25
0.69,0.67,-0.27
0.69,0.67,-0.29
0.69,0.67,-0.31
0.69,0.67,-0.32
0.69,0.67,-0.33
0.68,0.67,-0.34
0.68,0.67,-0.34
0.68,0.67,-0.35
0.68,0.67,-0.35
0.67,0.67,-0.36
0.66,0.67,-0.36
0.66,0.68,-0.37
0.65,0.68,-0.37
0.65,0.68,-0.37
0.65,0.68,-0.38
0.65,0.68,-0.38
0.64,0.68,-0.39
0.64,0.68,-0.39
0.64,0.67,-0.39
0.63,0.68,-0.39
0.64,0.68,-0.39
0.65,0.67,-0.39
0.65,0.68,-0.4
0.65,0.68,-0.4
0.65,0.69,-0.41
0.65,0.69,-0.43
0.66,0.69,-0.44
0.67,0.68,-0.45
0.68,0.69,-0.44
0.68,0.69,-0.45
0.7,0.69,-0.45
0.74,0.68,-0.44
0.77,0.68,-0.43
0.79,0.68,-0.45
0.76,0.69,-0.48
0.71,0.71,-0.53
0.68,0.74,-0.55
0.66,0.75,-0.55
0.64,0.74,-0.52
0.6,0.7,-0.44
0.24,0.22,1.79
-0.23,-0.36,2.1
0.68,0.13,-0.29
1.36,1.07,-0.87
0.6,1.25,-0.85
0.75,0.86,-0.91
0.74,0.88,-0.75
0.65,0.81,-0.53
0.62,0.75,-0.45
0.62,0.73,-0.45
0.67,0.74,-0.47
0.72,0.73,-0.46
0.73,0.71,-0.41
0.7,0.69,-0.36
0.65,0.67,-0.31
0.62,0.66,-0.28
0.61,0.66,-0.25
0.6,0.66,-0.22
0.6,0.65,-0.21
0.62,0.66,-0.21
0.63,0.67,-0.2
0.63,0.69,-0.2
0.62,0.7,-0.2
0.62,0.71,-0.2
0.62,0.72,-0.21
0.6,0.72,-0.22
0.59,0.72,-0.23
0.59,0.72,-0.25
0.6,0.72,-0.26
0.61,0.72,-0.28
0.62,0.71,-0.31
0.64,0.71,-0.31
0.65,0.7,-0.31
0.66,0.7,-0.32
0.67,0.7,-0.32
0.67,0.7,-0.33
0.67,0.7,-0.33
0.67,0.71,-0.33
0.66,0.7,-0.33
0.66,0.7,-0.33
0.64,0.71,-0.32
0.63,0.71,-0.31
0.63,0.71,-0.31
0.64,0.71,-0.32
0.64,0.7,-0.32
0.64,0.7,-0.31
0.64,0.71,-0.3
0.64,0.71,-0.29
0.64,0.71,-0.29
0.64,0.71,-0.29
0.63,0.71,-0.29
0.63,0.7,-0.29
0.63,0.7,-0.29
0.62,0.7,-0.29
0.62,0.71,-0.29
0.62,0.7,-0.29
0.63,0.7,-0.31
0.65,0.7,-0.31
0.65,0.7,-0.31
0.65,0.7,-0.31
0.65,0.7,-0.31
0.65,0.7,-0.31
0.64,0.7,-0.31
0.64,0.7,-0.3
0.64,0.7,-0.3
0.63,0.7,-0.31
0.63,0.71,-0.31
0.63,0.7,-0.3
0.63,0.7,-0.3
0.63,0.7,-0.31
0.64,0.71,-0.31
0.64,0.71,-0.31
0.65,0.71,-0.31
0.65,0.71,-0.31
0.65,0.71,-0.32
0.65,0.71,-0.32
0.64,0.7,-0.31
0.64,0.7,-0.3
0.63,0.7,-0.3
0.63,0.71,-0.3
0.63,0.71,-0.31
0.62,0.71,-0.3
0.63,0.71,-0.3
0.63,0.71,-0.3
0.63,0.7,-0.29
0.64,0.7,-0.3
0.64,0.71,-0.3
0.63,0.71,-0.3
0.63,0.71,-0.3
0.64,0.71,-0.3
0.64,0.71,-0.3
0.65,0.71,-0.31
0.65,0.71,-0.31
0.65,0.71,-0.32
0.65,0.71,-0.32
0.64,0.71,-0.32
0.64,0.72,-0.31
0.65,0.72,-0.31
0.66,0.72,-0.3
0.66,0.72,-0.29
0.66,0.72,-0.29
0.65,0.72,-0.29
0.65,0.72,-0.3
0.64,0.74,-0.29
0.7,0.73,-0.28
0.74,0.7,-0.25
0.7,0.72,-0.24
0.7,0.73,-0.26
0.71,0.73,-0.28
0.73,0.74,-0.28
0.75,0.74,-0.3
0.74,0.72,-0.33
0.73,0.71,-0.36
0.71,0.7,-0.38
0.69,0.68,-0.38
0.68,0.67,-0.38
0.67,0.67,-0.39
0.67,0.69,-0.41
0.65,0.7,-0.42
0.62,0.73,-0.45
0.57,0.75,-0.45
0.53,0.77,-0.41
0.49,0.79,-0.38
0.47,0.78,-0.35
0.46,0.77,-0.32
0.51,0.78,-0.33
0.53,0.77,-0.29
0.52,0.78,-0.24
0.54,0.83,-0.2
0.45,0.84,-0.18
0.4,0.83,-0.13
0.44,0.83,-0.1
0.45,0.83,-0.11
0.47,0.85,-0.1
0.46,0.86,-0.12
0.42,0.85,0.01
0.41,0.84,-0.03
0.34,0.83,-0.03
0.3,0.84,0.04
0.36,0.84,0.11
0.38,0.82,0.09
0.3,0.85,0.08
0.32,0.9,0.08
0.3,0.89,0.1
0.27,0.87,0.15
0.29,0.87,0.15
0.22,0.89,0.15
0.24,0.88,0.16
0.22,0.88,0.17
0.18,0.91,0.19
0.22,0.92,0.2
0.22,0.89,0.17
0.21,0.86,0.16
0.17,0.85,0.18
0.15,0.84,0.2
0.21,0.86,0.19
0.2,0.86,0.19
0.16,0.83,0.21
0.12,0.83,0.22
0.12,0.84,0.24
0.13,0.84,0.27
0.12,0.81,0.31
0.2,0.78,0.38
0.23,0.77,0.44
0.31,0.75,0.42
0.34,0.73,0.41
1.41,0.63,1.38
2.16,0.69,2.15
1.04,0.81,1.55
0.16,0.71,0.99
0.13,0.69,0.78
0.19,0.73,0.56
0.17,0.71,0.3
0.26,0.73,0.21
0.38,0.77,0.29
0.36,0.75,0.38
0.32,0.7,0.43
0.34,0.69,0.48
0.34,0.71,0.53
0.31,0.74,0.56
0.27,0.75,0.58
0.25,0.77,0.57
0.24,0.79,0.55
0.24,0.8,0.53
0.24,0.8,0.52
0.24,0.79,0.5
0.24,0.78,0.49
0.26,0.77,0.5
0.33,0.76,0.51
0.34,0.76,0.53
0.35,0.77,0.54
0.36,0.76,0.54
0.39,0.76,0.56
0.41,0.76,0.57
0.42,0.77,0.57
0.4,0.77,0.56
0.39,0.77,0.55
0.38,0.77,0.55
0.38,0.77,0.54
0.37,0.77,0.52
0.35,0.77,0.52
0.35,0.77,0.52
0.34,0.77,0.51
0.33,0.77,0.51
0.32,0.77,0.51
0.32,0.77,0.51
0.32,0.78,0.52
0.32,0.78,0.52
0.31,0.79,0.53
0.3,0.79,0.53
0.3,0.79,0.54
0.31,0.78,0.54
0.34,0.79,0.54
0.34,0.79,0.52
0.33,0.77,0.5
0.33,0.76,0.48
0.35,0.74,0.48
0.38,0.73,0.47
0.41,0.73,0.48
0.42,0.75,0.49
0.41,0.75,0.5
0.4,0.76,0.51
0.38,0.77,0.51
0.36,0.78,0.52
0.35,0.78,0.53
0.34,0.78,0.53
0.32,0.79,0.52
0.31,0.79,0.52
0.31,0.79,0.52
0.3,0.79,0.52
0.3,0.78,0.52
0.31,0.78,0.52
0.31,0.78,0.52
0.31,0.77,0.53
0.3,0.77,0.53
0.31,0.77,0.53
0.32,0.77,0.52
0.32,0.77,0.51
0.32,0.78,0.51
0.31,0.78,0.52
0.32,0.78,0.52
0.32,0.79,0.53
0.32,0.78,0.55
0.32,0.78,0.55
0.32,0.78,0.54
0.31,0.77,0.53
0.31,0.77,0.51
0.32,0.77,0.49
0.33,0.77,0.49
0.34,0.76,0.51
0.36,0.76,0.54
0.39,0.76,0.57
0.42,0.76,0.59
0.43,0.76,0.6
0.42,0.76,0.58
0.38,0.78,0.56
0.35,0.78,0.54
0.34,0.78,0.54
0.34,0.78,0.56
0.34,0.78,0.57
0.35,0.78,0.59
0.37,0.77,0.63
0.38,0.77,0.65
0.37,0.77,0.66
0.35,0.78,0.65
0.34,0.8,0.58
0.31,0.81,0.56
0.29,0.81,0.55
0.27,0.81,0.53
0.26,0.8,0.52
0.25,0.79,0.52
0.24,0.8,0.52
0.21,0.79,0.51
0.19,0.79,0.48
0.17,0.81,0.46
0.16,0.81,0.45
0.16,0.82,0.45
0.15,0.82,0.45
0.14,0.82,0.44
0.14,0.82,0.45
0.14,0.83,0.46
0.12,0.83,0.46
0.11,0.83,0.45
0.1,0.84,0.45
0.09,0.84,0.44
0.09,0.85,0.44
0.08,0.85,0.44
0.08,0.86,0.43
0.09,0.86,0.42
0.09,0.86,0.4
0.1,0.85,0.39
0.1,0.82,0.38
0.13,0.81,0.38
0.15,0.8,0.39
0.17,0.78,0.39
0.18,0.78,0.4
0.18,0.78,0.39
0.17,0.79,0.38
0.16,0.81,0.37
0.15,0.83,0.36
0.14,0.84,0.34
0.11,0.85,0.35
0.1,0.85,0.37
0.09,0.85,0.39
0.07,0.85,0.39
0.03,0.84,0.38
0,0.83,0.38
-0.01,0.8,0.37
0.01,0.77,0.37
-0.01,0.75,0.39
0.08,0.69,0.48
1.36,0.82,1.34
1.87,1.04,1.44
0.88,0.89,0.77
0.17,0.62,0.82
-0.16,0.64,0.86
0.07,0.71,0.68
0.28,0.72,0.42
0.32,0.76,0.48
0.26,0.75,0.57
0.28,0.72,0.61
0.33,0.72,0.59
0.34,0.75,0.57
0.3,0.76,0.56
0.27,0.77,0.56
0.24,0.78,0.56
0.23,0.78,0.56
0.24,0.77,0.56
0.25,0.77,0.56
0.27,0.77,0.56
0.29,0.76,0.56
0.31,0.77,0.56
0.33,0.77,0.56
0.33,0.76,0.57
0.34,0.76,0.58
0.33,0.76,0.58
0.33,0.76,0.58
0.32,0.76,0.57
0.3,0.76,0.57
0.29,0.76,0.57
0.27,0.76,0.57
0.26,0.77,0.57
0.26,0.76,0.58
0.26,0.76,0.58
0.24,0.78,0.57
0.23,0.78,0.57
0.22,0.78,0.57
0.23,0.78,0.58
0.24,0.79,0.57
0.24,0.78,0.56
0.25,0.77,0.56
0.28,0.76,0.54
0.31,0.75,0.53
0.33,0.74,0.51
0.33,0.73,0.51
0.34,0.72,0.51
0.35,0.71,0.53
0.35,0.71,0.54
0.35,0.72,0.55
0.34,0.73,0.56
0.32,0.75,0.57
0.3,0.76,0.57
0.28,0.78,0.57
0.27,0.79,0.57
0.27,0.79,0.57
0.26,0.79,0.57
0.25,0.78,0.58
0.25,0.77,0.59
0.24,0.77,0.61
0.24,0.77,0.61
0.27,0.76,0.59
0.3,0.76,0.59
0.32,0.76,0.6
0.32,0.76,0.6
0.32,0.76,0.59
0.31,0.76,0.58
0.3,0.76,0.57
0.29,0.77,0.56
0.27,0.77,0.57
0.26,0.77,0.59
0.26,0.76,0.62
0.27,0.76,0.64
0.31,0.77,0.65
0.35,0.78,0.65
0.36,0.79,0.64
0.34,0.8,0.63
0.33,0.79,0.62
0.3,0.8,0.61
0.26,0.79,0.6
0.25,0.79,0.58
0.25,0.79,0.57
0.23,0.79,0.56
0.21,0.79,0.55
0.2,0.8,0.54
0.18,0.8,0.52
0.17,0.8,0.51
0.16,0.8,0.5
0.16,0.8,0.5
0.15,0.8,0.5
0.14,0.81,0.49
0.13,0.82,0.47
0.1,0.82,0.46
0.07,0.82,0.45
0.07,0.83,0.43
0.07,0.84,0.4
0.05,0.85,0.4
0.04,0.85,0.41
0.05,0.85,0.4
0.07,0.84,0.41
0.1,0.83,0.41
0.14,0.82,0.42
0.18,0.81,0.44
0.21,0.81,0.44
0.22,0.81,0.44
0.23,0.8,0.43
0.22,0.8,0.42
0.21,0.81,0.41
0.2,0.82,0.4
0.19,0.83,0.39
0.19,0.84,0.41
0.19,0.84,0.45
0.18,0.84,0.49
0.16,0.88,0.48
0.07,0.88,0.44
0.04,0.87,0.38
0.03,0.84,0.35
0.02,0.82,0.33
0.02,0.8,0.33
1.8,0.71,1.7
1.8,0.71,1.7
1.08,0.94,1.14
0.54,0.86,0.65
0.25,0.75,0.55
0.1,0.73,0.4
0.1,0.67,0.55
0.1,0.67,0.55
0.19,0.7,0.55
0.24,0.72,0.55
0.26,0.74,0.56
0.26,0.77,0.59
0.27,0.77,0.59
0.28,0.77,0.6
0.28,0.77,0.6
0.29,0.77,0.61
0.3,0.76,0.61
0.31,0.76,0.6
0.31,0.76,0.59
0.31,0.75,0.58
0.32,0.75,0.58
0.34,0.75,0.58
0.35,0.75,0.59
0.31,0.74,0.58
0.31,0.74,0.58
0.34,0.74,0.56
0.36,0.74,0.53
0.36,0.73,0.52
0.37,0.71,0.51
0.38,0.7,0.52
0.39,0.71,0.53
0.38,0.71,0.53
0.37,0.72,0.54
0.36,0.73,0.56
0.34,0.74,0.57
0.33,0.75,0.58
0.32,0.76,0.59
0.31,0.76,0.6
0.31,0.77,0.61
0.31,0.77,0.62
0.31,0.77,0.62
0.32,0.77,0.63
0.33,0.77,0.64
0.34,0.76,0.66
0.37,0.76,0.66
0.37,0.76,0.65
0.34,0.76,0.63
0.32,0.76,0.61
0.31,0.75,0.59
0.29,0.74,0.58
0.28,0.73,0.57
0.3,0.73,0.55
0.34,0.73,0.55
0.36,0.74,0.57
0.36,0.76,0.59
0.34,0.77,0.58
0.31,0.78,0.55
0.29,0.79,0.53
0.28,0.79,0.52
0.23,0.82,0.49
0.21,0.82,0.46
0.18,0.81,0.46
0.17,0.81,0.46
0.17,0.81,0.46
0.18,0.8,0.44
0.18,0.81,0.44
0.17,0.82,0.46
0.16,0.82,0.47
0.15,0.82,0.46
0.12,0.83,0.44
0.1,0.83,0.42
0.04,0.83,0.4
0.04,0.83,0.4
0.02,0.83,0.4
0.01,0.83,0.41
0.01,0.83,0.42
0.03,0.84,0.43
0.21,0.82,0.45
0.21,0.82,0.45
0.21,0.82,0.41
0.18,0.82,0.36
0.17,0.81,0.33
0.15,0.78,0.34
0.12,0.77,0.39
0.13,0.79,0.43
0.1,0.79,0.44
0.04,0.79,0.39
-0.03,0.8,0.26
0.25,0.74,0.4
0.28,0.7,0.61
0.28,0.73,0.61
0.29,0.74,0.6
0.31,0.77,0.59
0.32,0.79,0.58
0.33,0.8,0.58
0.31,0.79,0.57
0.3,0.78,0.56
0.29,0.76,0.56
0.28,0.75,0.55
0.26,0.75,0.54
0.25,0.75,0.53
0.24,0.75,0.53
0.25,0.74,0.55
0.27,0.75,0.56
0.28,0.74,0.57
0.29,0.75,0.57
0.31,0.75,0.58
0.33,0.75,0.6
0.34,0.75,0.6
0.35,0.75,0.6
0.36,0.75,0.59
0.36,0.75,0.58
0.34,0.75,0.56
0.33,0.75,0.56
0.34,0.76,0.56
0.37,0.76,0.57
0.38,0.76,0.58
0.35,0.76,0.57
0.34,0.76,0.56
0.33,0.76,0.56
0.32,0.76,0.56
0.31,0.76,0.56
0.3,0.75,0.56
0.3,0.75,0.57
0.32,0.74,0.58
0.32,0.75,0.57
0.32,0.75,0.57
0.32,0.75,0.57
0.32,0.75,0.57
0.31,0.75,0.55
0.32,0.75,0.54
0.33,0.75,0.54
0.34,0.74,0.54
0.35,0.74,0.55
0.37,0.74,0.58
0.38,0.75,0.6
0.37,0.76,0.62
0.37,0.76,0.61
0.37,0.77,0.59
0.36,0.76,0.56
0.36,0.76,0.53
0.35,0.75,0.52
0.33,0.76,0.55
0.36,0.78,0.57
0.36,0.79,0.59
0.35,0.8,0.58
0.33,0.79,0.55
0.32,0.77,0.56
0.28,0.77,0.6
0.25,0.76,0.62
0.24,0.77,0.63
0.23,0.77,0.63
0.22,0.76,0.62
0.18,0.77,0.62
0.15,0.76,0.6
0.15,0.75,0.58
0.14,0.76,0.56
0.11,0.78,0.54
0.09,0.79,0.52
0.03,0.8,0.43
0.03,0.8,0.43
0.03,0.81,0.41
0.04,0.8,0.4
0.06,0.8,0.41
0.09,0.8,0.41
0.29,0.73,0.6
0.3,0.73,0.6
0.31,0.74,0.6
0.32,0.73,0.6
0.35,0.73,0.6
0.37,0.74,0.6
0.35,0.76,0.56
0.35,0.76,0.56
0.36,0.76,0.56
0.36,0.76,0.57
0.37,0.75,0.58
0.37,0.75,0.59
0.35,0.75,0.59
0.34,0.75,0.59
0.35,0.75,0.6
0.36,0.76,0.61
0.36,0.76,0.61
0.33,0.77,0.61
0.28,0.77,0.6
0.26,0.74,0.58
0.26,0.74,0.54
0.25,0.76,0.49
0.23,0.76,0.49
0.21,0.76,0.51
0.21,0.77,0.53
0.21,0.78,0.53
0.22,0.78,0.53
0.22,0.77,0.52
0.23,0.77,0.51
0.27,0.78,0.53
0.3,0.78,0.57
0.3,0.78,0.6
0.28,0.77,0.62
0.26,0.77,0.63
0.25,0.77,0.64
0.22,0.77,0.64
0.18,0.77,0.63
0.16,0.76,0.62
0.14,0.76,0.59
0.1,0.77,0.57
0.08,0.77,0.53
0.07,0.78,0.5
0.07,0.78,0.5
0.08,0.77,0.5
0.12,0.78,0.51
0.15,0.79,0.52
0.17,0.79,0.52
0.18,0.8,0.52
0.19,0.8,0.51
0.2,0.81,0.5
0.21,0.8,0.48
0.24,0.8,0.49
0.27,0.8,0.55
0.12,0.79,0.52
0.12,0.79,0.52
0.1,0.78,0.51
0.07,0.78,0.49
0.05,0.77,0.47
0.07,0.76,0.45
0.09,0.74,0.34
0.09,0.7,0.23
0.67,0.77,0.09
1.72,0.91,0.93
1.42,0.87,1.38
0.59,0.77,0.88
0.32,0.71,0.76
0.03,0.68,0.6
-0.01,0.65,0.52
0.1,0.71,0.49
0.19,0.76,0.49
0.27,0.73,0.49
0.32,0.73,0.48
0.33,0.74,0.47
0.34,0.75,0.48
0.34,0.76,0.51
0.35,0.78,0.54
0.34,0.79,0.56
0.33,0.79,0.57
0.31,0.78,0.58
0.29,0.77,0.58
0.27,0.75,0.58
0.26,0.74,0.58
0.25,0.74,0.59
0.24,0.74,0.59
0.24,0.74,0.59
0.25,0.74,0.59
0.26,0.74,0.6
0.33,0.74,0.61
0.36,0.75,0.6
0.37,0.76,0.59
0.37,0.76,0.58
0.37,0.75,0.56
0.37,0.76,0.56
0.36,0.76,0.55
0.35,0.76,0.55
0.35,0.76,0.55
0.34,0.76,0.56
0.34,0.75,0.56
0.33,0.75,0.56
0.33,0.75,0.56
0.32,0.75,0.56
0.31,0.75,0.57
0.32,0.75,0.56
0.32,0.75,0.57
0.3,0.75,0.56
0.31,0.75,0.55
0.33,0.74,0.56
0.34,0.74,0.57
0.33,0.74,0.59
0.32,0.75,0.59
0.31,0.75,0.59
0.29,0.75,0.58
0.28,0.74,0.55
0.31,0.74,0.55
0.34,0.75,0.56
0.38,0.75,0.58
0.39,0.76,0.6
0.37,0.75,0.62
0.35,0.76,0.63
0.35,0.76,0.64
0.34,0.75,0.64
0.32,0.76,0.62
0.31,0.76,0.59
0.32,0.76,0.57
0.29,0.77,0.56
0.27,0.75,0.55
0.28,0.75,0.56
0.27,0.75,0.58
0.27,0.76,0.6
0.27,0.77,0.62
0.25,0.77,0.62
0.23,0.77,0.59
0.21,0.77,0.56
0.2,0.77,0.53
0.18,0.77,0.52
0.17,0.78,0.51
0.17,0.78,0.51
0.16,0.78,0.51
0.15,0.78,0.52
0.15,0.79,0.5
0.15,0.8,0.48
0.14,0.8,0.46
0.14,0.8,0.46
0.14,0.8,0.45
0.16,0.79,0.46
0.19,0.79,0.48
0.23,0.79,0.51
0.25,0.79,0.53
0.26,0.78,0.56
0.27,0.78,0.6
0.28,0.78,0.62
0.28,0.79,0.63
0.27,0.81,0.63
0.21,0.83,0.59
0.15,0.82,0.51
0.1,0.8,0.45
0.07,0.78,0.41
0.05,0.76,0.39
0.04,0.75,0.37
0.06,0.72,0.37
0.1,0.71,0.39
0.12,0.68,0.29
0.44,0.58,0.36
1.23,0.63,1.13
1.3,0.8,0.84
0.28,0.66,0.85
0.05,0.7,0.69
0.17,0.74,0.48
0.3,0.78,0.41
0.34,0.77,0.44
0.38,0.75,0.49
0.4,0.73,0.52
0.37,0.72,0.55
0.34,0.73,0.57
0.33,0.74,0.59
0.32,0.75,0.58
0.29,0.76,0.57
0.26,0.76,0.55
0.24,0.75,0.54
0.24,0.74,0.55
0.25,0.73,0.57
0.27,0.73,0.59
0.28,0.74,0.59
0.29,0.74,0.59
0.31,0.73,0.6
0.32,0.74,0.62
0.33,0.74,0.61
0.34,0.74,0.59
0.36,0.74,0.58
0.36,0.74,0.58
0.35,0.74,0.57
0.35,0.75,0.57
0.34,0.75,0.57
0.32,0.75,0.56
0.31,0.74,0.55
0.31,0.74,0.55
0.31,0.74,0.56
0.31,0.74,0.58
0.32,0.74,0.59
0.33,0.75,0.59
0.32,0.75,0.59
0.31,0.74,0.59
0.29,0.74,0.59
0.28,0.74,0.59
0.26,0.74,0.59
0.26,0.73,0.58
0.27,0.73,0.57
0.29,0.74,0.57
0.31,0.74,0.58
0.33,0.74,0.59
0.35,0.74,0.6
0.35,0.74,0.61
0.36,0.75,0.62
0.35,0.76,0.6
0.34,0.75,0.58
0.34,0.75,0.58
0.33,0.76,0.58
0.32,0.75,0.58
0.31,0.75,0.58
0.3,0.74,0.57
0.3,0.74,0.58
0.31,0.75,0.59
0.3,0.75,0.59
0.29,0.76,0.6
0.3,0.76,0.6
0.27,0.75,0.58
0.24,0.74,0.57
0.23,0.75,0.57
0.22,0.76,0.56
0.21,0.75,0.55
0.22,0.76,0.55
0.25,0.77,0.55
0.26,0.78,0.55
0.27,0.78,0.56
0.26,0.79,0.59
0.26,0.79,0.61
0.25,0.79,0.62
0.24,0.79,0.61
0.21,0.8,0.58
0.19,0.8,0.55
0.17,0.8,0.51
0.15,0.79,0.47
0.13,0.79,0.43
0.11,0.79,0.43
0.11,0.79,0.43
0.12,0.79,0.42
0.13,0.79,0.42
0.15,0.78,0.43
0.16,0.78,0.44
0.18,0.78,0.47
0.21,0.76,0.51
0.23,0.76,0.56
0.25,0.77,0.61
0.27,0.77,0.65
0.3,0.78,0.7
0.29,0.81,0.72
0.29,0.8,0.73
0.32,0.79,0.74
0.33,0.81,0.71
0.32,0.85,0.55
0.29,0.86,0.34
0.24,0.83,0.19
0.19,0.78,0.12
0.16,0.74,0.14
0.18,0.7,0.2
0.13,0.68,-0.03
0.42,0.47,0.85
1.36,0.64,1.98
1.29,0.97,0.58
0.14,0.71,0.55
-0.31,0.65,0.63
-0.2,0.65,0.6
0.03,0.73,0.54
0.14,0.76,0.53
0.17,0.75,0.53
0.18,0.74,0.51
0.23,0.74,0.49
0.27,0.76,0.49
0.27,0.76,0.52
0.26,0.76,0.56
0.25,0.75,0.58
0.24,0.75,0.59
0.22,0.75,0.6
0.21,0.75,0.61
0.21,0.74,0.61
0.21,0.74,0.61
0.23,0.74,0.6
0.25,0.74,0.61
0.28,0.73,0.61
0.31,0.73,0.62
0.34,0.74,0.62
0.35,0.74,0.62
0.36,0.73,0.62
0.37,0.74,0.62
0.37,0.74,0.6
0.35,0.75,0.6
0.33,0.75,0.59
0.3,0.75,0.58
0.28,0.75,0.58
0.28,0.75,0.58
0.28,0.75,0.58
0.28,0.74,0.58
0.28,0.74,0.58
0.28,0.74,0.59
0.28,0.74,0.59
0.27,0.74,0.58
0.27,0.74,0.58
0.27,0.74,0.57
0.26,0.74,0.57
0.26,0.74,0.58
0.28,0.74,0.6
0.31,0.75,0.61
0.3,0.76,0.61
0.27,0.76,0.6
0.25,0.75,0.58
0.27,0.73,0.55
0.29,0.73,0.55
0.3,0.74,0.56
0.32,0.74,0.58
0.33,0.75,0.59
0.33,0.75,0.6
0.31,0.76,0.58
0.28,0.75,0.56
0.27,0.75,0.56
0.27,0.75,0.56
0.29,0.74,0.56
0.3,0.75,0.56
0.32,0.75,0.58
0.34,0.75,0.6
0.35,0.75,0.63
0.35,0.75,0.65
0.35,0.76,0.67
0.35,0.76,0.69
0.31,0.75,0.68
0.27,0.74,0.66
0.24,0.75,0.62
0.22,0.75,0.58
0.21,0.74,0.56
0.21,0.75,0.56
0.23,0.75,0.57
0.24,0.76,0.59
0.26,0.76,0.62
0.25,0.76,0.63
0.24,0.77,0.63
0.21,0.78,0.6
0.18,0.78,0.55
0.18,0.77,0.52
0.18,0.79,0.51
0.17,0.79,0.51
0.18,0.79,0.51
0.18,0.79,0.51
0.19,0.79,0.52
0.19,0.79,0.51
0.19,0.79,0.5
0.18,0.79,0.5
0.17,0.79,0.49
0.16,0.8,0.49
0.16,0.8,0.5
0.17,0.79,0.5
0.19,0.79,0.51
0.22,0.78,0.53
0.23,0.78,0.54
0.24,0.79,0.55
0.25,0.79,0.57
0.24,0.79,0.58
0.25,0.79,0.59
0.24,0.79,0.59
0.23,0.79,0.58
0.22,0.79,0.58
0.21,0.78,0.58
0.21,0.78,0.57
0.22,0.77,0.58
0.23,0.77,0.6
0.24,0.76,0.62
0.27,0.77,0.64
0.26,0.79,0.62
0.23,0.8,0.59
0.2,0.79,0.58
0.19,0.78,0.58
0.19,0.79,0.58
0.19,0.8,0.58
0.21,0.8,0.59
0.21,0.81,0.59
0.19,0.8,0.58
0.14,0.81,0.52
0.03,0.82,0.38
-0.1,0.79,0.24
-0.08,0.69,0.04
0.61,0.57,0.34
1.55,0.83,0.87
1.09,0.8,0.89
0.07,0.62,0.9
-0.14,0.69,0.91
-0.11,0.62,0.67
-0.1,0.67,0.46
0.01,0.74,0.42
0.17,0.77,0.46
0.26,0.78,0.51
0.3,0.78,0.53
0.31,0.75,0.54
0.29,0.76,0.55
0.34,0.77,0.58
0.38,0.79,0.62
0.38,0.79,0.63
0.33,0.78,0.6
0.27,0.76,0.58
0.23,0.74,0.57
0.21,0.74,0.57
0.22,0.74,0.58
0.22,0.74,0.59
0.22,0.74,0.59
0.22,0.74,0.59
0.23,0.74,0.58
0.24,0.74,0.58
0.27,0.75,0.59
0.31,0.75,0.61
0.33,0.76,0.61
0.34,0.76,0.61
0.33,0.76,0.59
0.32,0.76,0.58
0.3,0.75,0.57
0.29,0.75,0.57
0.28,0.75,0.57
0.28,0.75,0.57
0.28,0.75,0.58
0.28,0.75,0.59
0.29,0.75,0.59
0.3,0.75,0.59
0.29,0.76,0.58
0.29,0.76,0.57
0.27,0.75,0.56
0.24,0.73,0.55
0.22,0.72,0.57
0.24,0.72,0.58
0.29,0.72,0.58
0.37,0.73,0.6
0.41,0.75,0.6
0.4,0.76,0.56
0.36,0.76,0.52
0.35,0.75,0.51
0.36,0.75,0.55
0.36,0.75,0.6
0.35,0.76,0.64
0.33,0.76,0.66
0.29,0.75,0.65
0.28,0.74,0.64
0.32,0.73,0.64
0.35,0.75,0.65
0.35,0.75,0.66
0.32,0.75,0.66
0.28,0.76,0.63
0.24,0.76,0.56
0.2,0.76,0.54
0.2,0.76,0.55
0.22,0.76,0.58
0.23,0.77,0.6
0.24,0.77,0.61
0.23,0.78,0.62
0.21,0.78,0.6
0.2,0.78,0.57
0.2,0.78,0.56
0.19,0.78,0.55
0.19,0.78,0.55
0.19,0.78,0.55
0.18,0.78,0.55
0.17,0.79,0.55
0.16,0.79,0.54
0.16,0.79,0.52
0.15,0.8,0.51
0.13,0.81,0.49
0.11,0.81,0.47
0.1,0.81,0.45
0.09,0.8,0.45
0.09,0.8,0.46
0.1,0.79,0.47
0.12,0.78,0.48
0.14,0.77,0.5
0.16,0.78,0.52
0.19,0.78,0.53
0.22,0.79,0.56
0.21,0.8,0.58
0.1,0.78,0.49
0.1,0.78,0.49
0.05,0.76,0.42
0,0.73,0.35
-0.02,0.71,0.29
0.43,0.56,0.65
0.07,0.74,0.9
0.28,0.73,0.69
0.28,0.73,0.69
0.38,0.76,0.55
0.39,0.75,0.55
0.39,0.74,0.59
0.39,0.73,0.59
0.38,0.71,0.54
0.36,0.72,0.54
0.36,0.73,0.55
0.35,0.73,0.57
0.34,0.74,0.57
0.32,0.74,0.56
0.29,0.73,0.55
0.28,0.73,0.55
0.28,0.72,0.56
0.29,0.73,0.57
0.3,0.73,0.58
0.32,0.74,0.59
0.32,0.74,0.59
0.32,0.74,0.59
0.32,0.74,0.59
0.32,0.75,0.59
0.31,0.75,0.59
0.3,0.76,0.59
0.29,0.77,0.59
0.28,0.79,0.59
0.26,0.82,0.57
0.25,0.84,0.56
0.24,0.85,0.58
0.2,0.88,0.65
0.17,0.87,0.68
0.17,0.87,0.68
0.2,0.84,0.68
0.25,0.83,0.65
0.29,0.81,0.63
0.31,0.77,0.6
0.28,0.77,0.61
0.26,0.79,0.63
0.27,0.77,0.63
0.26,0.76,0.67
0.27,0.71,0.72
0.32,0.65,0.73
0.38,0.63,0.73
0.44,0.62,0.72
0.45,0.62,0.72
0.44,0.62,0.72
0.43,0.61,0.71
0.43,0.58,0.7
0.43,0.55,0.7
0.44,0.54,0.7
0.44,0.54,0.7
0.4,0.54,0.72
0.35,0.53,0.73
0.33,0.52,0.72
0.3,0.54,0.72
0.26,0.52,0.71
0.24,0.55,0.66
0.25,0.58,0.62
0.26,0.59,0.7
0.25,0.54,0.76
0.31,0.53,0.81
0.35,0.55,0.83
0.32,0.57,0.83
0.27,0.57,0.8
0.25,0.55,0.73
0.22,0.52,0.65
0.26,0.5,0.58
0.32,0.51,0.56
0.33,0.52,0.59
0.35,0.52,0.64
0.39,0.52,0.69
0.43,0.52,0.73
0.46,0.52,0.76
0.46,0.51,0.76
0.43,0.5,0.76
0.4,0.5,0.75
0.37,0.5,0.73
0.36,0.49,0.72
0.37,0.5,0.73
0.38,0.51,0.76
0.37,0.51,0.79
0.35,0.52,0.82
0.33,0.52,0.86
0.3,0.52,0.9
0.27,0.54,0.94
0.25,0.55,0.95
0.25,0.55,0.96
0.26,0.55,0.97
0.26,0.55,0.98
0.27,0.54,0.99
0.27,0.53,0.98
0.28,0.52,0.96
0.29,0.5,0.94
0.31,0.49,0.92
0.33,0.49,0.9
0.34,0.48,0.88
0.35,0.48,0.86
0.37,0.47,0.86
0.37,0.46,0.86
0.36,0.45,0.85
0.36,0.44,0.83
0.37,0.43,0.81
0.37,0.43,0.8
0.36,0.43,0.8
0.34,0.44,0.8
0.33,0.44,0.8
0.31,0.45,0.8
0.3,0.47,0.79
0.29,0.48,0.78
0.3,0.5,0.79
0.31,0.5,0.79
0.34,0.49,0.78
0.36,0.5,0.78
0.36,0.5,0.78
0.35,0.52,0.78
0.34,0.53,0.78
0.35,0.54,0.78
