Acc_x,Acc_y,Acc_z
0.44,0.14,0.9
0.44,0.14,0.9
0.45,0.13,0.91
0.45,0.13,0.91
0.44,0.13,0.92
0.44,0.13,0.92
0.44,0.14,0.91
0.43,0.13,0.9
0.44,0.14,0.89
0.45,0.14,0.89
0.45,0.14,0.9
0.45,0.14,0.91
0.43,0.14,0.92
0.41,0.15,0.92
0.41,0.16,0.9
0.42,0.16,0.9
0.44,0.16,0.89
0.44,0.16,0.89
0.45,0.16,0.89
0.46,0.14,0.9
0.46,0.12,0.9
0.46,0.12,0.9
0.45,0.12,0.89
0.44,0.13,0.89
0.43,0.13,0.88
0.43,0.12,0.87
0.42,0.12,0.86
0.43,0.12,0.86
0.44,0.11,0.88
0.46,0.1,0.9
0.47,0.09,0.9
0.47,0.08,0.89
0.46,0.08,0.89
0.46,0.08,0.9
0.45,0.08,0.89
0.46,0.07,0.89
0.48,0.07,0.89
0.48,0.06,0.87
0.49,0.05,0.87
0.5,0.04,0.9
0.51,0.03,0.96
0.52,0.01,0.98
0.54,0,0.99
0.55,-0.01,1.01
0.6,-0.03,1.04
0.64,-0.03,1.05
0.63,-0.03,1.06
0.61,-0.03,1.06
0.6,-0.05,1.05
0.61,-0.07,1.03
0.63,-0.11,1.03
0.64,-0.15,1.03
0.64,-0.19,0.99
0.61,-0.21,0.93
0.57,-0.22,0.88
0.56,-0.24,0.84
0.54,-0.28,0.83
0.54,-0.32,0.86
0.57,-0.38,0.9
0.59,-0.42,0.92
0.6,-0.45,0.92
0.58,-0.47,0.91
0.54,-0.48,0.87
0.5,-0.48,0.8
0.47,-0.5,0.76
0.43,-0.52,0.73
0.38,-0.52,0.74
0.34,-0.58,0.77
0.34,-0.6,0.76
0.32,-0.59,0.73
0.28,-0.56,0.76
0.3,-0.56,0.76
0.31,-0.56,0.74
0.27,-0.55,0.69
0.24,-0.55,0.65
0.27,-0.57,0.65
0.33,-0.61,0.67
0.36,-0.65,0.71
0.38,-0.66,0.74
0.39,-0.67,0.77
0.38,-0.66,0.77
0.38,-0.65,0.76
0.36,-0.65,0.74
0.34,-0.64,0.71
0.33,-0.61,0.68
0.31,-0.6,0.66
0.3,-0.57,0.64
0.29,-0.55,0.62
0.28,-0.52,0.61
0.26,-0.5,0.6
0.24,-0.49,0.6
0.22,-0.48,0.6
0.21,-0.49,0.61
0.21,-0.53,0.62
0.24,-0.55,0.63
0.26,-0.58,0.63
0.27,-0.59,0.65
0.28,-0.6,0.66
0.28,-0.62,0.66
0.31,-0.62,0.66
0.31,-0.62,0.66
0.31,-0.63,0.67
0.33,-0.63,0.67
0.36,-0.64,0.68
0.38,-0.63,0.7
0.4,-0.62,0.72
0.4,-0.62,0.74
0.4,-0.62,0.74
0.4,-0.61,0.72
0.41,-0.59,0.67
0.42,-0.57,0.63
0.42,-0.54,0.59
0.39,-0.52,0.58
0.29,-0.54,0.62
0.23,-0.63,0.68
0.23,-0.73,0.71
0.32,-0.79,0.7
0.47,-0.83,0.63
0.58,-0.85,0.55
0.63,-0.94,0.51
0.7,-0.97,0.51
0.74,-1,0.49
0.77,-1.03,0.46
0.81,-1.05,0.48
0.83,-1.09,0.51
0.84,-1.12,0.53
0.81,-1.12,0.58
0.78,-1.04,0.58
0.78,-0.98,0.53
0.76,-0.91,0.49
0.74,-0.85,0.44
0.71,-0.84,0.4
0.68,-0.82,0.39
0.65,-0.8,0.38
0.62,-0.79,0.37
0.61,-0.79,0.36
0.6,-0.76,0.37
0.57,-0.75,0.36
0.55,-0.74,0.35
0.54,-0.71,0.34
0.53,-0.68,0.32
0.51,-0.66,0.3
0.49,-0.66,0.27
0.48,-0.68,0.25
0.48,-0.71,0.25
0.48,-0.73,0.27
0.47,-0.76,0.26
0.45,-0.77,0.26
0.44,-0.79,0.25
0.42,-0.81,0.27
0.41,-0.83,0.28
0.41,-0.85,0.28
0.39,-0.87,0.28
0.35,-0.9,0.29
0.33,-0.89,0.3
0.3,-0.86,0.3
0.27,-0.85,0.31
0.25,-0.86,0.31
0.22,-0.88,0.28
0.2,-0.87,0.29
0.21,-0.88,0.29
0.25,-0.84,0.28
0.28,-0.8,0.28
0.29,-0.8,0.28
0.31,-0.8,0.27
0.33,-0.77,0.29
0.35,-0.75,0.31
0.37,-0.76,0.33
0.38,-0.77,0.35
0.42,-0.79,0.36
0.46,-0.81,0.36
0.48,-0.84,0.41
0.47,-0.85,0.42
0.5,-0.83,0.43
0.5,-0.83,0.44
0.5,-0.83,0.44
0.51,-0.82,0.44
0.51,-0.81,0.43
0.52,-0.8,0.38
0.53,-0.79,0.34
0.56,-0.77,0.31
0.57,-0.77,0.28
0.57,-0.79,0.26
0.57,-0.8,0.26
0.57,-0.8,0.26
0.55,-0.81,0.27
0.53,-0.82,0.28
0.51,-0.84,0.29
0.51,-0.86,0.3
0.5,-0.89,0.32
0.49,-0.92,0.32
0.47,-0.94,0.32
0.45,-0.97,0.32
0.44,-0.96,0.3
0.42,-0.95,0.31
0.42,-0.95,0.35
0.41,-0.95,0.37
0.38,-0.94,0.4
0.34,-0.84,0.45
0.33,-0.8,0.44
0.39,-0.8,0.37
0.42,-0.76,0.38
0.38,-0.82,0.4
0.41,-0.89,0.38
0.43,-0.91,0.41
0.4,-0.97,0.46
0.38,-1.03,0.47
0.37,-1.03,0.52
0.39,-0.98,0.59
0.35,-0.96,0.63
0.32,-0.96,0.67
0.33,-0.9,0.68
0.38,-0.82,0.65
0.36,-0.78,0.63
0.37,-0.74,0.56
0.4,-0.68,0.53
0.33,-0.68,0.55
0.34,-0.69,0.53
0.35,-0.66,0.5
0.33,-0.66,0.47
0.34,-0.68,0.43
0.33,-0.72,0.4
0.32,-0.74,0.4
0.3,-0.77,0.43
0.25,-0.88,0.46
0.22,-0.92,0.5
0.15,-0.99,0.53
0.11,-1.02,0.57
0.16,-0.92,0.63
0.08,-0.94,0.69
-0.04,-1.08,0.74
0.02,-0.99,0.77
-0.03,-0.98,0.78
-0.19,-1.2,0.78
-0.22,-1.33,0.78
-0.29,-1.26,0.82
-0.39,-1.16,0.87
-0.43,-1.23,0.93
-0.45,-1.29,0.98
-0.45,-1.32,1
-0.45,-1.36,1
-0.45,-1.38,0.97
-0.47,-1.39,0.94
-0.5,-1.42,0.95
-0.47,-1.49,0.97
-0.46,-1.57,0.99
-0.45,-1.62,0.98
-0.43,-1.61,0.96
-0.41,-1.58,0.93
-0.41,-1.58,0.84
-0.35,-1.58,0.82
-0.36,-1.58,0.83
-0.37,-1.58,0.84
-0.35,-1.55,0.84
-0.35,-1.48,0.85
-0.33,-1.45,0.86
-0.3,-1.48,0.83
-0.32,-1.51,0.78
-0.32,-1.53,0.72
-0.27,-1.5,0.69
-0.23,-1.45,0.7
-0.21,-1.39,0.7
-0.16,-1.35,0.7
-0.12,-1.3,0.7
-0.09,-1.27,0.71
-0.08,-1.24,0.68
-0.06,-1.14,0.63
-0.05,-1.01,0.59
-0.01,-0.93,0.56
0.02,-0.87,0.52
0.05,-0.81,0.5
0.07,-0.76,0.49
0.08,-0.69,0.46
0.1,-0.6,0.42
0.1,-0.51,0.39
0.09,-0.43,0.37
0.1,-0.31,0.35
0.09,-0.25,0.32
0.07,-0.2,0.29
0.03,-0.14,0.27
0.04,-0.08,0.21
0.05,0,0.18
0.02,0.03,0.21
0.01,0.01,0.22
0.03,0.02,0.21
0.02,0.05,0.19
0,0.09,0.19
-0.01,0.12,0.19
-0.04,0.14,0.21
-0.08,0.14,0.25
-0.08,0.15,0.27
-0.09,0.14,0.27
-0.13,0.13,0.27
-0.16,0.12,0.28
-0.18,0.12,0.29
-0.2,0.12,0.32
-0.21,0.1,0.36
-0.23,0.09,0.39
-0.25,0.1,0.42
-0.25,0.1,0.45
-0.26,0.1,0.46
-0.27,0.1,0.45
-0.23,0.1,0.46
-0.21,0.07,0.48
-0.18,0.03,0.48
-0.15,0,0.48
-0.12,-0.03,0.48
-0.09,-0.06,0.49
-0.06,-0.11,0.48
-0.04,-0.14,0.47
-0.02,-0.16,0.46
0,-0.19,0.46
-0.01,-0.25,0.48
0,-0.27,0.51
0.03,-0.3,0.53
0.04,-0.34,0.54
0.02,-0.35,0.53
0.01,-0.36,0.54
0.01,-0.41,0.57
0.04,-0.51,0.59
0.06,-0.59,0.59
0.08,-0.63,0.56
0.07,-0.57,0.56
0.07,-0.62,0.6
0.09,-0.75,0.64
0.1,-0.76,0.71
0.11,-0.8,0.77
0.12,-0.87,0.7
0.13,-0.94,0.66
0.13,-0.98,0.66
0.1,-1.06,0.68
0.11,-1.14,0.74
0.17,-1.12,0.8
0.21,-1.14,0.83
0.24,-1.19,0.87
0.26,-1.16,0.9
0.26,-1.13,0.88
0.18,-1.28,0.85
0.24,-1.24,0.89
0.26,-1.18,0.9
0.15,-1.19,0.88
0.16,-1.12,0.92
0.16,-1.2,1.02
0.18,-1.25,1.11
0.18,-1.38,1.1
0.17,-1.5,1.03
0.14,-1.51,0.98
0.07,-1.47,0.95
-0.01,-1.43,0.92
-0.05,-1.37,0.9
-0.06,-1.33,0.89
-0.01,-1.37,0.86
0.15,-1.36,0.88
0.16,-1.46,0.89
0.15,-1.45,0.92
0.12,-1.4,0.9
0.11,-1.32,0.85
0.08,-1.26,0.81
0.07,-1.24,0.79
0.06,-1.18,0.77
0.08,-1.14,0.73
0.08,-1.14,0.72
0.08,-1.11,0.72
0.05,-1.11,0.75
0.05,-1.08,0.72
0.1,-1.03,0.63
0.18,-1.1,0.64
0.16,-1.04,0.7
0.08,-0.91,0.67
0.14,-0.87,0.61
0.12,-0.89,0.59
0.09,-0.96,0.5
0.11,-0.94,0.44
0.19,-0.95,0.41
0.2,-0.98,0.4
0.15,-1.01,0.38
0.15,-1.05,0.33
0.13,-1.07,0.32
0.15,-1.1,0.29
0.17,-1.11,0.26
0.17,-1.11,0.23
0.18,-1.1,0.22
0.2,-1.07,0.22
0.23,-1.03,0.23
0.24,-1,0.25
0.26,-0.97,0.27
0.28,-0.95,0.28
0.29,-0.92,0.29
0.29,-0.91,0.3
0.32,-0.91,0.3
0.35,-0.89,0.32
0.35,-0.88,0.36
0.34,-0.95,0.38
0.32,-0.95,0.43
0.3,-0.91,0.46
0.31,-0.93,0.5
0.3,-0.93,0.52
0.28,-0.91,0.54
0.26,-0.9,0.59
0.22,-0.93,0.63
0.18,-0.97,0.64
0.14,-0.98,0.63
0.11,-0.98,0.63
0.05,-0.99,0.65
0,-1,0.67
-0.04,-1.04,0.68
-0.08,-1.13,0.66
-0.06,-1.19,0.66
-0.02,-1.22,0.66
-0.05,-1.23,0.7
-0.15,-1.28,0.77
-0.24,-1.32,0.86
-0.31,-1.38,1
-0.29,-1.42,1.04
-0.36,-1.4,1.03
-0.43,-1.4,1.07
-0.43,-1.39,1.09
-0.46,-1.41,1.09
-0.46,-1.45,1.06
-0.44,-1.47,1.04
-0.44,-1.52,1.03
-0.42,-1.58,1.03
-0.37,-1.64,1.03
-0.32,-1.68,1.03
-0.29,-1.71,1.02
-0.26,-1.71,1
-0.21,-1.72,0.97
-0.14,-1.69,0.94
-0.08,-1.65,0.92
-0.08,-1.65,0.89
-0.1,-1.63,0.85
-0.1,-1.59,0.82
-0.1,-1.48,0.74
-0.04,-1.41,0.72
-0.02,-1.33,0.72
0.01,-1.27,0.7
0.02,-1.22,0.64
0.04,-1.17,0.6
0.08,-1.11,0.6
0.12,-1.07,0.56
0.17,-0.99,0.5
0.22,-0.88,0.44
0.23,-0.79,0.42
0.24,-0.72,0.41
0.28,-0.67,0.35
0.27,-0.65,0.31
0.24,-0.59,0.3
0.19,-0.51,0.31
0.18,-0.44,0.28
0.18,-0.38,0.24
0.17,-0.33,0.26
0.14,-0.28,0.28
0.08,-0.25,0.27
0.04,-0.2,0.26
-0.02,-0.09,0.27
-0.03,-0.01,0.26
-0.04,0.05,0.26
-0.12,0.18,0.29
-0.16,0.2,0.31
-0.13,0.05,0.33
-0.13,0.08,0.34
-0.13,0.15,0.32
-0.1,0.19,0.31
-0.08,0.22,0.33
-0.09,0.22,0.34
-0.11,0.18,0.35
-0.14,0.17,0.35
-0.17,0.17,0.35
-0.15,0.16,0.35
-0.14,0.18,0.35
-0.14,0.21,0.36
-0.13,0.21,0.38
-0.13,0.18,0.41
-0.16,0.15,0.43
-0.18,0.13,0.45
-0.2,0.12,0.47
-0.21,0.11,0.48
-0.21,0.11,0.5
-0.2,0.1,0.5
-0.19,0.09,0.5
-0.18,0.08,0.49
-0.17,0.06,0.49
-0.15,0.03,0.48
-0.15,-0.01,0.49
-0.15,-0.03,0.55
-0.14,-0.06,0.56
-0.12,-0.07,0.58
-0.12,-0.09,0.58
-0.1,-0.11,0.57
-0.09,-0.14,0.55
-0.1,-0.19,0.54
-0.11,-0.27,0.53
-0.09,-0.37,0.52
-0.05,-0.46,0.5
0,-0.48,0.5
-0.01,-0.42,0.54
-0.02,-0.4,0.57
0.02,-0.3,0.65
0.06,-0.37,0.62
0.07,-0.61,0.56
0.09,-0.69,0.58
0.12,-0.71,0.59
0.12,-0.71,0.58
0.13,-0.71,0.62
0.16,-0.74,0.73
0.19,-0.78,0.84
0.19,-0.83,0.94
0.2,-0.9,0.98
0.2,-0.96,0.96
0.19,-0.98,0.9
0.23,-0.95,0.87
0.28,-0.97,0.93
0.31,-1,1.01
0.31,-1.06,1.09
0.32,-1.14,1.12
0.31,-1.19,1.12
0.28,-1.21,1.13
0.26,-1.21,1.15
0.23,-1.2,1.14
0.18,-1.17,1.1
0.12,-1.14,1.06
0.08,-1.12,1.02
0.06,-1.15,0.98
0.06,-1.22,0.93
0.06,-1.31,0.89
0.07,-1.37,0.9
0.09,-1.35,0.94
0.1,-1.33,0.93
0.1,-1.3,0.87
0.13,-1.22,0.81
0.15,-1.14,0.76
0.17,-1.09,0.71
0.18,-1.09,0.69
0.14,-1.15,0.7
0.13,-1.21,0.71
0.17,-1.21,0.73
0.12,-1.2,0.72
0.12,-1.11,0.69
0.13,-1.06,0.65
0.14,-1.03,0.6
0.15,-1.01,0.58
0.12,-1.02,0.58
0.17,-1.02,0.59
0.21,-1.02,0.6
0.2,-1.06,0.59
0.16,-1.08,0.63
0.08,-1.04,0.67
0.1,-0.99,0.68
0.12,-0.99,0.68
0.08,-0.98,0.66
0.03,-0.97,0.65
0.02,-0.96,0.66
0.07,-0.96,0.62
0.1,-0.98,0.58
0.13,-0.99,0.55
0.22,-0.98,0.49
0.25,-0.95,0.45
0.24,-0.92,0.43
0.29,-0.92,0.38
0.31,-0.94,0.33
0.29,-0.95,0.27
0.3,-0.93,0.24
0.31,-0.9,0.23
0.31,-0.89,0.23
0.32,-0.88,0.23
0.34,-0.88,0.22
0.35,-0.88,0.22
0.36,-0.87,0.22
0.36,-0.86,0.22
0.37,-0.86,0.22
0.37,-0.86,0.21
0.37,-0.86,0.21
0.37,-0.87,0.21
0.37,-0.87,0.21
0.37,-0.88,0.2
0.37,-0.89,0.2
0.36,-0.91,0.19
0.36,-0.92,0.19
0.36,-0.92,0.21
0.35,-0.93,0.23
0.35,-0.94,0.25
0.33,-0.96,0.27
0.33,-0.97,0.3
0.33,-0.98,0.33
0.31,-0.98,0.35
0.3,-1,0.37
0.28,-1.02,0.4
0.26,-1.03,0.45
0.25,-1.03,0.53
0.2,-1.05,0.55
0.15,-1.06,0.56
0.1,-1.07,0.57
0.06,-1.08,0.6
0.03,-1.13,0.62
-0.02,-1.15,0.68
-0.08,-1.11,0.75
-0.08,-1.17,0.81
-0.17,-1.04,0.93
-0.27,-0.99,0.94
-0.27,-1.17,0.93
-0.34,-1.19,1.02
-0.4,-1.22,1.09
-0.44,-1.25,1.1
-0.45,-1.22,1.09
-0.47,-1.22,1.08
-0.51,-1.31,1.07
-0.51,-1.36,1.1
-0.49,-1.39,1.12
-0.45,-1.44,1.1
-0.39,-1.48,1.07
-0.34,-1.48,1.05
-0.3,-1.46,1.06
-0.23,-1.5,1.04
-0.18,-1.53,1.02
-0.16,-1.53,0.98
-0.11,-1.53,0.89
-0.09,-1.48,0.85
-0.05,-1.45,0.83
-0.04,-1.41,0.81
-0.04,-1.38,0.77
-0.02,-1.34,0.73
0.01,-1.28,0.72
0.02,-1.23,0.71
0.04,-1.19,0.69
0.07,-1.14,0.65
0.06,-1.08,0.63
0.05,-1.01,0.6
0.07,-0.95,0.56
0.07,-0.88,0.54
0.06,-0.81,0.54
0.05,-0.75,0.56
0.06,-0.7,0.56
0.05,-0.64,0.54
0.04,-0.59,0.52
0.02,-0.55,0.5
-0.01,-0.49,0.49
-0.04,-0.41,0.47
-0.03,-0.35,0.43
-0.03,-0.31,0.4
-0.07,-0.29,0.39
-0.09,-0.29,0.4
-0.08,-0.19,0.42
-0.11,-0.13,0.4
-0.11,-0.09,0.38
-0.11,-0.06,0.36
-0.14,-0.03,0.35
-0.15,0,0.37
-0.16,0.02,0.37
-0.17,-0.01,0.36
-0.18,0,0.36
-0.19,0.04,0.35
-0.2,0.06,0.35
-0.22,0.06,0.38
-0.23,0.08,0.41
-0.25,0.11,0.44
-0.27,0.12,0.45
-0.28,0.1,0.45
-0.29,0.1,0.45
-0.3,0.11,0.45
-0.3,0.11,0.45
-0.31,0.12,0.47
-0.32,0.11,0.5
-0.33,0.11,0.52
-0.32,0.09,0.52
-0.31,0.08,0.52
-0.32,0.09,0.52
-0.31,0.08,0.54
-0.31,0.04,0.53
-0.28,0.02,0.51
-0.27,-0.01,0.47
-0.27,-0.01,0.47
-0.27,0.01,0.48
-0.25,0.02,0.5
-0.23,0.01,0.51
-0.22,0,0.5
-0.2,-0.02,0.48
-0.17,-0.06,0.47
-0.16,-0.15,0.45
-0.16,-0.22,0.45
-0.16,-0.21,0.45
-0.13,-0.18,0.47
-0.12,-0.17,0.5
-0.08,-0.16,0.53
-0.04,-0.18,0.54
-0.03,-0.25,0.52
-0.03,-0.34,0.51
-0.03,-0.49,0.53
-0.05,-0.63,0.57
-0.06,-0.61,0.61
-0.06,-0.52,0.62
-0.05,-0.56,0.59
-0.02,-0.59,0.61
0.02,-0.55,0.63
0.07,-0.7,0.66
0.04,-0.85,0.72
0.06,-0.94,0.74
0.07,-0.97,0.7
0.08,-0.97,0.63
0.11,-0.95,0.59
0.11,-0.94,0.59
0.13,-0.92,0.66
0.15,-0.96,0.76
0.16,-1.06,0.82
0.19,-1.15,0.86
0.24,-1.17,0.89
0.2,-1.22,0.85
0.16,-1.28,0.76
0.18,-1.26,0.71
0.15,-1.27,0.71
0.13,-1.31,0.78
0.14,-1.36,0.87
0.17,-1.35,0.93
0.21,-1.31,1
0.26,-1.26,1.07
0.29,-1.24,1.1
0.28,-1.25,1.07
0.22,-1.26,1.01
0.16,-1.27,0.96
0.12,-1.31,0.93
0.09,-1.39,0.98
0.05,-1.38,0.99
0.06,-1.33,0.97
0.07,-1.28,0.92
0.08,-1.23,0.87
0.1,-1.18,0.81
0.12,-1.13,0.77
0.15,-1.09,0.73
0.18,-1.07,0.69
0.18,-1.04,0.66
0.21,-1.03,0.65
0.24,-1.03,0.65
0.27,-1.02,0.65
0.29,-1.03,0.62
0.3,-1.04,0.59
0.29,-1.05,0.54
0.29,-1.06,0.51
0.23,-1.06,0.55
0.14,-1.06,0.58
0.11,-1.05,0.59
0.08,-1.03,0.61
0.02,-1.02,0.62
0.01,-1,0.6
0.05,-1,0.55
0.1,-1.02,0.49
0.14,-1.01,0.46
0.15,-1,0.39
0.12,-1.02,0.35
0.14,-1.02,0.3
0.18,-0.96,0.27
0.2,-0.93,0.24
0.22,-0.96,0.21
0.22,-0.93,0.19
0.24,-0.94,0.15
0.26,-0.97,0.12
0.26,-0.93,0.13
0.27,-0.89,0.12
0.27,-0.92,0.12
0.28,-0.93,0.11
0.3,-0.91,0.11
0.3,-0.89,0.12
0.29,-0.87,0.12
0.3,-0.89,0.13
0.31,-0.9,0.14
0.31,-0.89,0.15
0.31,-0.9,0.17
0.31,-0.91,0.19
0.32,-0.93,0.22
0.31,-0.96,0.26
0.3,-0.98,0.29
0.28,-0.99,0.32
0.24,-1.01,0.34
0.23,-1,0.37
0.19,-1.03,0.39
0.16,-1.03,0.43
0.13,-1.04,0.48
0.1,-1.05,0.53
0.07,-1.06,0.58
0.04,-1.07,0.62
0,-1.06,0.63
-0.06,-1.05,0.62
-0.09,-1.07,0.62
-0.14,-1.12,0.63
-0.21,-1.15,0.68
-0.26,-1.15,0.76
-0.29,-1.17,0.84
-0.3,-1.21,0.93
-0.29,-1.23,1
-0.29,-1.24,1.02
-0.32,-1.25,1.02
-0.3,-1.26,0.99
-0.3,-1.28,0.96
-0.35,-1.32,0.95
-0.34,-1.35,1
-0.38,-1.4,1.07
-0.43,-1.45,1.12
-0.45,-1.51,1.16
-0.46,-1.56,1.14
-0.43,-1.61,1.04
-0.33,-1.7,0.98
-0.27,-1.71,0.93
-0.22,-1.7,0.89
-0.18,-1.66,0.87
-0.14,-1.62,0.86
-0.11,-1.59,0.85
-0.07,-1.57,0.81
-0.06,-1.56,0.76
-0.05,-1.53,0.69
-0.02,-1.44,0.63
-0.01,-1.36,0.62
0.02,-1.29,0.63
0.06,-1.26,0.62
0.07,-1.22,0.58
0.06,-1.15,0.54
0.1,-1.08,0.5
0.16,-1,0.47
0.17,-0.94,0.46
0.19,-0.85,0.45
0.19,-0.75,0.43
0.15,-0.71,0.4
0.11,-0.68,0.38
0.11,-0.62,0.38
0.08,-0.56,0.37
0.07,-0.51,0.39
0.07,-0.45,0.37
0.04,-0.29,0.36
0.04,-0.25,0.34
0.02,-0.19,0.28
0.01,-0.22,0.23
0.01,-0.23,0.18
0.05,-0.18,0.15
0.08,-0.11,0.17
0.08,-0.04,0.23
0.07,-0.01,0.28
0.03,0.03,0.31
0.02,0.08,0.32
0.01,0.1,0.34
-0.02,0.1,0.35
-0.06,0.15,0.37
-0.08,0.17,0.39
-0.1,0.14,0.4
-0.1,0.1,0.41
-0.1,0.09,0.42
-0.12,0.11,0.45
-0.12,0.11,0.48
-0.11,0.1,0.51
-0.12,0.09,0.53
-0.13,0.09,0.55
-0.14,0.09,0.56
-0.14,0.08,0.56
-0.14,0.06,0.54
-0.14,0.05,0.52
-0.13,0.03,0.51
-0.11,-0.01,0.49
-0.1,-0.05,0.47
-0.08,-0.06,0.45
-0.04,-0.07,0.44
0,-0.1,0.44
-0.03,-0.13,0.45
-0.06,-0.14,0.47
-0.05,-0.13,0.47
-0.02,-0.15,0.44
-0.01,-0.19,0.41
-0.01,-0.26,0.38
-0.02,-0.32,0.39
-0.04,-0.35,0.44
-0.03,-0.35,0.51
0.01,-0.39,0.58
0.09,-0.41,0.62
0.16,-0.42,0.6
0.15,-0.48,0.54
0.1,-0.55,0.5
0.1,-0.63,0.51
0.13,-0.69,0.56
0.13,-0.73,0.62
0.14,-0.67,0.68
0.12,-0.73,0.78
0.1,-0.87,0.78
0.1,-0.87,0.73
0.08,-0.94,0.73
0.04,-1.11,0.82
0.09,-1.19,0.91
0.15,-1.18,0.97
0.18,-1.16,1.01
0.19,-1.14,1.01
0.16,-1.11,0.96
0.15,-1.06,0.9
0.11,-1.05,0.89
0.04,-1.15,0.99
0.06,-1.27,1.09
0.1,-1.33,1.1
0.08,-1.33,1.08
0.1,-1.28,1.07
0.18,-1.19,1.07
0.19,-1.11,1.03
0.15,-1.05,0.97
0.13,-1.01,0.9
0.12,-1.04,0.9
0.13,-1.13,0.96
0.15,-1.22,0.98
0.14,-1.28,0.97
0.13,-1.29,0.95
0.17,-1.23,0.89
0.17,-1.1,0.83
0.15,-1.03,0.81
0.14,-0.99,0.78
0.14,-0.97,0.74
0.14,-0.99,0.72
0.18,-1.02,0.7
0.19,-1.04,0.69
0.21,-1.04,0.69
0.26,-1.02,0.67
0.29,-0.99,0.65
0.28,-0.97,0.62
0.3,-0.96,0.61
0.32,-0.95,0.59
0.31,-0.95,0.56
0.28,-0.95,0.53
0.28,-0.96,0.52
0.29,-0.97,0.53
0.27,-0.98,0.53
0.27,-0.98,0.53
0.27,-0.98,0.53
0.26,-0.99,0.52
0.28,-0.99,0.49
0.3,-0.98,0.47
0.3,-0.99,0.45
0.32,-0.99,0.43
0.33,-0.98,0.41
0.33,-0.98,0.39
0.32,-0.98,0.38
0.31,-1,0.37
0.29,-0.99,0.37
0.27,-0.98,0.35
0.25,-0.96,0.33
0.25,-0.97,0.31
0.25,-0.96,0.29
0.28,-0.97,0.25
0.3,-0.95,0.25
0.27,-0.89,0.27
0.28,-0.9,0.26
0.29,-0.9,0.25
0.3,-0.9,0.23
0.31,-0.89,0.22
0.31,-0.9,0.22
0.31,-0.89,0.23
0.3,-0.89,0.24
0.29,-0.89,0.24
0.29,-0.89,0.24
0.3,-0.89,0.23
0.31,-0.9,0.24
0.31,-0.91,0.26
0.31,-0.93,0.28
0.3,-0.94,0.32
0.29,-0.95,0.36
0.29,-0.98,0.4
0.24,-1,0.42
0.2,-1,0.47
0.16,-1,0.52
0.12,-1.01,0.57
0.04,-1.02,0.62
-0.07,-1.07,0.66
-0.14,-1.11,0.71
-0.16,-1.14,0.77
-0.17,-1.16,0.82
-0.19,-1.13,0.84
-0.19,-1.11,0.86
-0.16,-1.1,0.86
-0.14,-1.1,0.87
-0.11,-1.12,0.91
-0.08,-1.16,0.98
-0.05,-1.21,1.06
-0.04,-1.26,1.1
-0.07,-1.29,1.13
-0.13,-1.31,1.15
-0.16,-1.32,1.13
-0.17,-1.34,1.12
-0.18,-1.37,1.11
-0.18,-1.41,1.11
-0.15,-1.44,1.1
-0.12,-1.48,1.08
-0.08,-1.55,1.01
-0.02,-1.54,0.99
0.02,-1.52,0.98
0.05,-1.58,0.91
0.06,-1.47,0.92
0.04,-1.31,0.94
0.05,-1.37,0.86
0.07,-1.45,0.79
0.08,-1.44,0.75
0.1,-1.38,0.73
0.12,-1.3,0.7
0.17,-1.24,0.66
0.2,-1.19,0.62
0.21,-1.14,0.58
0.19,-1.09,0.55
0.16,-1.04,0.52
0.14,-0.96,0.52
0.14,-0.91,0.55
0.14,-0.86,0.54
0.14,-0.8,0.51
0.13,-0.72,0.46
0.13,-0.62,0.45
0.1,-0.55,0.45
0.08,-0.51,0.42
0.07,-0.49,0.42
0.06,-0.47,0.41
0.05,-0.44,0.42
0.07,-0.34,0.38
0.05,-0.24,0.35
-0.02,-0.15,0.34
-0.06,-0.08,0.32
-0.06,-0.03,0.32
-0.05,-0.05,0.35
-0.05,-0.06,0.36
-0.05,-0.05,0.36
-0.04,-0.03,0.32
-0.06,-0.01,0.29
-0.1,0.01,0.3
-0.11,0.07,0.33
-0.11,0.06,0.34
-0.11,0.07,0.37
-0.12,0.12,0.4
-0.13,0.11,0.41
-0.17,0.08,0.4
-0.19,0.06,0.4
-0.21,0.05,0.43
-0.22,0.05,0.44
-0.22,0.04,0.45
-0.23,0.03,0.46
-0.22,0.02,0.48
-0.23,0.03,0.49
-0.24,0.04,0.49
-0.25,0.03,0.5
-0.25,0.02,0.5
-0.24,-0.01,0.51
-0.24,-0.04,0.5
-0.23,-0.06,0.47
-0.22,-0.07,0.44
-0.21,-0.08,0.43
-0.19,-0.09,0.44
-0.17,-0.09,0.44
-0.15,-0.1,0.46
-0.14,-0.15,0.48
-0.14,-0.23,0.5
-0.14,-0.28,0.49
-0.13,-0.31,0.46
-0.1,-0.31,0.46
-0.09,-0.33,0.47
-0.08,-0.36,0.5
-0.05,-0.38,0.53
-0.01,-0.43,0.54
-0.01,-0.5,0.55
-0.02,-0.55,0.6
-0.01,-0.6,0.65
0,-0.65,0.69
-0.01,-0.68,0.7
-0.03,-0.71,0.7
-0.04,-0.75,0.69
-0.05,-0.77,0.78
-0.01,-0.83,0.83
0.03,-0.89,0.84
0.01,-0.96,0.83
0.02,-0.99,0.81
0.04,-0.94,0.78
-0.01,-0.92,0.75
-0.07,-0.98,0.79
-0.07,-1,0.88
-0.03,-1.03,0.92
0.02,-1.08,0.91
0.05,-1.15,0.87
0.07,-1.17,0.85
0.12,-1.12,0.86
0.09,-1.09,0.85
0.05,-1.07,0.83
0.04,-1.1,0.85
0.04,-1.14,0.9
0.08,-1.14,0.91
0.13,-1.14,0.91
0.16,-1.19,0.91
0.17,-1.24,0.89
0.17,-1.25,0.84
0.18,-1.16,0.81
0.19,-1.08,0.79
0.17,-1.08,0.77
0.18,-1.06,0.84
0.21,-1.08,0.83
0.23,-1.11,0.79
0.24,-1.14,0.76
0.25,-1.17,0.73
0.27,-1.15,0.72
0.28,-1.15,0.7
0.27,-1.17,0.68
0.25,-1.14,0.69
0.28,-1.11,0.71
0.25,-1.11,0.72
0.22,-1.1,0.75
0.24,-1.06,0.74
0.21,-1.05,0.73
0.18,-1.06,0.73
0.17,-1.04,0.74
0.2,-1.01,0.73
0.2,-1.03,0.71
0.18,-1.04,0.69
0.2,-1.01,0.67
0.24,-1.01,0.64
0.28,-0.99,0.61
0.3,-0.98,0.59
0.28,-0.94,0.23
0.28,-0.93,0.21
0.27,-0.92,0.2
0.26,-0.92,0.19
0.25,-0.92,0.19
0.25,-0.91,0.2
0.25,-0.91,0.21
0.25,-0.91,0.21
0.26,-0.91,0.22
0.26,-0.9,0.24
0.26,-0.9,0.25
0.26,-0.91,0.28
0.24,-0.92,0.32
0.24,-0.93,0.34
0.24,-0.94,0.37
0.22,-0.95,0.53
0.18,-1,0.6
0.13,-1.04,0.63
0.08,-1.13,0.64
0,-1.07,0.72
-0.08,-0.99,0.78
-0.13,-1.07,0.82
-0.13,-1.12,0.91
-0.18,-1.12,0.98
-0.21,-1.12,1.04
-0.23,-1.16,1.07
-0.26,-1.18,1.04
-0.31,-1.2,1.02
-0.33,-1.22,1.03
-0.28,-1.23,1.07
-0.25,-1.28,1.13
-0.27,-1.33,1.16
-0.31,-1.35,1.15
-0.3,-1.39,1.08
-0.31,-1.42,1.03
-0.3,-1.42,1
-0.25,-1.42,1.03
-0.22,-1.42,1.06
-0.19,-1.47,1.06
-0.15,-1.51,1.05
-0.11,-1.54,1
-0.12,-1.54,0.94
-0.09,-1.49,0.84
-0.09,-1.43,0.84
-0.12,-1.38,0.84
-0.12,-1.37,0.83
-0.1,-1.36,0.8
-0.08,-1.33,0.75
-0.07,-1.31,0.71
-0.06,-1.29,0.7
-0.04,-1.24,0.7
-0.03,-1.18,0.71
-0.02,-1.09,0.69
-0.04,-1,0.65
-0.02,-0.89,0.59
0,-0.84,0.55
0.01,-0.85,0.55
0,-0.84,0.55
0.02,-0.79,0.54
0.04,-0.71,0.53
0.04,-0.62,0.51
0.02,-0.54,0.48
0,-0.45,0.45
0.01,-0.41,0.41
0.04,-0.42,0.4
0.07,-0.42,0.39
0.06,-0.39,0.36
0.04,-0.29,0.36
0.05,-0.11,0.36
0.03,-0.05,0.38
0.01,0.01,0.39
0,0.03,0.35
0.06,0.04,0.3
0.05,0.03,0.28
-0.02,-0.02,0.29
-0.04,0.02,0.29
-0.03,0.09,0.3
-0.04,0.11,0.33
-0.08,0.15,0.37
-0.08,0.18,0.39
-0.08,0.16,0.39
-0.12,0.17,0.4
-0.13,0.19,0.41
-0.13,0.18,0.4
-0.14,0.18,0.41
-0.16,0.16,0.41
-0.18,0.15,0.41
-0.19,0.14,0.42
-0.2,0.14,0.44
-0.21,0.14,0.46
-0.2,0.14,0.48
-0.19,0.14,0.49
-0.19,0.11,0.5
-0.18,0.1,0.48
-0.18,0.11,0.45
-0.12,0.1,0.44
-0.11,0.07,0.44
-0.08,0.06,0.44
-0.05,0.01,0.44
-0.04,-0.05,0.45
-0.04,-0.08,0.47
-0.04,-0.1,0.5
-0.03,-0.12,0.53
-0.02,-0.12,0.53
-0.01,-0.13,0.51
-0.01,-0.16,0.49
0,-0.19,0.45
0.01,-0.28,0.46
0.01,-0.39,0.5
0.04,-0.44,0.55
0.09,-0.44,0.57
0.12,-0.45,0.58
0.11,-0.48,0.56
0.1,-0.49,0.54
0.1,-0.53,0.53
0.06,-0.65,0.59
0.02,-0.79,0.68
0.05,-0.76,0.72
0.09,-0.79,0.72
0.09,-0.9,0.75
0.11,-0.89,0.71
0.07,-0.92,0.69
0.06,-0.97,0.75
0.04,-1.06,0.8
0.07,-1.09,0.85
0.1,-1.09,0.87
0.12,-1.05,0.91
0.15,-1.08,0.92
0.13,-1.2,0.85
0.1,-1.23,0.84
0.07,-1.26,0.91
0.05,-1.29,0.96
0.05,-1.25,0.97
0.06,-1.23,0.96
0.08,-1.23,0.93
0.09,-1.24,0.9
0.09,-1.23,0.86
0.09,-1.19,0.84
0.09,-1.19,0.88
0.09,-1.24,0.97
0.11,-1.28,1.02
0.13,-1.29,1.01
0.14,-1.3,0.98
0.14,-1.35,0.95
0.2,-1.23,0.95
0.21,-1.16,0.92
0.15,-1.16,0.85
0.12,-1.17,0.87
0.11,-1.19,0.89
0.13,-1.19,0.9
0.16,-1.18,0.87
0.17,-1.18,0.83
0.2,-1.12,0.8
0.21,-1.08,0.78
0.21,-1.05,0.75
0.21,-1.03,0.71
0.23,-1.01,0.68
0.24,-0.98,0.65
0.22,-0.97,0.64
0.23,-0.96,0.64
0.24,-0.97,0.62
0.26,-0.98,0.59
0.26,-0.98,0.58
0.28,-0.97,0.54
0.27,-0.99,0.5
0.26,-1,0.53
0.22,-0.99,0.6
0.14,-0.99,0.65
0.09,-0.98,0.64
0.11,-0.98,0.58
0.16,-0.99,0.51
0.21,-0.97,0.45
0.24,-0.97,0.37
0.26,-0.98,0.34
0.25,-0.97,0.31
0.28,-0.96,0.27
0.3,-0.95,0.23
0.31,-0.95,0.21
0.31,-0.94,0.2
0.3,-0.93,0.18
0.28,-0.94,0.17
0.29,-0.94,0.16
0.29,-0.94,0.15
0.28,-0.94,0.16
0.26,-0.94,0.18
0.25,-0.94,0.2
0.24,-0.93,0.21
0.24,-0.93,0.23
0.23,-0.94,0.25
0.22,-0.95,0.29
0.21,-0.96,0.35
0.18,-0.98,0.41
0.16,-1,0.44
0.15,-1.02,0.43
0.19,-1.08,0.46
0.19,-1.01,0.58
0.09,-1.01,0.63
0.01,-1.07,0.7
-0.05,-1.09,0.82
-0.22,-1.15,0.84
-0.24,-1.14,0.89
-0.25,-1.08,0.99
-0.36,-1.1,1.05
-0.39,-1.1,1.09
-0.43,-1.13,1.08
-0.51,-1.21,1.05
-0.49,-1.28,1.06
-0.51,-1.36,1.09
-0.5,-1.44,1.11
-0.44,-1.49,1.11
-0.42,-1.52,1.12
-0.38,-1.52,1.11
-0.33,-1.51,1.07
-0.28,-1.51,1.05
-0.2,-1.53,1.06
-0.15,-1.55,1.07
-0.16,-1.58,1.05
-0.23,-1.61,1
-0.29,-1.61,0.94
-0.26,-1.58,0.89
-0.24,-1.56,0.89
-0.19,-1.53,0.87
-0.15,-1.49,0.84
-0.13,-1.46,0.81
-0.08,-1.43,0.7
0.01,-1.35,0.65
0.06,-1.3,0.59
0.09,-1.23,0.53
0.07,-1.16,0.51
0.08,-1.09,0.52
0.1,-1.01,0.53
0.11,-0.93,0.54
0.09,-0.87,0.53
0.1,-0.81,0.51
0.13,-0.73,0.47
0.13,-0.65,0.46
0.12,-0.6,0.45
0.09,-0.56,0.46
0.03,-0.54,0.44
-0.01,-0.47,0.4
-0.01,-0.35,0.37
0.03,-0.26,0.34
0.05,-0.25,0.32
0.08,-0.26,0.3
0.09,-0.24,0.3
0.12,-0.16,0.3
0.11,-0.06,0.29
0.09,-0.02,0.27
0.08,-0.01,0.24
0.06,0.02,0.25
0.06,0.07,0.31
0.03,0.09,0.33
0.02,0.1,0.33
-0.01,0.09,0.33
-0.06,0.12,0.35
-0.08,0.14,0.37
-0.09,0.14,0.39
-0.1,0.16,0.42
-0.1,0.17,0.43
-0.11,0.15,0.43
-0.14,0.12,0.41
-0.17,0.1,0.41
-0.18,0.08,0.41
-0.19,0.09,0.42
-0.2,0.1,0.44
-0.2,0.11,0.47
-0.21,0.1,0.51
-0.21,0.08,0.54
-0.22,0.07,0.56
-0.22,0.06,0.55
-0.22,0.03,0.52
-0.21,0,0.49
-0.21,-0.02,0.47
-0.19,-0.03,0.46
-0.15,-0.03,0.46
-0.12,-0.05,0.49
-0.1,-0.1,0.54
-0.03,-0.19,0.52
-0.02,-0.23,0.5
-0.02,-0.25,0.49
-0.04,-0.31,0.49
-0.07,-0.33,0.52
-0.04,-0.34,0.54
0.02,-0.35,0.53
0.03,-0.38,0.55
0,-0.43,0.59
0,-0.49,0.6
0.01,-0.54,0.58
-0.02,-0.58,0.59
-0.06,-0.62,0.66
-0.03,-0.55,0.75
0.03,-0.61,0.76
0.05,-0.77,0.75
0.06,-0.78,0.77
0.08,-0.78,0.76
0.1,-0.82,0.73
0.06,-0.87,0.74
0.09,-0.88,0.81
0.11,-0.91,0.81
0.13,-0.97,0.77
0.17,-1.03,0.76
0.16,-1.1,0.78
0.18,-1.14,0.83
0.15,-1.03,1.06
0.14,-1,1.08
0.14,-1.08,1.02
0.15,-1.14,0.95
0.18,-1.16,0.9
0.16,-1.24,0.85
0.16,-1.2,0.86
0.13,-1.21,0.87
0.1,-1.27,0.91
0.11,-1.22,1.02
0.16,-1.16,1.04
0.2,-1.1,1.04
0.22,-1.11,1.03
0.21,-1.15,0.98
0.18,-1.18,0.9
0.16,-1.19,0.84
0.15,-1.18,0.79
0.13,-1.17,0.78
0.11,-1.13,0.82
0.08,-1.1,0.89
0.09,-1.08,0.93
0.12,-1.07,0.92
0.13,-1.09,0.89
0.12,-1.11,0.86
0.12,-1.12,0.82
0.13,-1.11,0.78
0.14,-1.1,0.72
0.16,-1.09,0.69
0.16,-1.09,0.65
0.19,-1.07,0.63
0.22,-1.03,0.63
0.17,-1.04,0.62
0.17,-1.04,0.59
0.19,-1.03,0.55
0.28,-1.05,0.54
0.28,-1.03,0.51
0.25,-1.03,0.48
0.25,-1,0.49
0.2,-0.95,0.49
0.17,-0.96,0.47
0.12,-0.96,0.46
0.11,-0.96,0.43
0.12,-0.97,0.41
0.13,-0.96,0.4
0.12,-0.96,0.4
0.13,-0.95,0.38
0.14,-0.95,0.36
0.16,-0.95,0.35
0.18,-0.94,0.32
0.2,-0.93,0.31
0.2,-0.91,0.29
0.21,-0.9,0.28
0.24,-0.91,0.26
0.27,-0.91,0.25
0.28,-0.92,0.25
0.29,-0.94,0.24
0.3,-0.93,0.24
0.3,-0.93,0.25
0.31,-0.94,0.24
0.32,-0.94,0.23
0.33,-0.93,0.23
0.35,-0.93,0.23
0.36,-0.92,0.24
0.36,-0.91,0.24
0.36,-0.91,0.24
0.35,-0.92,0.26
0.34,-0.92,0.29
0.34,-0.92,0.3
0.33,-0.94,0.33
0.32,-0.95,0.34
0.31,-0.96,0.35
0.29,-0.97,0.37
0.26,-0.97,0.41
0.24,-0.97,0.44
0.22,-0.97,0.46
0.18,-0.97,0.51
0.15,-0.99,0.56
0.14,-1.1,0.57
0.04,-1,0.61
0.01,-1.06,0.6
-0.06,-1.06,0.65
-0.11,-1.04,0.76
-0.13,-1.06,0.81
-0.14,-1.1,0.86
-0.16,-1.1,0.96
-0.14,-1.11,1.03
-0.18,-1.13,1.02
-0.19,-1.17,0.99
-0.25,-1.19,1
-0.35,-1.22,1.04
-0.37,-1.29,1.07
-0.39,-1.34,1.1
-0.4,-1.4,1.13
-0.4,-1.45,1.13
-0.38,-1.47,1.13
-0.34,-1.48,1.12
-0.29,-1.49,1.13
-0.26,-1.52,1.13
-0.23,-1.55,1.12
-0.23,-1.59,1.08
-0.22,-1.63,1.04
-0.23,-1.65,1
-0.24,-1.64,0.97
-0.26,-1.63,0.92
-0.23,-1.53,0.88
-0.12,-1.49,0.87
-0.09,-1.45,0.85
-0.05,-1.42,0.81
-0.02,-1.4,0.73
-0.01,-1.37,0.64
0.01,-1.3,0.56
0.03,-1.21,0.54
0.06,-1.13,0.55
0.09,-1.07,0.55
0.09,-1.03,0.56
0.08,-0.99,0.57
0.12,-0.92,0.53
0.15,-0.84,0.47
0.14,-0.76,0.43
0.18,-0.67,0.39
0.2,-0.59,0.39
0.17,-0.53,0.42
0.15,-0.51,0.46
0.12,-0.5,0.47
0.09,-0.44,0.46
0.09,-0.37,0.4
0.05,-0.26,0.37
0.06,-0.18,0.38
0.1,-0.2,0.38
0.05,-0.19,0.36
0.02,-0.14,0.37
-0.03,-0.03,0.39
-0.04,0.01,0.41
-0.05,0.03,0.41
-0.05,0.08,0.39
-0.06,0.12,0.37
-0.05,0.13,0.36
-0.05,0.1,0.36
-0.1,0.05,0.36
-0.1,0.06,0.35
-0.09,0.13,0.33
-0.11,0.18,0.33
-0.12,0.23,0.35
-0.11,0.24,0.37
-0.1,0.19,0.36
-0.09,0.13,0.34
-0.12,0.11,0.31
-0.14,0.11,0.31
-0.14,0.14,0.33
-0.14,0.17,0.36
-0.14,0.17,0.4
-0.15,0.16,0.42
-0.17,0.15,0.43
-0.18,0.13,0.44
-0.17,0.09,0.44
-0.15,0.06,0.44
-0.15,0.05,0.49
-0.12,0.02,0.52
-0.1,-0.01,0.52
-0.09,-0.05,0.5
-0.1,-0.09,0.49
-0.09,-0.12,0.49
-0.07,-0.15,0.52
-0.06,-0.19,0.55
-0.04,-0.2,0.56
-0.06,-0.26,0.55
-0.06,-0.28,0.52
-0.02,-0.27,0.5
-0.01,-0.34,0.49
0,-0.42,0.53
0.01,-0.47,0.6
0.06,-0.5,0.64
0.1,-0.5,0.65
0.1,-0.51,0.64
0.1,-0.56,0.62
0.1,-0.58,0.61
0.1,-0.67,0.67
0.11,-0.77,0.77
0.12,-0.77,0.83
0.12,-0.76,0.82
0.08,-0.8,0.78
0.05,-0.86,0.72
0.06,-0.91,0.71
0.09,-0.92,0.77
0.11,-1.04,0.84
0.14,-1.12,0.87
0.19,-1.14,0.88
0.2,-1.15,0.88
0.17,-1.18,0.87
0.16,-1.13,0.86
0.14,-1.05,0.84
0.11,-1.15,0.78
0.1,-1.24,0.82
0.12,-1.2,0.89
0.15,-1.24,0.92
0.17,-1.28,0.95
0.15,-1.24,0.97
0.1,-1.2,0.95
0.06,-1.2,0.9
0.05,-1.19,0.88
0.05,-1.23,0.87
0.07,-1.29,0.87
0.09,-1.33,0.87
0.11,-1.32,0.87
0.15,-1.27,0.88
0.18,-1.23,0.87
0.19,-1.18,0.86
0.18,-1.13,0.86
0.18,-1.09,0.8
0.15,-1.07,0.8
0.13,-1.1,0.82
0.15,-1.1,0.83
0.18,-1.09,0.83
0.18,-1.08,0.82
0.2,-1.08,0.82
0.23,-1.06,0.8
0.24,-1.08,0.75
0.26,-1.07,0.72
0.26,-1.04,0.69
0.27,-1.02,0.66
0.31,-1.06,0.62
0.27,-1.08,0.65
0.19,-1.04,0.74
0.15,-1.02,0.79
0.03,-0.98,0.78
-0.03,-0.98,0.73
-0.02,-1.06,0.65
-0.04,-1.01,0.6
0.03,-0.96,0.54
0.12,-0.99,0.45
0.15,-1,0.39
0.2,-1,0.33
0.24,-0.99,0.28
0.26,-0.97,0.21
0.27,-0.95,0.13
0.28,-0.93,0.1
0.29,-0.92,0.09
0.3,-0.91,0.07
0.29,-0.92,0.07
0.29,-0.92,0.06
0.29,-0.92,0.06
0.29,-0.93,0.06
0.29,-0.93,0.07
0.3,-0.93,0.08
0.3,-0.93,0.09
0.3,-0.94,0.1
0.3,-0.93,0.1
0.31,-0.93,0.12
0.32,-0.93,0.15
0.32,-0.93,0.18
0.31,-0.94,0.21
0.3,-0.95,0.24
0.3,-0.96,0.27
0.29,-0.97,0.3
0.29,-0.98,0.32
0.29,-0.99,0.35
0.28,-1,0.37
0.27,-1.01,0.4
0.24,-1,0.44
0.21,-1,0.47
0.19,-0.99,0.49
0.17,-1,0.51
0.13,-0.99,0.55
0.1,-0.99,0.57
0.08,-1.01,0.6
0.08,-1.05,0.64
0.08,-1.11,0.67
0.04,-1.13,0.69
-0.05,-1.11,0.73
-0.13,-1.08,0.8
-0.19,-1.07,0.93
-0.19,-1.08,1.05
-0.2,-1.11,1.08
-0.27,-1.15,1.08
-0.3,-1.18,1.07
-0.3,-1.22,1.06
-0.31,-1.29,1.11
-0.33,-1.36,1.16
-0.33,-1.41,1.14
-0.32,-1.45,1.1
-0.32,-1.45,1.1
-0.3,-1.46,1.09
-0.23,-1.48,1.06
-0.18,-1.52,1.03
-0.16,-1.55,1.03
-0.12,-1.6,1.02
-0.1,-1.62,1
-0.07,-1.56,0.92
-0.07,-1.51,0.89
-0.08,-1.42,0.86
-0.07,-1.4,0.82
-0.05,-1.41,0.8
-0.02,-1.38,0.77
0.01,-1.36,0.75
0.06,-1.35,0.74
0.08,-1.31,0.73
0.05,-1.27,0.76
0.07,-1.25,0.75
0.12,-1.19,0.69
0.07,-1.12,0.66
0.01,-1.09,0.63
0.01,-1.05,0.62
0.02,-0.98,0.61
0.01,-0.91,0.62
0.01,-0.85,0.6
0.03,-0.79,0.57
0.04,-0.73,0.56
0.02,-0.69,0.55
-0.01,-0.67,0.5
0,-0.59,0.43
0,-0.49,0.41
-0.02,-0.42,0.43
-0.03,-0.38,0.43
-0.04,-0.32,0.36
-0.04,-0.27,0.35
-0.05,-0.19,0.34
-0.02,-0.12,0.33
0.01,-0.07,0.31
0.01,-0.02,0.29
-0.04,0.1,0.31
-0.03,0.13,0.3
0.01,0,0.31
-0.01,-0.05,0.34
-0.01,0.07,0.34
0,0.19,0.35
0.01,0.27,0.36
0,0.27,0.39
-0.04,0.19,0.42
-0.05,0.1,0.41
-0.04,0.08,0.37
-0.04,0.12,0.37
-0.06,0.17,0.38
-0.08,0.22,0.37
-0.07,0.26,0.36
-0.05,0.25,0.38
-0.03,0.21,0.39
-0.02,0.18,0.4
-0.04,0.16,0.4
-0.06,0.17,0.38
-0.06,0.23,0.39
-0.03,0.21,0.4
-0.03,0.17,0.41
-0.02,0.13,0.41
0,0.07,0.39
0.01,0.01,0.36
0.01,-0.04,0.34
0.01,-0.03,0.35
0.03,0,0.4
0.06,-0.01,0.44
0.11,-0.02,0.46
0.13,-0.09,0.46
0.12,-0.19,0.42
0.11,-0.28,0.38
0.1,-0.38,0.36
0.08,-0.42,0.39
0.09,-0.37,0.5
0.14,-0.33,0.59
0.18,-0.34,0.62
0.2,-0.36,0.61
0.19,-0.46,0.56
0.19,-0.62,0.51
0.17,-0.77,0.55
0.16,-0.88,0.65
0.17,-0.86,0.72
0.21,-0.6,0.78
0.22,-0.78,0.7
0.21,-0.83,0.66
0.24,-0.79,0.63
0.27,-0.89,0.69
0.31,-1.04,0.81
0.37,-1.1,0.88
0.43,-1.1,0.87
0.43,-1.11,0.85
0.43,-1.14,0.82
0.4,-1.16,0.79
0.34,-1.17,0.75
0.32,-1.16,0.78
0.35,-1.18,0.86
0.41,-1.24,0.91
0.47,-1.33,0.93
0.48,-1.41,0.95
0.47,-1.46,0.94
0.45,-1.43,0.9
0.37,-1.38,0.85
0.3,-1.33,0.81
0.28,-1.27,0.82
0.31,-1.22,0.91
0.37,-1.18,0.99
0.4,-1.22,1.01
0.4,-1.29,1.01
0.34,-1.3,1.03
0.3,-1.23,1.01
0.21,-1.2,0.96
0.16,-1.19,0.92
0.15,-1.19,0.91
0.18,-1.21,0.91
0.23,-1.22,0.91
0.27,-1.22,0.9
0.3,-1.19,0.87
0.32,-1.14,0.85
0.34,-1.09,0.82
0.37,-1.08,0.79
0.34,-1.11,0.76
0.33,-1.08,0.77
0.41,-1.08,0.82
0.31,-1.2,0.99
0.01,-1,1.36
0.01,-0.86,1.3
0.01,-1.07,0.95
-0.13,-1.09,0.81
-0.06,-1,0.71
0.07,-0.95,0.61
0.17,-0.95,0.52
0.22,-0.92,0.44
0.26,-0.9,0.36
0.25,-0.93,0.31
0.26,-0.95,0.26
0.28,-0.92,0.16
0.26,-0.89,0.12
0.27,-0.91,0.1
0.27,-0.9,0.09
0.25,-0.88,0.08
0.25,-0.89,0.08
0.27,-0.9,0.08
0.28,-0.9,0.08
0.29,-0.89,0.07
0.3,-0.88,0.07
0.3,-0.88,0.06
0.32,-0.88,0.05
0.33,-0.88,0.05
0.35,-0.88,0.05
0.35,-0.88,0.05
0.36,-0.88,0.06
0.37,-0.89,0.07
0.36,-0.9,0.07
0.37,-0.91,0.08
0.38,-0.92,0.08
0.39,-0.94,0.11
0.41,-0.97,0.16
0.41,-0.98,0.21
0.39,-0.98,0.24
0.37,-0.98,0.26
0.36,-0.98,0.29
0.33,-1,0.38
0.35,-1,0.43
0.36,-1.01,0.49
0.36,-1.01,0.52
0.33,-1,0.53
0.29,-1,0.54
0.26,-1,0.54
0.21,-0.99,0.56
0.16,-0.97,0.62
0.16,-0.98,0.66
0.18,-1.01,0.67
0.17,-1.07,0.67
0.11,-1.1,0.66
0.01,-1.11,0.63
-0.14,-1.12,0.59
-0.23,-1.11,0.7
-0.22,-1.06,0.89
-0.26,-1.09,1.02
-0.38,-1.16,1.13
-0.4,-1.23,1.19
-0.46,-1.27,1.22
-0.5,-1.33,1.19
-0.49,-1.37,1.15
-0.53,-1.36,1.18
-0.48,-1.41,1.22
-0.45,-1.5,1.25
-0.45,-1.59,1.24
-0.44,-1.67,1.18
-0.43,-1.64,1.11
-0.41,-1.63,1.07
-0.35,-1.65,1.07
-0.31,-1.7,1.08
-0.25,-1.74,1.05
-0.15,-1.74,0.97
-0.09,-1.7,0.89
-0.1,-1.64,0.83
-0.08,-1.6,0.8
-0.03,-1.6,0.78
0,-1.6,0.78
0.02,-1.57,0.77
0.07,-1.52,0.7
0.08,-1.45,0.64
0.1,-1.38,0.57
0.12,-1.31,0.53
0.14,-1.24,0.51
0.18,-1.17,0.49
0.2,-1.09,0.45
0.19,-0.99,0.44
0.21,-0.88,0.43
0.24,-0.77,0.41
0.22,-0.69,0.39
0.19,-0.65,0.35
0.19,-0.65,0.28
0.19,-0.5,0.29
0.19,-0.42,0.27
0.18,-0.38,0.26
0.17,-0.3,0.26
0.14,-0.22,0.27
0.1,-0.16,0.29
0.1,-0.14,0.26
0.12,-0.09,0.22
0.11,0,0.24
0.07,0.02,0.26
0.06,0.03,0.26
0.03,0.07,0.25
0,0.14,0.24
-0.02,0.13,0.23
-0.04,0.04,0.21
-0.09,0.06,0.24
-0.09,0.11,0.26
-0.05,0.14,0.28
-0.06,0.15,0.29
-0.07,0.15,0.28
-0.09,0.14,0.26
-0.1,0.13,0.26
-0.1,0.09,0.27
-0.12,0.06,0.28
-0.13,0.05,0.29
-0.13,0.05,0.33
-0.13,0.04,0.34
-0.14,0.03,0.35
-0.12,0.03,0.35
-0.12,0,0.36
-0.12,-0.04,0.38
-0.11,-0.08,0.4
-0.1,-0.11,0.4
-0.1,-0.13,0.39
-0.09,-0.16,0.37
-0.07,-0.19,0.38
-0.06,-0.23,0.41
-0.06,-0.27,0.47
-0.04,-0.31,0.51
0,-0.36,0.51
0.03,-0.41,0.48
0.03,-0.46,0.46
0.03,-0.45,0.49
0.04,-0.49,0.52
0.07,-0.6,0.54
0.09,-0.67,0.54
0.12,-0.74,0.55
0.13,-0.78,0.59
0.17,-0.82,0.66
0.21,-0.78,0.74
0.15,-0.84,0.75
0.09,-1.01,0.74
0.12,-0.91,0.71
0.15,-1.03,0.78
0.22,-1.05,0.84
0.25,-1.1,0.86
0.26,-1.14,0.86
0.27,-1.15,0.83
0.24,-1.18,0.81
0.24,-1.19,0.88
0.28,-1.18,0.99
0.3,-1.19,1.02
0.31,-1.2,1
0.3,-1.24,0.97
0.3,-1.28,0.95
0.3,-1.3,0.94
0.32,-1.3,0.92
0.3,-1.31,0.91
0.26,-1.32,0.97
0.24,-1.27,1.02
0.26,-1.2,1.03
0.28,-1.17,1
0.31,-1.17,0.96
0.31,-1.2,0.91
0.31,-1.2,0.87
0.32,-1.18,0.85
0.34,-1.18,0.84
0.35,-1.19,0.85
0.33,-1.19,0.89
0.34,-1.01,0.72
0.32,-1.03,0.69
0.39,-1,0.67
0.39,-0.98,0.66
0.32,-1.04,0.66
0.33,-1.04,0.64
0.34,-1.03,0.61
0.3,-1.14,0.59
0.19,-1.15,0.67
0.08,-1.07,0.79
0.02,-1,0.83
0,-0.92,0.82
0.03,-0.95,0.74
0.13,-0.96,0.62
0.21,-0.94,0.51
0.26,-0.93,0.43
0.31,-0.93,0.37
0.34,-0.93,0.32
0.35,-0.94,0.29
0.35,-0.95,0.21
0.35,-0.94,0.19
0.33,-0.94,0.17
0.31,-0.94,0.16
0.3,-0.94,0.15
0.3,-0.93,0.15
0.3,-0.93,0.16
0.3,-0.92,0.17
0.31,-0.9,0.17
0.32,-0.89,0.16
0.32,-0.89,0.15
0.32,-0.88,0.15
0.33,-0.88,0.15
0.35,-0.89,0.15
0.36,-0.89,0.15
0.37,-0.9,0.16
0.37,-0.91,0.15
0.38,-0.9,0.14
0.38,-0.9,0.14
0.38,-0.91,0.14
0.37,-0.91,0.15
0.37,-0.92,0.16
0.37,-0.92,0.16
0.35,-0.93,0.19
0.34,-0.93,0.22
0.33,-0.93,0.24
0.34,-0.94,0.28
0.33,-0.95,0.32
0.32,-0.96,0.37
0.3,-0.97,0.43
0.3,-0.98,0.47
0.32,-1,0.47
0.28,-1.01,0.49
0.24,-1.03,0.51
0.18,-1.02,0.6
0.16,-1,0.72
0.11,-0.99,0.78
0.03,-0.98,0.88
-0.03,-1.02,0.94
-0.12,-1.01,0.95
-0.16,-0.97,0.92
-0.24,-0.97,0.93
-0.31,-0.97,0.98
-0.41,-1.03,1.07
-0.48,-1.11,1.15
-0.46,-1.17,1.19
-0.49,-1.23,1.18
-0.5,-1.27,1.17
-0.46,-1.3,1.16
-0.43,-1.33,1.14
-0.38,-1.36,1.12
-0.34,-1.41,1.1
-0.29,-1.52,1.09
-0.29,-1.56,1.09
-0.27,-1.53,1.07
-0.23,-1.5,1.04
-0.22,-1.5,1.03
-0.21,-1.52,1.01
-0.17,-1.54,0.97
-0.14,-1.52,0.94
-0.12,-1.49,0.9
-0.13,-1.46,0.86
-0.14,-1.42,0.81
-0.14,-1.39,0.76
-0.13,-1.37,0.73
-0.12,-1.37,0.71
-0.12,-1.36,0.69
-0.11,-1.33,0.68
-0.11,-1.27,0.69
-0.1,-1.19,0.69
-0.07,-1.1,0.67
-0.05,-1.01,0.63
-0.03,-0.95,0.6
0.01,-0.92,0.57
0,-0.93,0.52
0.02,-0.92,0.48
0.06,-0.86,0.49
0.1,-0.76,0.5
0.1,-0.67,0.48
0.1,-0.53,0.42
0.1,-0.48,0.4
0.08,-0.45,0.41
0.09,-0.44,0.44
0.11,-0.37,0.44
0.09,-0.24,0.41
0.1,-0.17,0.37
0.12,-0.15,0.35
0.09,-0.14,0.37
0.07,-0.1,0.36
0.07,0.01,0.38
0.07,0.05,0.39
0.06,0.04,0.37
0.02,0.05,0.36
0,0.07,0.36
0.02,0.17,0.35
0.03,0.2,0.35
0.04,0.12,0.35
0.04,0.1,0.34
0,0.13,0.35
-0.02,0.15,0.37
-0.04,0.15,0.38
-0.05,0.17,0.39
-0.07,0.18,0.41
-0.08,0.17,0.43
-0.09,0.15,0.44
-0.12,0.13,0.43
-0.14,0.12,0.43
-0.15,0.12,0.45
-0.16,0.12,0.47
-0.17,0.12,0.5
-0.18,0.11,0.52
-0.18,0.1,0.52
-0.17,0.08,0.5
-0.13,0.07,0.47
-0.1,0.06,0.46
-0.09,0.03,0.49
-0.07,-0.02,0.5
-0.06,-0.06,0.49
-0.05,-0.09,0.47
-0.06,-0.1,0.46
-0.06,-0.13,0.46
-0.06,-0.15,0.47
-0.05,-0.16,0.5
-0.03,-0.21,0.53
-0.03,-0.27,0.55
-0.02,-0.31,0.56
0,-0.34,0.55
-0.01,-0.4,0.55
-0.02,-0.43,0.58
0.01,-0.44,0.6
0.06,-0.37,0.66
0.05,-0.61,0.65
0.1,-0.62,0.64
0.13,-0.65,0.63
0.11,-0.73,0.64
0.09,-0.8,0.67
0.13,-0.73,0.71
0.19,-0.69,0.74
0.21,-0.77,0.78
0.26,-0.8,0.83
0.3,-0.85,0.84
0.29,-0.94,0.81
0.23,-1.03,0.8
0.18,-1.11,0.87
0.19,-1.13,0.94
0.21,-1.12,0.93
0.22,-1.1,0.91
0.25,-1.11,0.92
0.27,-1.14,0.91
0.26,-1.2,0.9
0.26,-1.23,0.99
0.3,-1.2,1.09
0.32,-1.15,1.07
0.28,-1.14,0.99
0.27,-1.16,0.93
0.28,-1.14,0.91
0.28,-1.15,0.9
0.25,-1.21,0.93
0.25,-1.21,0.98
0.25,-1.21,1.01
0.26,-1.19,0.99
0.26,-1.16,0.96
0.27,-1.14,0.94
0.29,-1.12,0.9
0.29,-1.1,0.85
0.29,-1.09,0.82
0.29,-1.08,0.84
0.28,-1.09,0.88
0.29,-1.1,0.87
0.29,-1.1,0.83
0.26,-1.1,0.79
0.25,-1.08,0.77
0.27,-1.01,0.77
0.28,-0.96,0.78
0.25,-0.97,0.77
0.26,-0.95,0.75
0.26,-0.93,0.72
0.29,-0.92,0.68
0.31,-0.91,0.65
0.32,-0.94,0.59
0.32,-0.94,0.59
0.33,-0.95,0.56
0.32,-0.96,0.51
0.32,-0.96,0.48
0.29,-0.96,0.47
0.27,-0.91,0.46
0.28,-0.83,0.46
0.25,-0.94,0.43
0.19,-1.06,0.46
0.14,-1.02,0.53
0.12,-0.95,0.55
0.13,-0.96,0.52
0.16,-0.97,0.46
0.2,-0.95,0.41
0.25,-0.93,0.38
0.28,-0.92,0.35
0.31,-0.92,0.32
0.31,-0.91,0.3
0.3,-0.91,0.29
0.3,-0.9,0.27
0.3,-0.9,0.26
0.3,-0.89,0.24
0.3,-0.89,0.23
0.31,-0.88,0.22
0.31,-0.88,0.21
0.32,-0.87,0.2
0.32,-0.87,0.2
0.33,-0.87,0.21
0.34,-0.87,0.22
0.35,-0.86,0.23
0.35,-0.86,0.23
0.36,-0.87,0.24
0.36,-0.87,0.25
0.36,-0.88,0.26
0.36,-0.89,0.27
0.35,-0.89,0.3
0.35,-0.9,0.32
0.35,-0.9,0.33
0.36,-0.9,0.35
0.36,-0.91,0.37
0.35,-0.91,0.39
0.33,-0.91,0.41
0.29,-0.94,0.42
0.27,-0.93,0.44
0.26,-0.91,0.47
0.25,-0.92,0.49
0.23,-0.94,0.51
0.22,-0.96,0.52
0.22,-0.97,0.52
0.22,-0.98,0.53
0.21,-0.99,0.55
0.23,-1.01,0.56
0.24,-1.02,0.56
0.22,-1.05,0.54
0.16,-1.09,0.59
0.14,-1.05,0.64
0.08,-1,0.68
-0.01,-1.05,0.68
-0.03,-1.14,0.69
-0.09,-1.12,0.74
-0.15,-1.15,0.75
-0.17,-1.15,0.76
-0.22,-1.12,0.77
-0.28,-1.08,0.82
-0.31,-1.04,0.91
-0.31,-1.05,0.95
-0.29,-1.04,0.94
-0.3,-1.04,0.94
-0.34,-1.08,0.95
-0.36,-1.14,0.97
-0.36,-1.2,0.99
-0.35,-1.28,0.98
-0.36,-1.37,0.97
-0.35,-1.43,0.98
-0.33,-1.47,0.97
-0.32,-1.51,0.97
-0.3,-1.54,0.97
-0.29,-1.55,0.94
-0.28,-1.55,0.92
-0.26,-1.55,0.88
-0.23,-1.56,0.83
-0.16,-1.52,0.82
-0.12,-1.49,0.79
-0.11,-1.49,0.77
-0.12,-1.5,0.79
-0.12,-1.53,0.78
-0.11,-1.55,0.75
-0.08,-1.55,0.7
-0.07,-1.5,0.66
-0.05,-1.4,0.65
-0.04,-1.29,0.65
-0.02,-1.21,0.65
0,-1.15,0.67
-0.03,-1.14,0.64
-0.05,-1.14,0.58
-0.03,-1.09,0.54
0.03,-0.99,0.5
0.06,-0.89,0.46
0.08,-0.82,0.42
0.09,-0.74,0.41
0.1,-0.65,0.42
0.11,-0.61,0.42
0.12,-0.6,0.41
0.12,-0.56,0.4
0.12,-0.48,0.37
0.12,-0.4,0.32
0.1,-0.27,0.31
0.08,-0.19,0.31
0.08,-0.13,0.33
0.06,-0.1,0.35
0.07,-0.11,0.31
0.08,-0.1,0.26
0,-0.1,0.19
-0.02,-0.11,0.16
0.04,-0.1,0.16
0.04,-0.05,0.16
0.03,0.02,0.18
0.02,0.01,0.22
0.01,0.01,0.24
0,0.03,0.25
-0.01,0.01,0.25
-0.02,-0.01,0.26
-0.02,-0.03,0.26
-0.03,-0.06,0.27
-0.05,-0.07,0.28
-0.06,-0.06,0.28
-0.08,-0.04,0.3
-0.11,-0.03,0.34
-0.12,-0.04,0.38
-0.13,-0.05,0.41
-0.15,-0.06,0.43
-0.14,-0.06,0.44
-0.13,-0.12,0.42
-0.13,-0.15,0.43
-0.11,-0.18,0.46
-0.08,-0.23,0.5
-0.06,-0.27,0.53
-0.02,-0.3,0.53
-0.01,-0.34,0.51
-0.03,-0.38,0.5
-0.01,-0.41,0.49
0.03,-0.41,0.51
0.07,-0.44,0.55
0.12,-0.5,0.59
0.13,-0.54,0.65
0.15,-0.56,0.7
0.16,-0.56,0.71
0.12,-0.58,0.66
0.07,-0.67,0.6
0.06,-0.76,0.55
0.12,-0.71,0.59
0.18,-0.77,0.64
0.24,-1,0.68
0.27,-1.12,0.72
0.25,-1.14,0.69
0.3,-1.26,0.6
0.26,-0.99,0.68
0.15,-0.89,0.76
0.17,-1.14,0.85
0.27,-1.22,0.82
0.26,-1.38,0.73
0.22,-1.41,0.69
0.2,-1.36,0.72
0.17,-1.28,0.73
0.13,-1.18,0.71
0.09,-1.23,0.74
0.1,-1.25,0.84
0.19,-1.23,0.88
0.26,-1.27,0.88
0.27,-1.32,0.88
0.25,-1.34,0.89
0.23,-1.31,0.84
0.22,-1.25,0.76
0.19,-1.18,0.69
0.16,-1.17,0.72
0.17,-1.21,0.81
0.21,-1.27,0.88
0.23,-1.33,0.92
0.24,-1.36,0.95
0.24,-1.36,0.97
0.24,-1.31,0.96
0.21,-1.24,0.94
0.18,-1.2,0.9
0.13,-1.19,0.83
0.07,-1.22,0.77
0.1,-1.2,0.76
0.14,-1.21,0.75
0.13,-1.21,0.78
0.06,-1.32,0.9
-0.36,-1.25,1.53
-0.98,-1.04,1.86
-0.74,-1.07,1.41
-0.14,-1.12,0.83
0.21,-1.14,0.44
0.37,-1.14,0.34
0.34,-1.12,0.39
0.44,-1.07,0.47
0.46,-1.01,0.39
0.37,-1.03,0.28
0.32,-1.07,0.21
0.28,-1.05,0.16
0.21,-1,0.14
0.13,-0.97,0.14
0.14,-0.96,0.14
0.16,-0.93,0.13
0.17,-0.9,0.12
0.19,-0.9,0.1
0.21,-0.88,0.1
0.23,-0.87,0.09
0.26,-0.88,0.08
0.29,-0.88,0.05
0.31,-0.89,0.05
0.33,-0.88,0.05
0.34,-0.88,0.05
0.34,-0.9,0.05
0.35,-0.91,0.05
0.35,-0.9,0.05
0.35,-0.91,0.06
0.33,-0.92,0.07
0.32,-0.92,0.07
0.32,-0.93,0.08
0.33,-0.94,0.08
0.33,-0.95,0.09
0.33,-0.96,0.1
0.33,-0.96,0.11
0.33,-0.95,0.12
0.33,-0.95,0.13
0.33,-0.95,0.13
0.33,-0.96,0.14
0.32,-0.96,0.14
0.31,-0.95,0.15
0.31,-0.95,0.17
0.31,-0.96,0.18
0.31,-0.96,0.19
0.3,-0.95,0.19
0.3,-0.94,0.2
0.28,-0.94,0.2
0.27,-0.93,0.21
0.26,-0.93,0.23
0.23,-0.95,0.27
0.17,-0.97,0.34
0.06,-0.98,0.44
-0.05,-0.96,0.52
-0.02,-0.96,0.52
0.15,-1,0.43
0.27,-1.01,0.33
0.31,-1.01,0.3
0.33,-1.01,0.3
0.34,-1.01,0.3
0.35,-1,0.29
0.36,-1.01,0.28
0.33,-1.02,0.3
0.31,-1.02,0.33
0.28,-1.03,0.33
0.21,-1.04,0.32
0.16,-1.04,0.32
0.14,-1.03,0.35
0.11,-1.04,0.39
0.06,-1.06,0.45
0.03,-1.08,0.5
0.01,-1.11,0.52
-0.02,-1.15,0.52
-0.04,-1.17,0.56
-0.12,-1.17,0.6
-0.1,-1.18,0.64
-0.04,-1.15,0.7
0.03,-1.13,0.77
0.05,-1.17,0.86
0.02,-1.21,0.92
-0.02,-1.24,0.93
-0.07,-1.27,0.9
-0.09,-1.29,0.86
-0.15,-1.3,0.84
-0.24,-1.32,0.87
-0.31,-1.31,0.94
-0.35,-1.32,0.98
-0.38,-1.35,1
-0.41,-1.39,1
-0.4,-1.45,0.98
-0.36,-1.49,0.94
-0.32,-1.5,0.9
-0.28,-1.51,0.91
-0.23,-1.53,0.9
-0.18,-1.54,0.86
-0.18,-1.54,0.83
-0.21,-1.53,0.83
-0.23,-1.51,0.81
-0.25,-1.5,0.8
-0.23,-1.47,0.77
-0.14,-1.35,0.74
-0.13,-1.31,0.72
-0.12,-1.29,0.7
-0.08,-1.25,0.68
-0.03,-1.23,0.65
-0.02,-1.22,0.62
-0.03,-1.18,0.58
0,-1.12,0.55
0,-1.06,0.53
0.02,-0.99,0.49
0.08,-0.91,0.45
0.1,-0.86,0.45
0.11,-0.82,0.45
0.13,-0.77,0.44
0.16,-0.69,0.44
0.17,-0.59,0.43
0.15,-0.52,0.36
0.16,-0.48,0.31
0.16,-0.42,0.32
0.16,-0.35,0.32
0.19,-0.3,0.3
0.17,-0.24,0.31
0.14,-0.19,0.3
0.09,-0.19,0.28
0.11,-0.18,0.29
0.16,-0.11,0.29
0.14,-0.06,0.32
0.11,0.01,0.34
0.05,0.04,0.38
0,0.07,0.41
-0.04,0.1,0.42
-0.07,0.07,0.43
-0.07,0.03,0.43
-0.08,0.05,0.44
-0.1,0.1,0.44
-0.13,0.14,0.44
-0.16,0.17,0.47
-0.18,0.18,0.51
-0.19,0.17,0.54
-0.18,0.15,0.55
-0.19,0.13,0.55
-0.19,0.14,0.57
-0.19,0.15,0.58
-0.2,0.16,0.6
-0.21,0.16,0.64
-0.21,0.13,0.68
-0.21,0.11,0.71
-0.23,0.1,0.74
-0.22,0.1,0.76
-0.22,0.1,0.78
-0.22,0.09,0.8
-0.22,0.07,0.83
-0.21,0.04,0.82
-0.2,0.02,0.8
-0.2,0.01,0.77
-0.19,0.01,0.74
-0.16,0.01,0.69
-0.12,0.03,0.63
-0.08,0.06,0.58
-0.04,0.05,0.55
-0.01,0.02,0.52
0.01,-0.03,0.5
0.02,-0.07,0.48
0.04,-0.11,0.46
0.05,-0.18,0.44
0.05,-0.22,0.42
0.07,-0.24,0.4
0.09,-0.25,0.4
0.07,-0.22,0.42
0.08,-0.27,0.46
0.09,-0.41,0.53
0.07,-0.48,0.62
0.06,-0.51,0.62
0.05,-0.5,0.57
0.04,-0.47,0.52
0.05,-0.45,0.52
0.06,-0.44,0.55
0.04,-0.47,0.59
0.08,-0.65,0.67
0.09,-0.75,0.71
0.08,-0.85,0.73
0.1,-0.86,0.72
0.13,-0.83,0.7
0.1,-0.87,0.68
0.1,-0.93,0.71
0.15,-0.96,0.77
0.22,-0.98,0.83
0.25,-1.08,0.9
0.22,-1.2,0.96
0.21,-1.24,0.99
0.21,-1.2,1
0.19,-1.16,0.97
0.18,-1.14,0.92
0.21,-1.11,0.87
0.23,-1.09,0.86
0.22,-1.13,0.85
0.2,-1.19,0.9
0.21,-1.24,0.97
0.21,-1.25,1.03
0.22,-1.23,1.04
0.22,-1.21,1.05
0.22,-1.21,1.04
0.22,-1.2,0.98
0.21,-1.2,0.91
0.17,-1.19,0.87
0.22,-1.18,0.93
0.22,-1.22,0.96
0.21,-1.25,0.96
0.23,-1.26,0.95
0.24,-1.25,0.93
0.21,-1.25,0.91
0.26,-1.18,0.9
0.26,-1.11,0.87
0.22,-1.08,0.82
0.22,-1.02,0.77
0.23,-0.97,0.73
0.3,-0.91,0.7
0.3,-0.89,0.67
0.27,-0.92,0.64
0.25,-0.94,0.61
0.28,-0.92,0.59
0.31,-0.92,0.55
0.31,-0.97,0.52
0.42,-0.84,0.56
0.36,-0.88,0.57
0.14,-1.21,0.61
0.1,-1.14,0.81
-0.02,-1.01,0.87
-0.04,-1,0.79
0.16,-0.96,0.68
0.27,-0.94,0.46
0.26,-0.87,0.43
0.33,-0.91,0.38
0.38,-0.95,0.34
0.37,-0.91,0.33
0.42,-0.92,0.29
0.42,-0.92,0.26
0.36,-0.94,0.22
0.32,-0.94,0.2
0.31,-0.92,0.2
0.29,-0.92,0.19
0.28,-0.93,0.19
0.29,-0.93,0.18
0.27,-0.91,0.2
0.26,-0.91,0.19
0.29,-0.92,0.16
0.3,-0.92,0.16
0.3,-0.92,0.15
0.31,-0.93,0.14
0.32,-0.94,0.14
0.33,-0.95,0.14
0.33,-0.96,0.14
0.33,-0.99,0.15
0.35,-1.01,0.16
0.35,-1.02,0.17
0.34,-1.01,0.18
0.32,-0.99,0.23
0.31,-0.94,0.25
0.3,-0.91,0.26
0.3,-0.91,0.27
0.3,-0.91,0.29
0.3,-0.92,0.34
0.26,-0.94,0.4
0.24,-0.98,0.43
0.23,-1.02,0.46
0.19,-1.01,0.52
0.13,-1.02,0.56
0.05,-1.03,0.54
-0.01,-1.01,0.51
-0.05,-1.02,0.57
-0.02,-1.01,0.68
-0.03,-1.02,0.79
-0.14,-1.04,0.87
-0.17,-1.04,0.9
-0.21,-1.05,0.92
-0.22,-1.07,0.97
-0.24,-1.15,1.04
-0.3,-1.27,1.07
-0.42,-1.33,1.06
-0.47,-1.31,1.01
-0.48,-1.27,1.01
-0.49,-1.24,1.09
-0.42,-1.24,1.16
-0.44,-1.39,1.15
-0.46,-1.47,1.14
-0.47,-1.54,1.13
-0.45,-1.58,1.17
-0.44,-1.6,1.19
-0.42,-1.59,1.17
-0.38,-1.55,1.14
-0.36,-1.54,1.13
-0.33,-1.57,1.11
-0.24,-1.61,1.09
-0.17,-1.65,1.06
-0.13,-1.65,1.03
-0.12,-1.59,1.02
-0.09,-1.49,0.99
-0.07,-1.38,0.93
-0.09,-1.29,0.85
-0.03,-1.26,0.79
0,-1.28,0.74
0,-1.28,0.7
0,-1.23,0.65
0,-1.17,0.62
0.01,-1.09,0.61
0.03,-1.03,0.55
0.07,-0.95,0.5
0.09,-0.89,0.49
0.08,-0.88,0.4
0.13,-0.67,0.36
0.16,-0.54,0.37
0.14,-0.44,0.38
0.1,-0.38,0.37
0.07,-0.33,0.33
0.08,-0.25,0.27
0.05,-0.2,0.25
0.04,-0.18,0.23
0.02,-0.2,0.19
0.01,-0.14,0.18
0.02,-0.03,0.19
0.02,0.06,0.18
0.05,0.11,0.17
0.07,0.11,0.18
0.06,0.08,0.18
0.06,0.05,0.15
0.03,0.08,0.12
0,0.12,0.11
0,0.13,0.12
-0.02,0.16,0.16
-0.05,0.18,0.2
-0.05,0.18,0.21
-0.06,0.18,0.22
-0.07,0.18,0.21
-0.07,0.15,0.21
-0.08,0.11,0.24
-0.09,0.1,0.27
-0.09,0.11,0.29
-0.1,0.09,0.31
-0.11,0.08,0.33
-0.12,0.07,0.35
-0.11,0.05,0.35
-0.11,0,0.37
-0.13,-0.06,0.39
-0.13,-0.1,0.4
-0.13,-0.14,0.4
-0.14,-0.16,0.41
-0.1,-0.17,0.44
-0.06,-0.18,0.47
-0.02,-0.2,0.51
0.02,-0.23,0.52
0.03,-0.3,0.52
0.01,-0.38,0.54
-0.01,-0.46,0.58
0.01,-0.52,0.62
0.03,-0.54,0.64
0.05,-0.53,0.65
0.06,-0.53,0.62
0.08,-0.54,0.55
0.11,-0.63,0.51
0.11,-0.74,0.57
0.16,-0.78,0.74
0.41,-0.88,0.73
0.34,-0.98,0.72
0.32,-1.03,0.7
0.33,-1.07,0.67
0.33,-1.07,0.69
0.24,-1.18,0.77
0.19,-1.22,0.83
0.27,-1.11,0.86
0.32,-1.12,0.85
0.37,-1.23,0.84
0.43,-1.33,0.85
0.45,-1.34,0.87
0.4,-1.33,0.91
0.34,-1.33,0.92
0.28,-1.33,0.93
0.26,-1.3,0.93
0.28,-1.25,0.94
0.31,-1.23,0.99
0.37,-1.28,1.04
0.4,-1.35,1.07
0.42,-1.38,1.07
0.42,-1.38,1.06
0.36,-1.38,1.06
0.29,-1.37,1.11
0.32,-1.3,1.11
0.32,-1.25,1.12
0.27,-1.2,1.27
0.3,-1.18,1.27
0.27,-1.14,1.22
0.18,-1.06,1.19
0.15,-0.99,1.17
0.17,-0.97,1.13
0.22,-0.96,1.1
0.22,-0.96,1.12
0.31,-0.91,1.32
0.26,-0.93,1.65
0.01,-1.1,1.86
-0.07,-1.16,1.66
0.06,-1.02,1.16
0.3,-0.87,0.82
0.52,-0.79,0.74
0.58,-0.82,0.67
0.53,-0.89,0.58
0.5,-0.89,0.51
0.49,-0.86,0.4
0.49,-0.82,0.31
0.45,-0.8,0.26
0.39,-0.82,0.22
0.37,-0.84,0.19
0.36,-0.84,0.16
0.32,-0.84,0.16
0.28,-0.82,0.17
0.26,-0.86,0.21
0.26,-0.86,0.22
0.25,-0.9,0.2
0.24,-0.91,0.2
0.22,-0.92,0.21
0.21,-0.94,0.24
0.23,-0.96,0.26
0.23,-0.97,0.25
0.22,-0.99,0.25
0.23,-0.98,0.26
0.23,-0.97,0.27
0.22,-0.95,0.26
0.23,-0.92,0.25
0.23,-0.91,0.24
0.23,-0.91,0.24
0.23,-0.92,0.24
0.22,-0.94,0.26
0.23,-0.96,0.28
0.25,-0.99,0.28
0.24,-1.01,0.29
0.19,-1.06,0.32
0.12,-1.15,0.39
0.1,-1.3,0.46
0.13,-1.41,0.48
0.16,-1.44,0.46
0.15,-1.42,0.41
0.11,-1.16,0.31
0.08,-1.01,0.28
0.12,-0.89,0.23
0.17,-0.79,0.18
0.18,-0.7,0.18
0.19,-0.65,0.19
0.2,-0.7,0.18
0.21,-0.78,0.19
0.25,-0.84,0.18
0.3,-0.91,0.17
0.33,-1.01,0.16
0.33,-1.07,0.13
0.3,-1.11,0.1
0.25,-1.22,0.07
0.22,-1.23,0.06
0.22,-1.19,0.07
0.22,-1.18,0.05
0.22,-1.13,0.03
0.2,-1.09,0.01
0.18,-1.03,-0.02
0.18,-0.93,-0.04
0.19,-0.87,-0.05
0.21,-0.83,-0.04
0.22,-0.81,-0.03
0.25,-0.81,-0.01
0.26,-0.83,0.01
0.25,-0.91,0.02
0.23,-0.9,0.02
0.18,-0.89,0.02
0.12,-0.95,0
0.11,-0.98,0.03
0.08,-0.96,0.07
0.03,-1.01,0.08
0.05,-1.02,0.09
0.05,-1.03,0.08
0.02,-1.03,0.06
0.02,-1.03,0.07
0.01,-1.03,0.07
0.01,-1.02,0.07
0.01,-1,0.08
-0.01,-0.97,0.08
-0.02,-0.95,0.08
-0.02,-0.94,0.08
0,-0.93,0.07
0.02,-0.93,0.06
0.03,-0.93,0.06
0.05,-0.94,0.06
0.06,-0.94,0.06
0.07,-0.94,0.07
0.09,-0.93,0.06
0.11,-0.94,0.04
0.15,-0.95,0.01
0.18,-0.97,-0.05
0.2,-1,-0.06
0.22,-1.02,-0.07
0.25,-1.02,-0.05
0.26,-1.02,-0.05
0.29,-1.02,-0.09
0.3,-1.01,-0.09
0.27,-1,-0.07
0.28,-0.98,-0.06
0.27,-0.96,-0.05
0.26,-0.97,-0.07
0.29,-0.98,-0.09
0.3,-1,-0.1
0.31,-1.02,-0.11
0.35,-1.01,-0.12
0.36,-1.01,-0.12
0.35,-1.01,-0.1
0.35,-1.02,-0.09
0.35,-1.01,-0.08
0.33,-1.01,-0.07
0.32,-1.01,-0.06
0.31,-1,-0.05
0.29,-0.97,-0.04
0.28,-0.93,-0.04
0.25,-0.88,-0.03
0.23,-0.82,-0.03
0.22,-0.76,-0.04
0.18,-0.72,-0.03
0.17,-0.77,0
0.15,-0.85,0.03
0.12,-0.95,0.04
0.05,-1.03,0
0,-1.07,-0.05
-0.04,-1.12,-0.03
-0.07,-1.16,0.07
-0.11,-1.18,0.18
-0.19,-1.18,0.22
-0.24,-1.13,0.22
-0.26,-1.14,0.22
-0.31,-1.2,0.25
-0.37,-1.16,0.26
-0.36,-1.12,0.26
-0.33,-1.14,0.29
-0.35,-1.15,0.34
-0.82,-1.24,0.45
-0.78,-1.27,0.54
-0.22,-1.14,0.47
-0.31,-1.19,0.46
-0.58,-1.38,0.54
-0.59,-1.61,0.56
-0.29,-1.98,0.63
0.34,-2.2,0.63
0.73,-1.97,0.27
-0.08,-1.02,0.07
-0.25,-0.8,-0.1
0.01,-0.76,-0.25
0.43,-0.82,-0.34
0.68,-0.89,-0.31
0.66,-0.97,-0.18
0.44,-1,-0.05
0.25,-1.01,0
0.24,-1.06,-0.02
0.22,-1.1,-0.03
0.14,-1.07,-0.01
0.12,-1.04,-0.02
0.18,-0.99,-0.07
0.3,-0.97,-0.13
0.41,-0.97,-0.13
0.45,-0.93,-0.11
0.44,-0.92,-0.1
0.43,-0.94,-0.08
0.44,-0.96,-0.08
0.47,-0.95,-0.13
0.44,-0.92,-0.18
0.35,-0.96,-0.19
0.35,-1.01,-0.21
0.35,-0.97,-0.24
0.37,-0.94,-0.25
0.36,-0.98,-0.17
0.3,-1.03,-0.13
0.35,-1,-0.09
0.39,-1,-0.08
0.44,-0.97,-0.09
0.49,-0.94,-0.13
0.49,-0.94,-0.15
0.46,-0.95,-0.14
0.43,-0.92,-0.11
0.39,-0.91,-0.08
0.36,-0.92,-0.06
0.34,-0.93,-0.04
0.31,-0.94,-0.01
0.29,-0.95,0.02
0.28,-0.95,0.05
0.3,-0.95,0.07
0.32,-0.94,0.09
0.35,-0.92,0.1
0.38,-0.92,0.12
0.39,-0.92,0.14
0.4,-0.91,0.17
0.41,-0.91,0.18
0.43,-0.92,0.16
0.44,-0.91,0.17
0.46,-0.9,0.2
0.47,-0.89,0.23
0.48,-0.88,0.24
0.5,-0.88,0.24
0.5,-0.88,0.22
0.47,-0.89,0.19
0.48,-0.88,0.16
0.52,-0.88,0.15
0.53,-0.88,0.14
0.54,-0.89,0.15
0.54,-0.86,0.17
0.49,-0.87,0.22
0.52,-0.88,0.31
0.57,-0.83,0.34
0.52,-0.8,0.32
0.48,-0.8,0.36
0.5,-0.8,0.41
0.48,-0.77,0.43
0.53,-0.74,0.45
0.59,-0.7,0.51
0.59,-0.67,0.53
0.61,-0.61,0.57
0.59,-0.6,0.62
0.58,-0.57,0.62
0.6,-0.52,0.65
0.61,-0.48,0.68
0.6,-0.44,0.71
0.58,-0.44,0.71
0.59,-0.4,0.69
0.6,-0.37,0.67
0.63,-0.34,0.66
0.64,-0.37,0.65
0.67,-0.4,0.64
0.7,-0.41,0.63
