Acc_x,Acc_y,Acc_z
0.53,-0.47,0.76
0.52,-0.48,0.76
0.53,-0.5,0.78
0.55,-0.53,0.81
0.56,-0.55,0.83
0.55,-0.56,0.85
0.53,-0.57,0.87
0.54,-0.58,0.86
0.56,-0.58,0.84
0.6,-0.57,0.82
0.63,-0.56,0.82
0.66,-0.54,0.84
0.67,-0.52,0.87
0.68,-0.5,0.89
0.67,-0.48,0.9
0.67,-0.46,0.92
0.66,-0.45,0.96
0.65,-0.44,0.98
0.64,-0.42,0.97
0.62,-0.4,0.94
0.61,-0.38,0.86
0.58,-0.3,0.86
0.59,-0.29,0.87
0.58,-0.29,0.89
0.54,-0.28,0.88
0.51,-0.27,0.86
0.49,-0.24,0.83
0.46,-0.22,0.79
0.44,-0.2,0.75
0.42,-0.17,0.71
0.41,-0.14,0.69
0.41,-0.12,0.67
0.41,-0.12,0.65
0.41,-0.11,0.64
0.39,-0.1,0.62
0.37,-0.09,0.6
0.37,-0.08,0.59
0.37,-0.08,0.57
0.37,-0.08,0.55
0.35,-0.08,0.51
0.33,-0.06,0.46
0.33,-0.05,0.42
0.34,-0.06,0.4
0.34,-0.07,0.4
0.35,-0.1,0.4
0.35,-0.12,0.4
0.34,-0.14,0.41
0.32,-0.16,0.41
0.31,-0.17,0.37
0.31,-0.17,0.33
0.31,-0.18,0.29
0.3,-0.2,0.28
0.29,-0.23,0.29
0.28,-0.27,0.3
0.27,-0.3,0.3
0.26,-0.34,0.3
0.25,-0.4,0.3
0.82,-0.82,1.03
1.4,-1.35,2.52
1.69,-1.04,3.62
1.3,-0.64,3.74
0.69,-0.72,3.06
0.72,-0.64,2.08
0.55,-0.39,1.28
0.38,-0.23,0.74
0.34,-0.2,0.38
0.27,-0.2,0.21
0.22,-0.22,0.14
0.21,-0.26,0.13
0.21,-0.32,0.18
0.25,-0.36,0.25
0.34,-0.39,0.34
0.45,-0.42,0.66
0.61,-0.52,0.89
0.66,-0.57,1.1
0.66,-0.6,1.25
0.64,-0.6,1.28
0.59,-0.57,1.18
0.53,-0.53,1
0.48,-0.5,0.83
0.45,-0.46,0.7
0.45,-0.44,0.62
0.46,-0.43,0.6
0.47,-0.44,0.64
0.51,-0.46,0.74
0.58,-0.48,0.86
0.61,-0.51,0.97
0.59,-0.51,1.05
0.55,-0.5,1.07
0.51,-0.48,1.03
0.51,-0.45,0.98
0.55,-0.44,0.95
0.61,-0.44,0.93
0.66,-0.45,0.9
0.65,-0.44,0.88
0.65,-0.41,0.9
0.68,-0.41,0.92
0.67,-0.4,0.93
0.64,-0.36,0.98
0.63,-0.32,1
0.59,-0.3,0.96
0.56,-0.26,0.91
0.55,-0.24,0.84
0.53,-0.22,0.76
0.51,-0.19,0.71
0.5,-0.18,0.67
0.49,-0.17,0.64
0.47,-0.16,0.63
0.45,-0.15,0.62
0.42,-0.14,0.61
0.39,-0.13,0.61
0.38,-0.12,0.6
0.37,-0.12,0.58
0.37,-0.12,0.56
0.37,-0.13,0.53
0.35,-0.14,0.47
0.34,-0.15,0.43
0.33,-0.17,0.4
0.32,-0.18,0.38
0.3,-0.19,0.37
0.28,-0.2,0.35
0.27,-0.21,0.33
0.26,-0.22,0.3
0.26,-0.22,0.28
0.26,-0.22,0.33
0.26,-0.26,0.33
0.25,-0.28,0.32
0.23,-0.31,0.29
0.21,-0.34,0.26
0.2,-0.39,0.25
0.7,-0.81,1.36
1.47,-1.36,2.56
1.82,-1.06,3
1.28,-0.66,3.26
0.75,-0.7,2.76
0.77,-0.58,1.92
0.55,-0.39,1.26
0.39,-0.28,0.81
0.32,-0.24,0.47
0.24,-0.23,0.27
0.2,-0.25,0.18
0.18,-0.27,0.16
0.18,-0.3,0.19
0.25,-0.33,0.25
0.35,-0.36,0.37
0.48,-0.41,0.54
0.65,-0.48,0.75
0.78,-0.55,0.99
0.82,-0.59,1.2
0.78,-0.59,1.33
0.69,-0.55,1.33
0.53,-0.49,1.14
0.47,-0.46,1.01
0.45,-0.43,0.9
0.48,-0.42,0.87
0.56,-0.43,0.9
0.63,-0.46,0.92
0.66,-0.47,0.91
0.68,-0.46,0.87
0.69,-0.44,0.86
0.68,-0.41,0.87
0.65,-0.38,0.91
0.63,-0.36,0.95
0.62,-0.35,0.99
0.6,-0.33,1.01
0.58,-0.31,0.99
0.55,-0.3,0.95
0.51,-0.3,0.87
0.47,-0.28,0.78
0.44,-0.26,0.68
0.41,-0.23,0.61
0.4,-0.2,0.56
0.39,-0.17,0.54
0.37,-0.15,0.53
0.33,-0.14,0.54
0.3,-0.13,0.54
0.29,-0.12,0.53
0.28,-0.09,0.48
0.26,-0.07,0.42
0.23,-0.05,0.37
0.21,-0.04,0.33
0.19,-0.05,0.31
0.17,-0.07,0.29
0.16,-0.09,0.28
0.16,-0.11,0.29
0.2,-0.15,0.33
0.23,-0.19,0.37
0.25,-0.21,0.39
0.24,-0.24,0.38
0.22,-0.27,0.33
0.19,-0.3,0.28
0.16,-0.35,0.23
0.39,-0.47,-0.05
1.35,-1.05,1.23
2.3,-1.35,2.91
1.69,-0.95,3.09
0.84,-0.85,3.01
0.8,-0.89,2.35
0.6,-0.65,1.55
0.36,-0.42,1.04
0.26,-0.33,0.61
0.18,-0.29,0.33
0.12,-0.28,0.19
0.13,-0.33,0.21
0.18,-0.34,0.29
0.28,-0.36,0.39
0.41,-0.38,0.52
0.54,-0.42,0.66
0.66,-0.46,0.87
0.75,-0.5,1.11
0.74,-0.52,1.27
0.67,-0.52,1.31
0.59,-0.5,1.25
0.52,-0.47,1.12
0.47,-0.44,0.99
0.45,-0.42,0.9
0.46,-0.42,0.87
0.5,-0.43,0.88
0.58,-0.45,0.91
0.63,-0.48,0.94
0.62,-0.5,0.96
0.61,-0.5,0.97
0.59,-0.49,0.97
0.57,-0.46,0.96
0.55,-0.42,0.95
0.54,-0.38,0.95
0.54,-0.34,0.93
0.54,-0.32,0.9
0.53,-0.29,0.88
0.51,-0.26,0.83
0.44,-0.24,0.8
0.41,-0.23,0.76
0.38,-0.21,0.71
0.36,-0.19,0.66
0.35,-0.17,0.61
0.34,-0.15,0.57
0.34,-0.13,0.55
0.34,-0.12,0.54
0.33,-0.12,0.53
0.32,-0.11,0.5
0.29,-0.09,0.46
0.27,-0.07,0.41
0.27,-0.06,0.38
0.27,-0.07,0.36
0.26,-0.09,0.35
0.25,-0.11,0.34
0.25,-0.13,0.33
0.24,-0.14,0.31
0.22,-0.17,0.29
0.22,-0.2,0.27
0.23,-0.23,0.26
0.25,-0.27,0.25
0.26,-0.33,0.26
0.28,-0.39,0.29
0.29,-0.45,0.33
0.5,-0.62,1.85
1.67,-1.33,3.03
1.53,-0.84,2.79
1.22,-0.81,2.69
0.92,-0.81,2.26
0.71,-0.63,1.61
0.52,-0.42,1.06
0.37,-0.31,0.65
0.32,-0.25,0.38
0.26,-0.22,0.25
0.23,-0.25,0.2
0.24,-0.29,0.2
0.26,-0.32,0.27
0.3,-0.34,0.37
0.4,-0.37,0.51
0.51,-0.43,0.7
0.61,-0.51,0.9
0.67,-0.57,1.06
0.68,-0.6,1.16
0.66,-0.59,1.18
0.6,-0.54,1.12
0.54,-0.5,1.02
0.52,-0.47,0.93
0.54,-0.46,0.9
0.59,-0.45,0.91
0.64,-0.48,1.04
0.66,-0.51,1.11
0.6,-0.51,1.13
0.53,-0.47,1.08
0.48,-0.44,0.99
0.45,-0.4,0.9
0.46,-0.39,0.86
0.51,-0.39,0.85
0.55,-0.37,0.84
0.58,-0.35,0.84
0.61,-0.32,0.83
0.61,-0.3,0.82
0.58,-0.27,0.79
0.55,-0.24,0.75
0.47,-0.19,0.71
0.41,-0.15,0.66
0.36,-0.12,0.59
0.33,-0.11,0.53
0.4,-0.09,0.51
0.45,-0.08,0.53
0.48,-0.08,0.57
0.49,-0.07,0.61
0.48,-0.06,0.64
0.46,-0.06,0.65
0.4,-0.06,0.61
0.34,-0.04,0.56
0.34,-0.03,0.51
0.36,-0.06,0.41
0.39,-0.08,0.39
0.4,-0.12,0.37
0.41,-0.15,0.36
0.4,-0.16,0.37
0.37,-0.19,0.35
0.33,-0.18,0.35
0.32,-0.2,0.38
0.33,-0.24,0.41
0.33,-0.25,0.42
0.33,-0.26,0.41
0.36,-0.28,0.43
0.39,-0.32,0.47
0.39,-0.37,0.48
0.36,-0.4,0.46
0.46,-0.45,0.18
1.13,-0.7,1.34
1.61,-1.1,2.59
1.57,-0.97,2.66
1.23,-0.73,2.83
0.77,-0.82,2.42
0.69,-0.69,1.74
0.54,-0.47,1.18
0.4,-0.34,0.76
0.35,-0.28,0.46
0.3,-0.26,0.3
0.26,-0.27,0.2
0.22,-0.32,0.23
0.27,-0.34,0.29
0.35,-0.38,0.39
0.45,-0.43,0.52
0.55,-0.48,0.69
0.62,-0.53,0.88
0.67,-0.55,1.06
0.67,-0.55,1.17
0.63,-0.54,1.19
0.57,-0.51,1.12
0.52,-0.46,1.01
0.49,-0.43,0.92
0.49,-0.42,0.88
0.52,-0.42,0.89
0.56,-0.44,0.92
0.59,-0.47,0.97
0.63,-0.5,1.05
0.66,-0.52,1.08
0.64,-0.5,1.06
0.6,-0.47,1.03
0.57,-0.43,0.98
0.56,-0.42,0.93
0.59,-0.42,0.87
0.59,-0.43,0.82
0.59,-0.43,0.81
0.6,-0.42,0.81
0.63,-0.38,0.8
0.61,-0.33,0.77
0.57,-0.29,0.74
0.53,-0.25,0.71
0.49,-0.2,0.68
0.45,-0.17,0.63
0.42,-0.14,0.56
0.41,-0.13,0.52
0.42,-0.11,0.49
0.43,-0.1,0.49
0.43,-0.09,0.51
0.41,-0.08,0.53
0.38,-0.07,0.54
0.32,-0.05,0.5
0.26,-0.02,0.44
0.23,0,0.39
0.24,0,0.37
0.27,-0.02,0.36
0.28,-0.04,0.35
0.28,-0.07,0.33
0.28,-0.1,0.3
0.27,-0.14,0.29
0.27,-0.19,0.3
0.27,-0.25,0.36
0.3,-0.32,0.48
0.39,-0.53,0.79
0.59,-0.6,0.86
0.61,-0.61,0.86
1.1,-0.79,1.48
1.44,-1.05,2.13
1.29,-0.98,2.25
1.04,-0.75,2.28
0.68,-0.65,2.1
0.49,-0.56,1.72
0.33,-0.47,1.3
0.22,-0.41,1.05
0.27,-0.38,0.91
0.43,-0.39,0.86
0.58,-0.43,0.89
0.6,-0.46,0.92
0.52,-0.47,0.9
0.45,-0.43,0.83
0.43,-0.39,0.77
0.41,-0.36,0.74
0.39,-0.35,0.73
0.37,-0.33,0.7
0.39,-0.31,0.67
0.42,-0.31,0.64
0.45,-0.31,0.6
0.47,-0.33,0.56
0.47,-0.34,0.51
0.45,-0.33,0.45
0.4,-0.32,0.39
0.39,-0.31,0.36
0.36,-0.27,0.33
0.32,-0.24,0.3
0.3,-0.22,0.29
0.3,-0.2,0.29
0.31,-0.2,0.32
0.32,-0.21,0.35
0.32,-0.22,0.38
0.35,-0.22,0.43
0.41,-0.24,0.48
0.46,-0.3,0.56
0.5,-0.37,0.69
0.68,-0.47,0.67
0.99,-0.65,1.29
1.23,-0.83,2.09
1.09,-0.79,2.36
0.71,-0.61,2.39
0.54,-0.54,2.05
0.49,-0.52,1.62
0.42,-0.43,1.23
0.39,-0.34,0.98
0.45,-0.31,0.84
0.5,-0.33,0.78
0.52,-0.36,0.73
0.5,-0.38,0.67
0.45,-0.36,0.6
0.37,-0.35,0.61
0.36,-0.35,0.62
0.37,-0.36,0.62
0.4,-0.35,0.61
0.41,-0.34,0.57
0.4,-0.32,0.52
0.4,-0.3,0.46
0.39,-0.28,0.39
0.36,-0.26,0.35
0.35,-0.26,0.33
0.34,-0.26,0.35
0.35,-0.27,0.39
0.34,-0.27,0.41
0.3,-0.25,0.41
0.26,-0.22,0.4
0.25,-0.2,0.43
0.3,-0.25,0.55
0.51,-0.43,0.65
0.83,-0.58,1.21
1.01,-0.74,1.92
0.96,-0.76,2.19
0.73,-0.62,2.19
0.61,-0.62,1.86
0.54,-0.57,1.51
0.46,-0.47,1.22
0.41,-0.39,0.85
0.51,-0.39,0.76
0.52,-0.43,0.75
0.49,-0.45,0.78
0.45,-0.45,0.81
0.42,-0.44,0.82
0.4,-0.41,0.81
0.4,-0.39,0.78
0.42,-0.37,0.74
0.43,-0.36,0.7
0.43,-0.35,0.67
0.42,-0.34,0.63
0.41,-0.33,0.58
0.41,-0.32,0.53
0.41,-0.31,0.48
0.4,-0.29,0.44
0.37,-0.28,0.4
0.35,-0.26,0.36
0.34,-0.24,0.34
0.32,-0.23,0.33
0.3,-0.24,0.33
0.3,-0.23,0.33
0.3,-0.22,0.34
0.32,-0.23,0.39
0.38,-0.26,0.48
0.44,-0.32,0.6
0.5,-0.46,0.88
0.63,-0.54,1
0.71,-0.68,1.09
0.77,-0.81,1.33
0.84,-0.86,1.89
0.88,-0.84,2.16
0.7,-0.69,1.92
0.56,-0.58,1.53
0.52,-0.5,1.18
0.51,-0.43,0.96
0.51,-0.4,0.81
0.5,-0.38,0.75
0.48,-0.35,0.76
0.47,-0.34,0.8
0.44,-0.33,0.8
0.39,-0.3,0.77
0.35,-0.28,0.72
0.33,-0.25,0.67
0.35,-0.24,0.62
0.38,-0.24,0.57
0.4,-0.23,0.52
0.39,-0.23,0.46
0.36,-0.23,0.41
0.32,-0.22,0.37
0.28,-0.2,0.34
0.26,-0.19,0.33
0.27,-0.18,0.33
0.27,-0.18,0.33
0.26,-0.17,0.34
0.26,-0.18,0.39
0.31,-0.23,0.51
0.41,-0.32,0.72
0.54,-0.45,0.99
0.77,-0.61,1.14
1,-0.79,1.56
1.06,-0.94,2.1
0.93,-0.85,2.19
0.61,-0.58,1.94
0.42,-0.5,1.55
0.45,-0.48,1.26
0.47,-0.43,1.07
0.51,-0.4,0.94
0.53,-0.4,0.86
0.47,-0.39,0.84
0.43,-0.39,0.85
0.41,-0.38,0.84
0.38,-0.35,0.82
0.36,-0.32,0.78
0.35,-0.31,0.73
0.36,-0.3,0.68
0.38,-0.29,0.61
0.38,-0.28,0.55
0.39,-0.28,0.43
0.38,-0.29,0.36
0.35,-0.28,0.29
0.33,-0.26,0.24
0.33,-0.25,0.23
0.32,-0.25,0.23
0.32,-0.25,0.25
0.31,-0.24,0.26
0.33,-0.23,0.3
0.38,-0.26,0.4
0.45,-0.33,0.53
0.53,-0.42,0.69
0.6,-0.51,0.88
0.63,-0.59,1.02
0.62,-0.7,1.05
0.67,-0.72,1.18
0.73,-0.81,1.7
0.85,-0.89,2.11
0.83,-0.7,2.04
0.57,-0.52,1.72
0.46,-0.42,1.37
0.45,-0.35,1.14
0.45,-0.3,0.99
0.46,-0.29,0.91
0.43,-0.29,0.88
0.42,-0.28,0.86
0.4,-0.27,0.78
0.35,-0.23,0.72
0.35,-0.22,0.66
0.35,-0.22,0.61
0.37,-0.21,0.57
0.39,-0.22,0.52
0.4,-0.23,0.47
0.37,-0.23,0.4
0.33,-0.22,0.35
0.32,-0.23,0.31
0.31,-0.22,0.29
0.31,-0.22,0.29
0.29,-0.21,0.27
0.27,-0.2,0.26
0.25,-0.19,0.29
0.27,-0.22,0.41
0.36,-0.3,0.62
0.47,-0.4,0.85
0.55,-0.49,1.06
0.64,-0.6,1.3
0.86,-0.74,1.68
0.82,-0.86,1.97
0.75,-0.83,2.03
0.71,-0.65,1.9
0.5,-0.52,1.54
0.49,-0.47,1.22
0.5,-0.41,0.93
0.5,-0.39,0.92
0.49,-0.39,0.92
0.47,-0.38,0.89
0.44,-0.36,0.83
0.4,-0.33,0.78
0.39,-0.31,0.73
0.38,-0.29,0.69
0.38,-0.28,0.63
0.39,-0.27,0.57
0.4,-0.27,0.51
0.39,-0.28,0.46
0.37,-0.27,0.4
0.34,-0.26,0.34
0.33,-0.25,0.3
0.34,-0.27,0.29
0.35,-0.28,0.31
0.34,-0.31,0.32
0.33,-0.33,0.3
0.34,-0.33,0.3
0.37,-0.35,0.35
0.41,-0.39,0.43
0.46,-0.44,0.53
0.51,-0.5,0.68
0.54,-0.57,0.86
0.84,-0.74,1.28
0.82,-0.84,2.11
0.76,-0.64,2.16
0.57,-0.52,1.83
0.51,-0.46,1.44
0.5,-0.38,1.17
0.52,-0.34,1.01
0.55,-0.34,0.93
0.53,-0.36,0.9
0.51,-0.36,0.89
0.51,-0.36,0.89
0.49,-0.36,0.88
0.45,-0.34,0.87
0.43,-0.31,0.85
0.43,-0.29,0.81
0.43,-0.28,0.77
0.43,-0.27,0.73
0.43,-0.26,0.67
0.41,-0.24,0.6
0.39,-0.23,0.53
0.39,-0.23,0.48
0.38,-0.23,0.42
0.35,-0.23,0.35
0.32,-0.22,0.29
0.31,-0.22,0.26
0.31,-0.23,0.25
0.32,-0.25,0.27
0.31,-0.26,0.27
0.28,-0.24,0.25
0.28,-0.23,0.25
0.3,-0.25,0.32
0.4,-0.35,0.51
0.52,-0.48,0.76
0.6,-0.6,0.97
0.89,-0.77,1.56
1.14,-1.04,2.24
0.91,-1,2.52
0.6,-0.65,2.35
0.48,-0.52,1.76
0.41,-0.48,1.27
0.41,-0.36,0.99
0.47,-0.33,0.88
0.52,-0.35,0.86
0.54,-0.37,0.88
0.53,-0.38,0.89
0.52,-0.37,0.87
0.47,-0.35,0.83
0.42,-0.33,0.8
0.39,-0.31,0.77
0.4,-0.31,0.74
0.42,-0.3,0.7
0.43,-0.29,0.65
0.42,-0.29,0.59
0.42,-0.3,0.49
0.39,-0.29,0.44
0.37,-0.28,0.38
0.34,-0.28,0.33
0.33,-0.28,0.29
0.33,-0.28,0.27
0.33,-0.27,0.26
0.33,-0.28,0.27
0.33,-0.28,0.28
0.31,-0.26,0.28
0.31,-0.26,0.29
0.35,-0.29,0.36
0.43,-0.37,0.51
0.53,-0.48,0.71
0.9,-0.55,1.39
1.15,-0.8,2.21
1.01,-0.92,2.62
0.83,-0.62,2.5
0.64,-0.48,1.89
0.51,-0.44,1.35
0.47,-0.33,1.05
0.54,-0.3,0.9
0.58,-0.34,0.83
0.6,-0.39,0.79
0.55,-0.41,0.8
0.5,-0.42,0.82
0.49,-0.41,0.83
0.46,-0.36,0.8
0.46,-0.34,0.78
0.47,-0.32,0.75
0.47,-0.3,0.7
0.46,-0.29,0.65
0.44,-0.27,0.59
0.43,-0.25,0.53
0.42,-0.24,0.48
0.4,-0.24,0.43
0.37,-0.24,0.38
0.33,-0.23,0.32
0.31,-0.23,0.28
0.3,-0.23,0.26
0.3,-0.22,0.25
0.3,-0.21,0.24
0.29,-0.21,0.22
0.28,-0.21,0.2
0.28,-0.21,0.21
0.3,-0.25,0.29
0.37,-0.35,0.47
0.49,-0.49,0.71
0.87,-0.74,0.98
1.1,-0.89,1.55
1.16,-0.94,2.34
0.95,-0.78,2.6
0.61,-0.53,2.19
0.54,-0.44,1.16
0.4,-0.37,0.94
0.48,-0.35,0.81
0.52,-0.36,0.77
0.52,-0.4,0.78
0.52,-0.41,0.83
0.52,-0.42,0.84
0.49,-0.41,0.82
0.45,-0.38,0.79
0.44,-0.35,0.75
0.44,-0.34,0.72
0.44,-0.32,0.67
0.43,-0.31,0.61
0.43,-0.3,0.55
0.43,-0.28,0.51
0.42,-0.27,0.47
0.39,-0.26,0.43
0.36,-0.25,0.39
0.34,-0.25,0.36
0.34,-0.26,0.34
0.34,-0.27,0.33
0.33,-0.28,0.31
0.31,-0.27,0.28
0.29,-0.26,0.25
0.29,-0.25,0.24
0.3,-0.26,0.27
0.34,-0.4,0.56
0.86,-0.7,0.91
1.08,-0.99,1.65
1.07,-0.96,2.43
1.02,-0.73,2.55
0.74,-0.57,2.1
0.58,-0.51,1.52
0.48,-0.41,1.1
0.48,-0.33,0.89
0.54,-0.32,0.79
0.61,-0.37,0.74
0.63,-0.42,0.75
0.62,-0.46,0.79
0.58,-0.46,0.79
0.55,-0.44,0.77
0.52,-0.41,0.74
0.51,-0.38,0.7
0.51,-0.36,0.68
0.5,-0.33,0.64
0.47,-0.31,0.59
0.45,-0.28,0.54
0.44,-0.26,0.49
0.41,-0.25,0.47
0.37,-0.24,0.44
0.32,-0.23,0.4
0.29,-0.22,0.37
0.28,-0.24,0.36
0.26,-0.25,0.37
0.24,-0.25,0.37
0.23,-0.24,0.35
0.24,-0.23,0.35
0.29,-0.26,0.43
0.39,-0.34,0.58
0.54,-0.46,0.75
0.81,-0.64,1
1.17,-0.78,1.45
1.22,-0.83,1.94
0.71,-0.69,2.17
0.51,-0.52,1.95
0.62,-0.49,1.48
0.48,-0.44,1.14
0.45,-0.4,0.98
0.53,-0.39,0.88
0.57,-0.4,0.83
0.56,-0.43,0.81
0.53,-0.42,0.79
0.49,-0.41,0.77
0.45,-0.39,0.77
0.41,-0.35,0.77
0.39,-0.33,0.78
0.38,-0.31,0.76
0.36,-0.29,0.72
0.34,-0.25,0.61
0.31,-0.24,0.57
0.28,-0.24,0.51
0.26,-0.24,0.46
0.24,-0.24,0.42
0.23,-0.24,0.4
0.23,-0.24,0.39
0.23,-0.24,0.37
0.23,-0.24,0.34
0.24,-0.23,0.33
0.3,-0.25,0.39
0.42,-0.32,0.52
0.54,-0.42,0.69
0.63,-0.53,0.86
0.81,-0.72,0.89
0.93,-0.92,1.22
1.17,-0.92,1.86
1.18,-0.71,2
0.77,-0.49,1.65
0.58,-0.42,1.25
0.56,-0.38,1.03
0.56,-0.35,0.96
0.56,-0.36,0.9
0.55,-0.37,0.84
0.51,-0.36,0.81
0.46,-0.35,0.8
0.44,-0.34,0.78
0.4,-0.29,0.76
0.39,-0.28,0.72
0.39,-0.27,0.67
0.39,-0.27,0.62
0.37,-0.27,0.57
0.36,-0.27,0.53
0.35,-0.28,0.48
0.34,-0.28,0.43
0.34,-0.28,0.4
0.33,-0.29,0.38
0.34,-0.3,0.38
0.34,-0.3,0.37
0.33,-0.3,0.34
0.31,-0.28,0.32
0.33,-0.29,0.35
0.41,-0.34,0.45
0.52,-0.43,0.61
0.83,-0.65,0.87
1.02,-0.78,1.33
1,-0.76,1.89
0.81,-0.67,2.17
0.66,-0.51,1.97
0.63,-0.48,1.53
0.46,-0.42,1.18
0.4,-0.36,1.01
0.48,-0.37,0.8
0.56,-0.43,0.75
0.54,-0.44,0.74
0.5,-0.43,0.75
0.46,-0.41,0.76
0.42,-0.4,0.77
0.4,-0.38,0.78
0.39,-0.36,0.79
0.39,-0.35,0.76
0.39,-0.33,0.72
0.39,-0.33,0.7
0.38,-0.32,0.67
0.34,-0.3,0.63
0.32,-0.3,0.57
0.3,-0.28,0.5
0.29,-0.27,0.43
0.27,-0.26,0.38
0.26,-0.25,0.35
0.26,-0.25,0.35
0.25,-0.25,0.34
0.25,-0.24,0.32
0.26,-0.24,0.34
0.33,-0.28,0.43
0.44,-0.37,0.58
0.55,-0.46,0.75
0.85,-0.69,1.15
1.05,-0.92,2.16
0.99,-0.62,2.15
0.73,-0.44,1.63
0.57,-0.42,1.22
0.53,-0.37,1
0.56,-0.36,0.9
0.58,-0.35,0.8
0.59,-0.35,0.75
0.54,-0.35,0.75
0.51,-0.35,0.78
0.48,-0.34,0.82
0.48,-0.33,0.83
0.5,-0.32,0.82
0.51,-0.31,0.78
0.51,-0.31,0.73
0.5,-0.31,0.68
0.51,-0.32,0.63
0.5,-0.33,0.57
0.45,-0.34,0.52
0.4,-0.34,0.47
0.36,-0.34,0.44
0.33,-0.33,0.41
0.31,-0.32,0.41
0.31,-0.31,0.43
0.31,-0.3,0.44
0.3,-0.28,0.42
0.3,-0.27,0.36
0.28,-0.25,0.33
0.31,-0.29,0.36
0.38,-0.37,0.48
0.73,-0.57,0.64
1.09,-0.74,1.17
1.19,-0.81,1.88
0.89,-0.71,2.21
0.71,-0.56,2.07
0.72,-0.54,1.64
0.49,-0.46,1.29
0.46,-0.43,1.05
0.51,-0.43,0.85
0.56,-0.41,0.72
0.58,-0.42,0.67
0.54,-0.44,0.68
0.52,-0.45,0.73
0.49,-0.45,0.77
0.45,-0.43,0.79
0.43,-0.39,0.8
0.43,-0.36,0.78
0.42,-0.33,0.75
0.4,-0.3,0.72
0.38,-0.29,0.68
0.36,-0.29,0.64
0.35,-0.28,0.59
0.32,-0.27,0.5
0.24,-0.22,0.45
0.22,-0.2,0.41
0.22,-0.19,0.4
0.22,-0.18,0.4
0.23,-0.19,0.41
0.23,-0.18,0.41
0.24,-0.18,0.39
0.26,-0.19,0.39
0.31,-0.24,0.43
0.41,-0.34,0.57
0.53,-0.47,0.77
0.83,-0.75,1.1
1.15,-1.03,1.64
1.27,-0.95,2.22
1.1,-0.68,2.27
0.77,-0.54,1.77
0.6,-0.49,1.25
0.57,-0.41,0.94
0.59,-0.35,0.8
0.61,-0.36,0.76
0.61,-0.4,0.76
0.56,-0.41,0.79
0.51,-0.39,0.81
0.47,-0.37,0.81
0.42,-0.34,0.79
0.41,-0.31,0.73
0.36,-0.27,0.68
0.33,-0.26,0.63
0.3,-0.25,0.58
0.27,-0.24,0.54
0.23,-0.22,0.48
0.2,-0.2,0.43
0.19,-0.19,0.41
0.2,-0.19,0.41
0.22,-0.21,0.43
0.24,-0.23,0.44
0.24,-0.23,0.42
0.22,-0.23,0.39
0.23,-0.24,0.39
0.28,-0.29,0.45
0.37,-0.39,0.59
0.82,-0.66,1.05
1.14,-0.95,1.61
1.25,-0.93,2.02
1.2,-0.74,2.13
0.87,-0.62,1.78
0.68,-0.55,1.33
0.59,-0.48,1.05
0.54,-0.45,0.92
0.55,-0.46,0.83
0.56,-0.47,0.77
0.52,-0.47,0.76
0.45,-0.43,0.82
0.45,-0.39,0.82
0.44,-0.36,0.81
0.42,-0.34,0.77
0.39,-0.31,0.72
0.35,-0.29,0.65
0.32,-0.27,0.59
0.3,-0.25,0.55
0.28,-0.24,0.51
0.26,-0.23,0.46
0.23,-0.22,0.42
0.21,-0.2,0.39
0.21,-0.2,0.38
0.23,-0.21,0.39
0.24,-0.22,0.4
0.23,-0.22,0.38
0.23,-0.22,0.35
0.25,-0.23,0.36
0.31,-0.29,0.44
0.41,-0.4,0.6
0.77,-0.62,1.01
1.02,-0.93,1.61
1.17,-0.97,2.16
1.16,-0.78,2.33
0.82,-0.63,1.9
0.61,-0.52,1.34
0.54,-0.4,0.85
0.56,-0.4,0.77
0.56,-0.41,0.71
0.48,-0.41,0.73
0.43,-0.41,0.78
0.43,-0.4,0.81
0.43,-0.36,0.78
0.42,-0.32,0.75
0.4,-0.3,0.72
0.38,-0.29,0.69
0.36,-0.28,0.65
0.34,-0.28,0.6
0.34,-0.28,0.55
0.34,-0.27,0.51
0.32,-0.25,0.48
0.3,-0.24,0.45
0.29,-0.23,0.43
0.3,-0.22,0.42
0.3,-0.23,0.42
0.3,-0.23,0.42
0.29,-0.24,0.41
0.27,-0.23,0.39
0.27,-0.23,0.37
0.3,-0.27,0.4
0.36,-0.35,0.49
0.56,-0.51,0.88
0.86,-0.9,1.92
1.03,-0.84,2.29
0.86,-0.74,2.1
0.68,-0.61,1.54
0.59,-0.52,1.12
0.55,-0.47,0.92
0.55,-0.45,0.81
0.59,-0.46,0.72
0.58,-0.46,0.66
0.52,-0.46,0.68
0.49,-0.45,0.75
0.49,-0.42,0.78
0.49,-0.37,0.78
0.47,-0.33,0.76
0.45,-0.31,0.74
0.43,-0.3,0.7
0.4,-0.28,0.65
0.38,-0.27,0.61
0.36,-0.25,0.56
0.34,-0.24,0.52
0.32,-0.21,0.47
0.3,-0.19,0.41
0.28,-0.17,0.38
0.28,-0.17,0.37
0.28,-0.18,0.37
0.27,-0.19,0.38
0.26,-0.21,0.33
0.24,-0.22,0.32
0.28,-0.26,0.37
0.36,-0.35,0.51
0.62,-0.55,0.81
1,-0.86,1.31
1.28,-1,2.04
1.19,-0.89,2.45
0.84,-0.77,2.11
0.59,-0.65,1.5
0.5,-0.53,1.07
0.51,-0.46,0.86
0.6,-0.44,0.77
0.68,-0.45,0.72
0.64,-0.45,0.71
0.56,-0.42,0.75
0.53,-0.4,0.78
0.49,-0.36,0.77
0.45,-0.33,0.77
0.43,-0.3,0.76
0.43,-0.28,0.74
0.43,-0.27,0.7
0.41,-0.26,0.65
0.39,-0.25,0.6
0.38,-0.25,0.56
0.38,-0.25,0.52
0.36,-0.22,0.45
0.32,-0.2,0.43
0.3,-0.19,0.41
0.29,-0.19,0.41
0.28,-0.19,0.41
0.27,-0.19,0.39
0.26,-0.19,0.37
0.26,-0.19,0.33
0.25,-0.2,0.31
0.27,-0.24,0.36
0.34,-0.34,0.52
0.48,-0.48,0.73
0.99,-0.72,1.23
1.48,-1.08,1.92
1.34,-1.04,2.36
0.92,-0.71,2.25
0.65,-0.64,1.66
0.55,-0.58,1.13
0.53,-0.46,0.84
0.58,-0.43,0.7
0.63,-0.41,0.65
0.62,-0.4,0.69
0.56,-0.39,0.74
0.52,-0.37,0.75
0.47,-0.34,0.73
0.43,-0.31,0.71
0.42,-0.29,0.67
0.42,-0.28,0.64
0.41,-0.28,0.59
0.39,-0.29,0.54
0.38,-0.29,0.5
0.35,-0.28,0.46
0.34,-0.28,0.42
0.33,-0.27,0.39
0.32,-0.26,0.38
0.32,-0.26,0.38
0.31,-0.26,0.38
0.3,-0.25,0.37
0.29,-0.25,0.37
0.32,-0.28,0.41
0.41,-0.36,0.52
0.89,-0.54,0.98
1.24,-0.73,1.55
1.07,-0.77,2.01
0.85,-0.66,2.2
0.7,-0.58,1.87
0.56,-0.53,1.39
0.46,-0.45,1.05
0.46,-0.41,0.87
0.53,-0.38,0.75
0.59,-0.4,0.7
0.57,-0.43,0.73
0.54,-0.43,0.77
0.48,-0.39,0.76
0.44,-0.36,0.74
0.44,-0.34,0.73
0.45,-0.32,0.7
0.46,-0.3,0.66
0.45,-0.29,0.62
0.42,-0.27,0.57
0.38,-0.26,0.53
0.35,-0.25,0.48
0.33,-0.24,0.44
0.32,-0.24,0.4
0.31,-0.25,0.39
0.32,-0.27,0.38
0.32,-0.29,0.37
0.31,-0.29,0.34
0.28,-0.28,0.31
0.27,-0.27,0.3
0.27,-0.27,0.33
0.33,-0.33,0.44
0.51,-0.46,0.74
1,-0.71,1.29
1.26,-0.89,1.93
1.11,-0.79,2.29
0.86,-0.6,2.13
0.65,-0.55,1.62
0.57,-0.5,0.95
0.53,-0.41,0.83
0.61,-0.45,0.77
0.63,-0.48,0.76
0.56,-0.48,0.77
0.5,-0.47,0.79
0.47,-0.43,0.79
0.46,-0.39,0.78
0.46,-0.36,0.76
0.46,-0.33,0.75
0.44,-0.31,0.72
0.42,-0.28,0.67
0.39,-0.26,0.62
0.37,-0.24,0.57
0.35,-0.22,0.51
0.32,-0.2,0.45
0.28,-0.19,0.39
0.25,-0.18,0.36
0.25,-0.18,0.35
0.25,-0.19,0.37
0.26,-0.2,0.38
0.25,-0.2,0.38
0.24,-0.2,0.36
0.25,-0.21,0.35
0.28,-0.24,0.41
0.37,-0.34,0.56
0.54,-0.49,1.31
1.27,-0.99,1.92
1.12,-0.88,2.29
0.88,-0.69,2.14
0.63,-0.61,1.62
0.51,-0.54,1.18
0.43,-0.45,0.96
0.46,-0.41,0.83
0.57,-0.42,0.74
0.6,-0.43,0.7
0.53,-0.42,0.72
0.46,-0.42,0.78
0.45,-0.4,0.81
0.44,-0.37,0.8
0.43,-0.35,0.78
0.42,-0.32,0.75
0.41,-0.3,0.7
0.39,-0.28,0.64
0.36,-0.27,0.58
0.35,-0.26,0.52
0.32,-0.25,0.46
0.3,-0.24,0.41
0.28,-0.23,0.38
0.28,-0.23,0.38
0.28,-0.23,0.39
0.28,-0.23,0.4
0.27,-0.23,0.39
0.32,-0.25,0.44
0.43,-0.35,0.6
0.55,-0.47,0.8
0.66,-0.59,1.01
0.89,-0.74,1.31
1.07,-0.9,1.58
0.99,-0.85,1.8
0.77,-0.68,1.74
0.63,-0.59,1.32
0.57,-0.49,1
0.56,-0.43,0.84
0.61,-0.42,0.81
0.6,-0.4,0.84
0.54,-0.38,0.86
0.5,-0.36,0.86
0.46,-0.33,0.81
0.42,-0.31,0.75
0.4,-0.3,0.7
0.39,-0.29,0.66
0.39,-0.29,0.63
0.38,-0.29,0.59
0.35,-0.27,0.55
0.32,-0.25,0.49
0.31,-0.23,0.44
0.3,-0.21,0.4
0.3,-0.2,0.38
0.3,-0.21,0.38
0.27,-0.21,0.38
0.23,-0.21,0.39
0.24,-0.21,0.44
0.3,-0.27,0.55
0.51,-0.43,0.93
1,-0.71,1.18
1.22,-0.89,1.56
1.07,-0.78,2.04
0.87,-0.65,1.89
0.68,-0.63,1.45
0.6,-0.54,1.08
0.56,-0.45,0.87
0.54,-0.43,0.77
0.56,-0.43,0.72
0.56,-0.43,0.74
0.53,-0.43,0.78
0.51,-0.42,0.8
0.48,-0.4,0.8
0.45,-0.37,0.79
0.44,-0.35,0.76
0.44,-0.33,0.71
0.44,-0.31,0.65
0.42,-0.31,0.59
0.41,-0.31,0.54
0.4,-0.3,0.49
0.37,-0.29,0.39
0.36,-0.29,0.38
0.36,-0.3,0.37
0.36,-0.31,0.37
0.37,-0.31,0.37
0.36,-0.3,0.36
0.38,-0.3,0.37
0.42,-0.33,0.43
0.47,-0.39,0.53
0.52,-0.47,0.64
0.67,-0.57,0.92
1.13,-0.77,1.5
1.19,-0.83,2.09
0.83,-0.67,2.03
0.68,-0.58,1.5
0.6,-0.5,1.17
0.62,-0.46,1.03
0.69,-0.45,0.9
0.7,-0.43,0.77
0.64,-0.43,0.71
0.59,-0.42,0.71
0.56,-0.4,0.74
0.53,-0.38,0.78
0.51,-0.35,0.79
0.49,-0.32,0.78
0.46,-0.29,0.76
0.44,-0.25,0.68
0.39,-0.24,0.65
0.37,-0.23,0.61
0.35,-0.23,0.55
0.32,-0.22,0.48
0.29,-0.2,0.42
0.27,-0.18,0.39
0.25,-0.18,0.37
0.25,-0.18,0.36
0.25,-0.17,0.36
0.24,-0.17,0.35
0.24,-0.17,0.34
0.27,-0.19,0.38
0.34,-0.26,0.48
0.45,-0.37,0.62
0.58,-0.51,0.83
1.06,-0.82,1.13
1.32,-1.06,1.84
1.1,-0.87,2.29
0.86,-0.66,1.87
0.61,-0.61,1.32
0.57,-0.54,1.04
0.61,-0.48,0.9
0.68,-0.44,0.78
0.73,-0.42,0.75
0.68,-0.4,0.8
0.62,-0.37,0.82
0.49,-0.34,0.8
0.46,-0.31,0.76
0.44,-0.27,0.7
0.41,-0.24,0.63
0.38,-0.22,0.57
0.36,-0.21,0.53
0.34,-0.21,0.49
0.31,-0.2,0.44
0.28,-0.2,0.4
0.27,-0.21,0.38
0.27,-0.22,0.38
0.27,-0.23,0.37
0.27,-0.24,0.37
0.27,-0.25,0.37
0.32,-0.29,0.43
0.41,-0.36,0.55
0.5,-0.46,0.7
0.59,-0.57,0.85
0.67,-0.69,1.02
0.89,-0.84,1.21
1.1,-0.9,1.44
0.85,-0.77,1.69
0.63,-0.64,1.61
0.69,-0.59,1.24
0.65,-0.5,0.92
0.59,-0.42,0.93
0.6,-0.42,0.92
0.54,-0.39,0.86
0.47,-0.36,0.8
0.44,-0.32,0.77
0.42,-0.3,0.76
0.41,-0.29,0.75
0.4,-0.27,0.73
0.38,-0.25,0.69
0.36,-0.24,0.64
0.33,-0.23,0.6
0.3,-0.21,0.53
0.27,-0.19,0.46
0.25,-0.17,0.42
0.26,-0.18,0.41
0.28,-0.21,0.44
0.3,-0.24,0.45
0.3,-0.25,0.43
0.32,-0.26,0.42
0.38,-0.31,0.48
0.47,-0.4,0.57
0.56,-0.49,0.69
0.67,-0.59,0.86
0.91,-0.74,1.05
1.13,-0.84,1.53
1.01,-0.73,1.9
0.8,-0.47,1.17
0.57,-0.41,0.93
0.59,-0.39,0.89
0.65,-0.39,0.89
0.65,-0.4,0.89
0.59,-0.39,0.88
0.54,-0.38,0.87
0.5,-0.36,0.86
0.47,-0.32,0.84
0.45,-0.3,0.81
0.43,-0.27,0.76
0.4,-0.25,0.71
0.37,-0.23,0.65
0.34,-0.22,0.61
0.33,-0.22,0.58
0.31,-0.22,0.52
0.28,-0.21,0.46
0.28,-0.21,0.43
0.28,-0.22,0.39
0.3,-0.24,0.37
0.31,-0.26,0.36
0.31,-0.27,0.34
0.29,-0.26,0.3
0.29,-0.27,0.32
0.37,-0.34,0.43
0.5,-0.44,0.61
0.6,-0.54,1.02
1.32,-0.88,1.5
1.18,-0.9,2.1
0.81,-0.7,2.06
0.67,-0.58,1.47
0.56,-0.51,1.04
0.58,-0.43,0.89
0.63,-0.42,0.86
0.65,-0.41,0.86
0.61,-0.4,0.85
0.55,-0.39,0.84
0.46,-0.36,0.82
0.4,-0.33,0.79
0.4,-0.32,0.76
0.4,-0.3,0.71
0.38,-0.28,0.64
0.34,-0.27,0.57
0.3,-0.25,0.51
0.27,-0.25,0.46
0.24,-0.24,0.41
0.22,-0.24,0.38
0.22,-0.24,0.37
0.23,-0.25,0.36
0.26,-0.25,0.35
0.27,-0.25,0.33
0.28,-0.25,0.32
0.35,-0.29,0.59
0.55,-0.51,0.73
0.69,-0.64,0.95
1.15,-0.81,1.34
1.35,-0.89,1.94
1.1,-0.73,2.1
0.85,-0.56,1.57
0.67,-0.48,1.09
0.66,-0.41,0.89
0.66,-0.39,0.87
0.63,-0.39,0.9
0.59,-0.39,0.9
0.53,-0.37,0.85
0.44,-0.34,0.8
0.35,-0.3,0.74
0.31,-0.25,0.69
0.29,-0.22,0.64
0.25,-0.21,0.58
0.2,-0.2,0.52
0.16,-0.19,0.46
0.14,-0.18,0.4
0.13,-0.18,0.35
0.12,-0.19,0.34
0.13,-0.2,0.33
0.15,-0.22,0.33
0.2,-0.25,0.36
0.29,-0.33,0.63
0.63,-0.63,0.99
1.07,-0.95,1.33
1.3,-1.07,1.81
1.04,-0.75,2.13
0.79,-0.54,1.67
0.64,-0.51,1.12
0.58,-0.44,0.87
0.64,-0.43,0.82
0.65,-0.41,0.84
0.65,-0.39,0.86
0.59,-0.37,0.86
0.52,-0.35,0.84
0.44,-0.31,0.82
0.42,-0.28,0.78
0.4,-0.27,0.73
0.34,-0.25,0.69
0.28,-0.22,0.62
0.23,-0.21,0.55
0.19,-0.19,0.49
0.16,-0.18,0.45
0.15,-0.18,0.43
0.15,-0.19,0.41
0.18,-0.22,0.42
0.21,-0.26,0.42
0.2,-0.27,0.38
0.21,-0.29,0.46
0.43,-0.47,0.59
0.55,-0.56,0.73
0.77,-0.68,1.11
1.21,-0.92,1.37
1.36,-0.95,1.67
1.05,-0.65,1.89
0.78,-0.51,1.47
0.66,-0.47,1.01
0.63,-0.41,0.84
0.63,-0.42,0.84
0.65,-0.42,0.88
0.64,-0.41,0.91
0.58,-0.39,0.91
0.52,-0.37,0.88
0.45,-0.34,0.85
0.41,-0.32,0.82
0.39,-0.3,0.78
0.36,-0.28,0.72
0.31,-0.26,0.66
0.27,-0.25,0.62
0.23,-0.25,0.6
0.21,-0.24,0.55
0.18,-0.22,0.49
0.16,-0.21,0.44
0.16,-0.21,0.42
0.18,-0.23,0.42
0.23,-0.26,0.4
0.26,-0.28,0.42
0.35,-0.35,0.52
0.49,-0.46,0.69
0.59,-0.56,0.86
0.85,-0.72,1.09
1.21,-0.87,1.44
1.08,-0.75,1.87
0.91,-0.57,1.8
0.78,-0.5,1.29
0.6,-0.41,0.96
0.62,-0.37,0.85
0.61,-0.38,0.84
0.59,-0.38,0.87
0.55,-0.36,0.88
0.49,-0.35,0.86
0.42,-0.32,0.83
0.37,-0.3,0.79
0.34,-0.28,0.74
0.31,-0.25,0.7
0.27,-0.24,0.64
0.22,-0.22,0.56
0.15,-0.2,0.47
0.12,-0.19,0.42
0.12,-0.2,0.4
0.15,-0.22,0.41
0.2,-0.28,0.4
0.24,-0.31,0.43
0.35,-0.39,0.53
0.47,-0.5,0.67
0.59,-0.6,0.85
0.91,-0.81,1.05
1.23,-0.88,1.43
1.16,-0.66,1.8
0.95,-0.51,1.59
0.73,-0.46,1.14
0.63,-0.42,0.89
0.66,-0.41,0.83
0.66,-0.41,0.87
0.67,-0.4,0.94
0.62,-0.39,0.99
0.57,-0.37,0.97
0.5,-0.33,0.93
0.46,-0.31,0.89
0.46,-0.29,0.84
0.41,-0.28,0.8
0.36,-0.28,0.76
0.32,-0.28,0.73
0.28,-0.27,0.7
0.25,-0.26,0.64
0.22,-0.24,0.59
0.19,-0.23,0.52
0.15,-0.22,0.42
0.16,-0.23,0.41
0.18,-0.25,0.41
0.21,-0.27,0.41
0.22,-0.28,0.39
0.24,-0.28,0.39
0.31,-0.32,0.46
0.42,-0.42,0.6
0.5,-0.52,0.74
0.59,-0.6,0.87
0.85,-0.69,1.21
1.33,-0.82,1.6
1.3,-0.79,1.92
0.94,-0.56,1.85
0.77,-0.43,1.3
0.64,-0.37,0.93
0.61,-0.32,0.84
0.59,-0.33,0.87
0.57,-0.31,0.9
0.53,-0.29,0.88
0.47,-0.29,0.82
0.42,-0.27,0.79
0.41,-0.26,0.77
0.4,-0.26,0.75
0.37,-0.26,0.72
0.34,-0.25,0.69
0.31,-0.24,0.58
0.25,-0.23,0.53
0.24,-0.22,0.5
0.23,-0.23,0.48
0.23,-0.24,0.46
0.24,-0.27,0.45
0.24,-0.28,0.42
0.24,-0.28,0.38
0.26,-0.3,0.38
0.31,-0.36,0.45
0.51,-0.49,0.81
1.09,-0.77,1.25
1.26,-0.9,1.71
0.84,-0.65,2.03
0.79,-0.55,1.76
0.66,-0.57,1.31
0.4,-0.47,1.05
0.42,-0.42,0.9
0.44,-0.39,0.78
0.44,-0.36,0.71
0.47,-0.35,0.69
0.47,-0.36,0.76
0.45,-0.38,0.85
0.45,-0.39,0.92
0.48,-0.39,0.95
0.49,-0.38,0.95
0.48,-0.36,0.96
0.46,-0.34,0.95
0.45,-0.31,0.94
0.45,-0.29,0.93
0.43,-0.27,0.92
0.44,-0.26,0.92
0.45,-0.26,0.92
0.45,-0.27,0.92
0.44,-0.27,0.91
0.44,-0.28,0.9
0.44,-0.29,0.88
0.43,-0.28,0.84
0.44,-0.27,0.8
0.44,-0.26,0.79
0.44,-0.25,0.78
0.44,-0.24,0.77
0.43,-0.22,0.77
0.42,-0.21,0.76
0.43,-0.21,0.76
0.43,-0.2,0.75
0.42,-0.18,0.71
0.42,-0.17,0.69
0.41,-0.17,0.67
0.4,-0.16,0.65
0.39,-0.16,0.63
0.39,-0.16,0.62
0.4,-0.18,0.62
0.4,-0.18,0.62
0.41,-0.2,0.62
0.42,-0.22,0.61
0.42,-0.23,0.59
0.41,-0.22,0.55
0.39,-0.22,0.51
0.37,-0.21,0.48
0.35,-0.21,0.45
0.33,-0.2,0.43
0.31,-0.21,0.41
0.29,-0.22,0.4
0.3,-0.24,0.42
0.33,-0.29,0.49
0.37,-0.37,0.56
0.39,-0.43,0.62
0.41,-0.48,0.66
0.65,-0.65,1.23
1.13,-0.95,1.85
1.11,-0.92,2.36
0.7,-0.62,2.72
0.68,-0.58,2.31
0.64,-0.55,1.69
0.4,-0.4,1.22
0.31,-0.34,0.91
0.31,-0.31,0.67
0.31,-0.32,0.43
0.33,-0.33,0.4
0.35,-0.33,0.41
0.36,-0.34,0.47
0.42,-0.38,0.58
0.53,-0.45,0.73
0.62,-0.5,0.85
0.62,-0.51,0.95
0.56,-0.49,1.04
0.51,-0.46,1.05
0.45,-0.44,1
0.42,-0.43,0.95
0.42,-0.42,0.92
0.45,-0.42,0.91
0.48,-0.42,0.9
0.52,-0.42,0.88
0.55,-0.43,0.89
0.57,-0.46,0.94
0.59,-0.48,0.98
0.58,-0.48,0.98
0.56,-0.45,0.96
0.55,-0.41,0.95
0.55,-0.38,0.96
0.55,-0.35,0.96
0.53,-0.32,0.93
0.5,-0.29,0.9
0.47,-0.26,0.85
0.45,-0.24,0.84
0.45,-0.25,0.81
0.43,-0.23,0.77
0.4,-0.22,0.74
0.39,-0.21,0.72
0.39,-0.2,0.72
0.4,-0.19,0.69
0.41,-0.18,0.66
0.39,-0.17,0.63
0.39,-0.17,0.59
0.38,-0.17,0.56
0.36,-0.18,0.55
0.35,-0.19,0.55
0.36,-0.21,0.54
0.37,-0.22,0.55
0.39,-0.24,0.56
0.4,-0.27,0.55
0.39,-0.28,0.52
0.37,-0.28,0.46
0.35,-0.27,0.41
0.33,-0.27,0.37
0.31,-0.27,0.35
0.29,-0.28,0.34
0.28,-0.29,0.35
0.28,-0.32,0.38
0.29,-0.36,0.51
0.58,-0.58,0.56
1.02,-0.79,1.13
1.25,-0.89,2.13
0.99,-0.72,2.62
0.76,-0.57,2.48
0.73,-0.58,1.95
0.54,-0.45,1.42
0.36,-0.31,1.03
0.31,-0.26,0.75
0.31,-0.26,0.55
0.31,-0.29,0.42
0.33,-0.32,0.35
0.36,-0.33,0.34
0.37,-0.34,0.4
0.41,-0.37,0.5
0.48,-0.41,0.6
0.54,-0.45,0.74
0.58,-0.5,0.92
0.57,-0.54,1.06
0.52,-0.53,1.1
0.47,-0.49,1.05
0.43,-0.45,0.96
0.42,-0.42,0.88
0.43,-0.41,0.83
0.46,-0.42,0.83
0.51,-0.43,0.95
0.59,-0.46,0.98
0.58,-0.44,0.98
0.58,-0.42,0.95
0.57,-0.39,0.92
0.54,-0.37,0.89
0.52,-0.37,0.87
0.54,-0.37,0.87
0.57,-0.38,0.91
0.58,-0.37,0.96
0.57,-0.36,0.98
0.56,-0.34,0.97
0.53,-0.31,0.94
0.5,-0.29,0.91
0.48,-0.27,0.88
0.46,-0.25,0.86
0.45,-0.24,0.83
0.44,-0.23,0.8
0.43,-0.21,0.76
0.42,-0.19,0.7
0.42,-0.17,0.65
0.42,-0.16,0.61
0.42,-0.15,0.61
0.42,-0.15,0.61
0.4,-0.14,0.59
0.37,-0.13,0.56
0.35,-0.13,0.53
0.34,-0.15,0.54
0.36,-0.17,0.55
0.38,-0.2,0.56
0.4,-0.23,0.55
0.4,-0.23,0.51
0.39,-0.23,0.46
0.37,-0.23,0.43
0.36,-0.23,0.4
0.34,-0.25,0.4
0.32,-0.26,0.4
0.31,-0.28,0.39
0.31,-0.3,0.4
0.31,-0.31,0.41
0.3,-0.34,0.41
0.29,-0.36,0.4
0.78,-0.59,0.84
1.24,-0.92,1.63
1.29,-0.86,2.37
1.16,-0.66,2.74
0.89,-0.72,2.42
0.77,-0.75,1.82
0.6,-0.56,1.26
0.48,-0.42,0.87
0.43,-0.36,0.6
0.35,-0.34,0.42
0.28,-0.34,0.27
0.25,-0.34,0.28
0.27,-0.34,0.32
0.31,-0.36,0.4
0.38,-0.39,0.53
0.45,-0.43,0.71
0.51,-0.46,0.9
0.55,-0.49,1.06
0.58,-0.5,1.15
0.59,-0.5,1.14
0.58,-0.48,1.07
0.55,-0.45,0.95
0.53,-0.42,0.82
0.5,-0.4,0.72
0.48,-0.39,0.65
0.5,-0.38,0.63
0.51,-0.38,0.64
0.51,-0.38,0.68
0.51,-0.38,0.72
0.52,-0.38,0.75
0.53,-0.38,0.78
0.53,-0.38,0.8
0.53,-0.39,0.82
0.53,-0.4,0.82
0.54,-0.41,0.82
0.53,-0.41,0.8
0.53,-0.41,0.77
0.52,-0.41,0.76
0.51,-0.41,0.75
0.51,-0.42,0.76
0.52,-0.43,0.78
0.52,-0.44,0.8
0.52,-0.44,0.8
0.51,-0.43,0.81
0.51,-0.42,0.82
0.53,-0.44,0.86
0.52,-0.46,0.87
0.52,-0.46,0.89
0.53,-0.44,0.89
0.53,-0.43,0.89
0.53,-0.41,0.86
0.55,-0.39,0.86
0.58,-0.38,0.91
0.61,-0.4,0.97
0.63,-0.43,1.01
0.65,-0.42,1.05
0.69,-0.41,1.07
0.69,-0.41,1.05
0.64,-0.36,1.02
0.6,-0.35,0.99
0.59,-0.35,0.95
0.6,-0.32,0.94
0.59,-0.3,0.92
0.61,-0.29,0.85
0.63,-0.29,0.83
0.63,-0.27,0.79
0.61,-0.25,0.76
0.61,-0.22,0.74
0.63,-0.21,0.73
0.64,-0.21,0.72
0.62,-0.19,0.72
0.61,-0.19,0.71
0.63,-0.2,0.72
0.63,-0.21,0.74
0.61,-0.19,0.73
0.58,-0.17,0.71
0.55,-0.15,0.69
0.51,-0.14,0.67
0.48,-0.13,0.63
0.46,-0.11,0.61
0.45,-0.09,0.61
0.46,-0.08,0.6
0.46,-0.06,0.59
0.46,-0.05,0.58
0.45,-0.05,0.55
0.43,-0.03,0.5
0.41,-0.02,0.43
0.39,-0.02,0.4
0.36,-0.03,0.39
0.34,-0.04,0.39
0.3,-0.04,0.38
0.27,-0.03,0.36
0.26,-0.04,0.32
0.26,-0.05,0.31
0.26,-0.07,0.31
0.28,-0.11,0.32
0.31,-0.15,0.37
0.35,-0.2,0.42
0.37,-0.25,0.45
0.38,-0.3,0.43
0.37,-0.32,0.37
0.33,-0.35,0.3
0.54,-0.5,-0.21
0.48,-0.73,-0.29
1.46,-1.13,1.69
2.31,-1.11,3.46
1.31,-0.88,3.59
0.73,-0.93,3.2
0.74,-0.81,2.24
0.6,-0.59,1.35
0.43,-0.36,0.83
0.38,-0.26,0.46
0.3,-0.23,0.27
0.27,-0.23,0.2
0.28,-0.24,0.17
0.3,-0.3,0.19
0.34,-0.33,0.25
0.41,-0.38,0.35
0.5,-0.42,0.52
0.58,-0.46,0.74
0.63,-0.49,0.99
0.65,-0.52,1.2
0.64,-0.52,1.32
0.6,-0.51,1.3
0.55,-0.48,1.15
0.51,-0.45,0.96
0.5,-0.42,0.79
0.49,-0.4,0.67
0.49,-0.39,0.6
0.49,-0.38,0.57
0.5,-0.38,0.58
0.52,-0.38,0.62
0.54,-0.38,0.68
0.55,-0.37,0.73
0.55,-0.38,0.78
0.55,-0.38,0.81
0.55,-0.39,0.83
0.55,-0.41,0.83
0.55,-0.42,0.82
0.54,-0.42,0.8
0.53,-0.43,0.78
0.52,-0.42,0.73
0.52,-0.42,0.72
0.51,-0.43,0.73
0.51,-0.42,0.74
0.51,-0.42,0.75
0.52,-0.42,0.77
0.53,-0.42,0.78
0.53,-0.41,0.79
0.53,-0.4,0.79
0.53,-0.4,0.78
0.53,-0.4,0.77
0.53,-0.4,0.76
0.53,-0.4,0.76
0.53,-0.4,0.76
0.54,-0.4,0.76
0.54,-0.4,0.76
0.54,-0.4,0.76
0.55,-0.41,0.77
0.56,-0.42,0.78
0.56,-0.43,0.79
0.55,-0.42,0.79
0.54,-0.42,0.79
0.54,-0.42,0.81
0.54,-0.43,0.82
0.53,-0.44,0.83
0.53,-0.45,0.85
0.55,-0.46,0.88
0.59,-0.46,0.89
0.6,-0.47,0.9
0.61,-0.46,0.89
0.6,-0.45,0.89
0.59,-0.43,0.89
0.61,-0.42,0.9
0.64,-0.4,0.92
0.66,-0.4,0.9
0.66,-0.4,0.87
0.65,-0.38,0.85
0.67,-0.36,0.83
0.7,-0.35,0.82
0.72,-0.34,0.84
0.72,-0.33,0.88
0.71,-0.32,0.91
0.68,-0.3,0.91
0.67,-0.29,0.91
0.66,-0.27,0.9
0.63,-0.25,0.87
0.61,-0.24,0.85
0.61,-0.22,0.84
0.6,-0.22,0.82
0.57,-0.22,0.78
0.55,-0.19,0.75
0.54,-0.18,0.72
0.51,-0.17,0.65
0.48,-0.12,0.63
0.48,-0.11,0.63
0.48,-0.1,0.62
0.46,-0.09,0.61
0.45,-0.09,0.6
0.44,-0.08,0.58
0.43,-0.08,0.56
0.42,-0.08,0.54
0.4,-0.07,0.51
0.37,-0.06,0.48
0.36,-0.05,0.47
0.36,-0.05,0.44
0.36,-0.05,0.42
0.36,-0.06,0.41
0.35,-0.08,0.41
0.33,-0.09,0.41
0.32,-0.09,0.4
0.31,-0.09,0.4
0.3,-0.11,0.39
0.3,-0.12,0.37
0.3,-0.15,0.36
0.28,-0.17,0.36
0.27,-0.19,0.34
0.26,-0.23,0.33
0.26,-0.27,0.3
0.26,-0.33,0.27
0.68,-0.73,0.25
1.49,-1.3,1.66
2.14,-1.22,3.28
1.62,-0.82,3.49
0.68,-0.79,3.08
0.56,-0.82,2.08
0.42,-0.6,1.25
0.28,-0.34,0.79
0.32,-0.31,0.42
0.29,-0.29,0.22
0.21,-0.26,0.15
0.23,-0.29,0.13
0.26,-0.32,0.15
0.25,-0.35,0.22
0.29,-0.39,0.33
0.4,-0.43,0.46
0.52,-0.46,0.64
0.62,-0.49,0.88
0.66,-0.54,1.12
0.65,-0.56,1.3
0.61,-0.52,1.34
0.55,-0.48,1.23
0.5,-0.44,1.03
0.46,-0.4,0.85
0.43,-0.39,0.71
0.42,-0.38,0.58
0.45,-0.38,0.57
0.5,-0.38,0.61
0.53,-0.39,0.67
0.56,-0.39,0.73
0.57,-0.39,0.78
0.56,-0.39,0.82
0.55,-0.4,0.84
0.55,-0.41,0.84
0.55,-0.42,0.83
0.54,-0.43,0.81
0.53,-0.43,0.78
0.52,-0.43,0.76
0.51,-0.44,0.74
0.5,-0.44,0.73
0.5,-0.44,0.73
0.49,-0.44,0.74
0.49,-0.44,0.76
0.49,-0.44,0.77
0.49,-0.43,0.79
0.5,-0.43,0.79
0.51,-0.43,0.8
0.52,-0.43,0.8
0.52,-0.44,0.81
0.51,-0.44,0.83
0.52,-0.45,0.85
0.53,-0.45,0.87
0.58,-0.48,0.9
0.59,-0.5,0.93
0.57,-0.51,0.92
0.55,-0.49,0.91
0.55,-0.47,0.9
0.57,-0.46,0.9
0.59,-0.46,0.9
0.61,-0.47,0.92
0.63,-0.49,0.93
0.64,-0.49,0.93
0.66,-0.47,0.94
0.66,-0.44,0.92
0.66,-0.4,0.91
0.64,-0.36,0.91
0.62,-0.33,0.91
0.61,-0.29,0.93
0.6,-0.27,0.93
0.59,-0.25,0.92
0.58,-0.22,0.89
0.55,-0.18,0.85
0.53,-0.15,0.82
0.53,-0.12,0.81
0.52,-0.11,0.79
0.51,-0.11,0.77
0.52,-0.11,0.77
0.52,-0.12,0.71
0.49,-0.1,0.69
0.49,-0.1,0.67
0.48,-0.09,0.65
0.46,-0.08,0.63
0.45,-0.08,0.62
0.45,-0.07,0.6
0.44,-0.06,0.58
0.43,-0.05,0.55
0.41,-0.03,0.52
0.38,-0.02,0.48
0.37,-0.01,0.46
0.37,-0.01,0.44
0.36,-0.01,0.43
0.36,-0.02,0.43
0.36,-0.03,0.42
0.35,-0.04,0.4
0.33,-0.04,0.37
0.31,-0.05,0.34
0.31,-0.06,0.33
0.31,-0.08,0.34
0.3,-0.11,0.36
0.3,-0.14,0.38
0.29,-0.17,0.4
0.28,-0.2,0.4
0.27,-0.24,0.39
0.26,-0.28,0.34
0.2,-0.4,0.34
1.55,-1.28,2.15
2.11,-1.59,3.48
1.38,-1.03,3.27
1.09,-0.93,3.25
0.77,-0.91,2.34
0.64,-0.76,1.36
0.37,-0.42,0.82
0.36,-0.3,0.45
0.36,-0.28,0.22
0.27,-0.24,0.15
0.25,-0.26,0.16
0.26,-0.3,0.19
0.24,-0.33,0.25
0.25,-0.37,0.34
0.32,-0.4,0.44
0.44,-0.45,0.59
0.56,-0.49,0.79
0.65,-0.53,1.01
0.67,-0.55,1.21
0.62,-0.54,1.3
0.57,-0.5,1.26
0.54,-0.45,1.11
0.5,-0.41,0.92
0.45,-0.38,0.76
0.44,-0.36,0.66
0.48,-0.36,0.57
0.51,-0.36,0.59
0.55,-0.37,0.64
0.57,-0.38,0.7
0.59,-0.38,0.76
0.61,-0.38,0.8
0.61,-0.38,0.82
0.6,-0.38,0.82
0.59,-0.38,0.82
0.58,-0.39,0.8
0.56,-0.4,0.77
0.55,-0.4,0.75
0.53,-0.41,0.73
0.52,-0.42,0.72
0.52,-0.43,0.72
0.51,-0.43,0.73
0.51,-0.43,0.75
0.51,-0.43,0.76
0.51,-0.42,0.78
0.51,-0.42,0.79
0.52,-0.41,0.79
0.52,-0.41,0.78
0.53,-0.4,0.78
0.53,-0.4,0.77
0.54,-0.4,0.77
0.55,-0.4,0.77
0.55,-0.41,0.78
0.55,-0.41,0.79
0.54,-0.41,0.8
0.54,-0.41,0.81
0.55,-0.41,0.83
0.56,-0.42,0.86
0.58,-0.44,0.89
0.6,-0.45,0.9
0.6,-0.45,0.91
0.61,-0.47,0.91
0.63,-0.49,0.91
0.64,-0.51,0.9
0.64,-0.51,0.88
0.63,-0.5,0.87
0.67,-0.47,0.85
0.73,-0.45,0.85
0.75,-0.42,0.87
0.72,-0.39,0.89
0.71,-0.37,0.91
0.7,-0.34,0.93
0.69,-0.31,0.93
0.66,-0.28,0.91
0.65,-0.25,0.9
0.66,-0.24,0.9
0.64,-0.24,0.88
0.61,-0.22,0.84
0.59,-0.19,0.82
0.57,-0.18,0.79
0.54,-0.16,0.76
0.53,-0.15,0.76
0.53,-0.15,0.75
0.51,-0.15,0.73
0.49,-0.13,0.7
0.48,-0.11,0.66
0.47,-0.09,0.62
0.46,-0.07,0.58
0.45,-0.06,0.55
0.45,-0.05,0.52
0.45,-0.05,0.52
0.44,-0.04,0.52
0.41,-0.04,0.51
0.38,-0.03,0.49
0.37,-0.01,0.48
0.37,-0.01,0.46
0.37,-0.02,0.45
0.37,-0.02,0.43
0.38,-0.03,0.42
0.38,-0.04,0.4
0.36,-0.05,0.38
0.34,-0.06,0.36
0.33,-0.07,0.34
0.31,-0.09,0.34
0.3,-0.14,0.36
0.3,-0.18,0.38
0.3,-0.21,0.4
0.29,-0.25,0.4
0.29,-0.29,0.39
0.28,-0.33,0.37
0.26,-0.38,0.35
1.44,-0.9,1.59
2.11,-1.29,2.77
1.81,-1.03,3.05
1.4,-0.77,3.31
0.63,-0.77,2.65
0.47,-0.76,1.62
0.31,-0.44,0.98
0.24,-0.23,0.6
0.31,-0.27,0.33
0.27,-0.28,0.21
0.23,-0.27,0.17
0.25,-0.3,0.18
0.27,-0.33,0.24
0.28,-0.35,0.32
0.34,-0.38,0.4
0.43,-0.43,0.49
0.57,-0.48,0.63
0.69,-0.52,0.85
0.76,-0.55,1.11
0.74,-0.52,1.32
0.53,-0.48,1.21
0.47,-0.44,1.01
0.45,-0.4,0.81
0.42,-0.37,0.69
0.41,-0.37,0.61
0.44,-0.38,0.58
0.49,-0.38,0.58
0.54,-0.39,0.62
0.58,-0.39,0.67
0.6,-0.39,0.73
0.61,-0.39,0.77
0.6,-0.38,0.79
0.59,-0.38,0.81
0.57,-0.39,0.82
0.56,-0.4,0.81
0.55,-0.41,0.8
0.54,-0.41,0.78
0.53,-0.42,0.75
0.52,-0.43,0.73
0.52,-0.42,0.72
0.51,-0.43,0.73
0.51,-0.43,0.74
0.51,-0.43,0.76
0.51,-0.43,0.77
0.51,-0.42,0.78
0.51,-0.42,0.79
0.52,-0.41,0.78
0.52,-0.41,0.77
0.52,-0.41,0.77
0.53,-0.41,0.76
0.53,-0.41,0.76
0.53,-0.41,0.77
0.54,-0.42,0.78
0.55,-0.42,0.79
0.53,-0.43,0.8
0.52,-0.42,0.81
0.51,-0.42,0.82
0.53,-0.42,0.83
0.56,-0.43,0.85
0.6,-0.43,0.86
0.63,-0.44,0.86
0.64,-0.45,0.86
0.64,-0.44,0.85
0.63,-0.44,0.84
0.61,-0.43,0.81
0.6,-0.41,0.79
0.63,-0.4,0.78
0.67,-0.4,0.81
0.72,-0.39,0.84
0.78,-0.39,0.88
0.8,-0.4,0.9
0.78,-0.39,0.9
0.74,-0.36,0.87
0.73,-0.33,0.86
0.74,-0.32,0.86
0.72,-0.31,0.84
0.7,-0.3,0.82
0.69,-0.29,0.81
0.67,-0.27,0.8
0.63,-0.26,0.78
0.59,-0.23,0.75
0.57,-0.22,0.74
0.56,-0.22,0.74
0.55,-0.21,0.74
0.52,-0.19,0.71
0.5,-0.16,0.69
0.5,-0.15,0.67
0.49,-0.14,0.66
0.47,-0.12,0.64
0.45,-0.11,0.62
0.43,-0.1,0.6
0.43,-0.09,0.58
0.42,-0.08,0.56
0.42,-0.08,0.56
0.41,-0.08,0.56
0.4,-0.07,0.55
0.38,-0.06,0.54
0.37,-0.06,0.53
0.36,-0.07,0.53
0.36,-0.07,0.52
0.38,-0.08,0.5
0.39,-0.09,0.47
0.37,-0.09,0.44
0.37,-0.11,0.44
0.35,-0.12,0.46
0.3,-0.13,0.49
0.28,-0.15,0.5
0.26,-0.17,0.47
0.23,-0.18,0.42
0.21,-0.21,0.37
0.2,-0.24,0.34
0.21,-0.29,0.32
0.21,-0.35,0.31
0.79,-0.8,0.96
1.51,-1.31,2.19
1.99,-1.15,2.99
1.63,-0.8,3.17
0.86,-0.77,2.61
0.74,-0.75,1.63
0.53,-0.48,0.94
0.35,-0.29,0.58
0.33,-0.27,0.35
0.26,-0.25,0.24
0.21,-0.3,0.21
0.24,-0.33,0.24
0.28,-0.37,0.32
0.35,-0.39,0.44
0.48,-0.43,0.6
0.59,-0.46,0.78
0.65,-0.48,0.97
0.67,-0.5,1.14
0.65,-0.5,1.24
0.61,-0.47,1.21
0.56,-0.44,1.07
0.5,-0.41,0.9
0.47,-0.4,0.75
0.45,-0.4,0.65
0.46,-0.4,0.6
0.48,-0.41,0.59
0.5,-0.43,0.62
0.53,-0.44,0.68
0.54,-0.44,0.75
0.54,-0.43,0.8
0.53,-0.43,0.83
0.52,-0.42,0.83
0.51,-0.41,0.83
0.52,-0.42,0.81
0.52,-0.42,0.8
0.51,-0.42,0.78
0.52,-0.41,0.75
0.52,-0.41,0.74
0.52,-0.41,0.74
0.53,-0.41,0.74
0.53,-0.41,0.75
0.52,-0.41,0.77
0.53,-0.41,0.77
0.53,-0.4,0.78
0.54,-0.4,0.77
0.55,-0.4,0.77
0.55,-0.39,0.77
0.55,-0.39,0.77
0.56,-0.4,0.78
0.57,-0.41,0.8
0.56,-0.42,0.82
0.54,-0.43,0.82
0.54,-0.42,0.82
0.54,-0.43,0.84
0.54,-0.44,0.86
0.57,-0.46,0.88
0.61,-0.47,0.89
0.63,-0.48,0.89
0.65,-0.5,0.9
0.67,-0.52,0.91
0.68,-0.52,0.89
0.68,-0.49,0.87
0.72,-0.44,0.86
0.78,-0.41,0.88
0.75,-0.38,0.92
0.76,-0.37,0.95
0.75,-0.35,0.95
0.73,-0.31,0.93
0.71,-0.28,0.91
0.7,-0.26,0.9
0.67,-0.25,0.86
0.65,-0.24,0.84
0.64,-0.22,0.83
0.62,-0.22,0.81
0.59,-0.2,0.78
0.56,-0.17,0.76
0.54,-0.16,0.75
0.53,-0.16,0.73
0.5,-0.14,0.69
0.48,-0.1,0.65
0.47,-0.08,0.62
0.45,-0.08,0.6
0.45,-0.07,0.59
0.43,-0.06,0.57
0.43,-0.06,0.55
0.42,-0.05,0.53
0.42,-0.05,0.51
0.4,-0.05,0.5
0.38,-0.04,0.45
0.36,-0.03,0.44
0.35,-0.03,0.44
0.35,-0.04,0.44
0.35,-0.05,0.44
0.36,-0.06,0.43
0.35,-0.07,0.41
0.33,-0.07,0.38
0.32,-0.07,0.35
0.32,-0.09,0.33
0.31,-0.11,0.33
0.31,-0.14,0.34
0.31,-0.18,0.35
0.29,-0.21,0.35
0.27,-0.25,0.35
0.25,-0.29,0.34
0.24,-0.34,0.33
0.23,-0.4,0.32
0.97,-0.74,0.8
2.15,-0.91,2.26
2.5,-0.89,3.3
1.47,-0.84,3.4
0.41,-0.75,2.89
0.33,-0.75,1.83
0.19,-0.45,1.11
0.05,-0.21,0.73
0.12,-0.26,0.44
0.16,-0.31,0.19
0.26,-0.34,0.19
0.26,-0.36,0.25
0.29,-0.36,0.34
0.38,-0.38,0.42
0.47,-0.43,0.52
0.58,-0.48,0.65
0.7,-0.51,0.84
0.81,-0.53,1.05
0.81,-0.53,1.22
0.67,-0.49,1.27
0.51,-0.46,1.19
0.41,-0.44,1.03
0.38,-0.41,0.84
0.37,-0.37,0.71
0.37,-0.37,0.64
0.42,-0.39,0.61
0.49,-0.39,0.63
0.56,-0.42,0.68
0.6,-0.43,0.73
0.61,-0.41,0.76
0.62,-0.38,0.78
0.6,-0.37,0.79
0.56,-0.36,0.79
0.54,-0.37,0.79
0.54,-0.38,0.8
0.53,-0.38,0.79
0.53,-0.39,0.78
0.53,-0.39,0.76
0.53,-0.39,0.75
0.53,-0.4,0.75
0.54,-0.41,0.77
0.54,-0.41,0.79
0.52,-0.41,0.8
0.51,-0.41,0.8
0.51,-0.42,0.81
0.51,-0.42,0.81
0.52,-0.41,0.81
0.52,-0.4,0.81
0.51,-0.38,0.82
0.52,-0.38,0.83
0.55,-0.39,0.84
0.57,-0.39,0.86
0.58,-0.39,0.88
0.61,-0.4,0.9
0.63,-0.41,0.91
0.63,-0.41,0.91
0.64,-0.42,0.9
0.65,-0.42,0.9
0.66,-0.41,0.88
0.7,-0.4,0.86
0.72,-0.39,0.84
0.72,-0.36,0.85
0.7,-0.34,0.86
0.69,-0.33,0.87
0.66,-0.31,0.87
0.63,-0.29,0.86
0.62,-0.27,0.85
0.61,-0.26,0.83
0.6,-0.24,0.81
0.58,-0.22,0.8
0.58,-0.21,0.79
0.57,-0.2,0.78
0.55,-0.18,0.77
0.53,-0.17,0.77
0.52,-0.16,0.78
0.51,-0.16,0.79
0.49,-0.15,0.79
0.48,-0.14,0.78
0.47,-0.13,0.76
0.47,-0.12,0.73
0.46,-0.11,0.69
0.46,-0.09,0.65
0.46,-0.08,0.63
0.46,-0.08,0.62
0.45,-0.08,0.62
0.43,-0.07,0.62
0.41,-0.06,0.62
0.38,-0.05,0.61
0.37,-0.04,0.6
0.37,-0.04,0.59
0.38,-0.05,0.57
0.38,-0.06,0.56
0.38,-0.07,0.54
0.36,-0.08,0.51
0.33,-0.08,0.49
0.31,-0.09,0.46
0.3,-0.1,0.45
0.29,-0.12,0.45
0.29,-0.15,0.47
0.3,-0.18,0.49
0.31,-0.21,0.49
0.31,-0.24,0.47
0.3,-0.28,0.44
0.3,-0.31,0.41
0.29,-0.36,0.39
0.34,-0.43,0.23
0.89,-0.78,1.43
1.61,-1.09,2.67
1.97,-1.03,2.65
1.63,-0.82,2.68
0.97,-0.75,2.23
0.7,-0.73,1.45
0.52,-0.5,0.91
0.41,-0.31,0.32
0.26,-0.23,0.21
0.2,-0.26,0.18
0.18,-0.29,0.21
0.2,-0.31,0.28
0.23,-0.32,0.39
0.3,-0.34,0.54
0.4,-0.39,0.72
0.51,-0.42,0.91
0.61,-0.44,1.08
0.66,-0.46,1.2
0.65,-0.48,1.25
0.63,-0.47,1.18
0.6,-0.44,1.03
0.54,-0.42,0.87
0.5,-0.42,0.73
0.47,-0.4,0.64
0.44,-0.4,0.6
0.42,-0.41,0.6
0.43,-0.43,0.64
0.45,-0.45,0.7
0.48,-0.45,0.76
0.5,-0.45,0.82
0.51,-0.44,0.84
0.52,-0.43,0.85
0.52,-0.43,0.87
0.54,-0.44,0.86
0.53,-0.45,0.83
0.51,-0.43,0.79
0.5,-0.41,0.75
0.5,-0.42,0.74
0.49,-0.44,0.77
0.46,-0.45,0.82
0.44,-0.44,0.87
0.47,-0.44,0.92
0.54,-0.45,0.95
0.61,-0.47,0.95
0.72,-0.51,0.94
0.8,-0.54,0.9
0.8,-0.55,0.84
0.79,-0.53,0.76
0.77,-0.5,0.71
0.74,-0.48,0.71
0.74,-0.47,0.74
0.74,-0.44,0.8
0.77,-0.42,0.87
0.78,-0.41,0.92
0.77,-0.38,0.94
0.75,-0.35,0.92
0.74,-0.3,0.88
0.71,-0.26,0.84
0.67,-0.21,0.8
0.62,-0.12,0.75
0.58,-0.1,0.76
0.58,-0.09,0.78
0.57,-0.09,0.8
0.57,-0.08,0.81
0.55,-0.07,0.8
0.53,-0.06,0.76
0.51,-0.03,0.73
0.5,-0.02,0.7
0.49,-0.02,0.67
0.47,-0.01,0.65
0.49,0.01,0.64
0.48,0.01,0.64
0.45,0.01,0.63
0.45,0.04,0.61
0.43,0.05,0.6
0.42,0.06,0.59
0.4,0.07,0.58
0.39,0.08,0.55
0.36,0.09,0.51
0.34,0.11,0.48
0.33,0.12,0.46
0.33,0.11,0.44
0.32,0.1,0.44
0.33,0.08,0.45
0.33,0.06,0.44
0.3,0.05,0.41
0.28,0.03,0.4
0.26,0,0.4
0.25,-0.02,0.38
0.24,-0.05,0.36
0.24,-0.08,0.35
0.23,-0.13,0.35
0.22,-0.17,0.34
0.2,-0.22,0.32
0.2,-0.28,0.3
0.2,-0.35,0.29
1.12,-0.83,1.31
2.35,-1.3,2.57
2.76,-1.14,3.12
2.08,-0.88,3.31
0.98,-0.93,2.63
0.71,-0.84,1.56
0.58,-0.41,0.82
0.4,-0.21,0.44
0.32,-0.22,0.26
0.23,-0.24,0.21
0.19,-0.25,0.2
0.16,-0.28,0.23
0.16,-0.32,0.28
0.22,-0.35,0.35
0.3,-0.38,0.44
0.43,-0.43,0.71
0.71,-0.5,0.9
0.77,-0.53,1.08
0.78,-0.54,1.2
0.72,-0.52,1.23
0.58,-0.46,1.13
0.48,-0.41,0.95
0.43,-0.38,0.8
0.41,-0.36,0.68
0.41,-0.36,0.61
0.45,-0.36,0.59
0.5,-0.37,0.61
0.55,-0.39,0.67
0.59,-0.39,0.73
0.61,-0.39,0.79
0.62,-0.38,0.82
0.6,-0.37,0.82
0.58,-0.36,0.81
0.55,-0.36,0.8
0.54,-0.37,0.78
0.53,-0.38,0.77
0.52,-0.39,0.76
0.52,-0.4,0.74
0.53,-0.4,0.74
0.53,-0.4,0.74
0.54,-0.41,0.75
0.54,-0.41,0.76
0.55,-0.41,0.79
0.55,-0.4,0.79
0.54,-0.39,0.79
0.55,-0.39,0.78
0.55,-0.38,0.78
0.54,-0.38,0.77
0.54,-0.37,0.77
0.54,-0.38,0.77
0.56,-0.39,0.79
0.57,-0.4,0.82
0.57,-0.42,0.85
0.58,-0.42,0.87
0.59,-0.42,0.88
0.59,-0.41,0.88
0.58,-0.42,0.89
0.58,-0.43,0.89
0.61,-0.45,0.88
0.64,-0.46,0.87
0.67,-0.47,0.86
0.7,-0.48,0.85
0.75,-0.49,0.85
0.81,-0.49,0.81
0.84,-0.49,0.77
0.8,-0.46,0.75
0.78,-0.43,0.75
0.77,-0.39,0.74
0.77,-0.32,0.81
0.78,-0.3,0.84
0.74,-0.27,0.84
0.72,-0.25,0.83
0.7,-0.22,0.81
0.68,-0.18,0.79
0.66,-0.16,0.77
0.64,-0.16,0.76
0.64,-0.15,0.77
0.65,-0.16,0.78
0.61,-0.15,0.76
0.56,-0.13,0.73
0.53,-0.1,0.69
0.5,-0.07,0.67
0.48,-0.05,0.65
0.45,-0.03,0.64
0.44,-0.01,0.62
0.43,0.01,0.61
0.42,0.02,0.6
0.42,0.03,0.58
0.41,0.04,0.57
0.4,0.05,0.56
0.38,0.05,0.53
0.34,0.06,0.49
0.32,0.08,0.46
0.31,0.08,0.44
0.32,0.06,0.45
0.29,0.05,0.45
0.29,0.04,0.44
0.27,0.03,0.43
0.27,0.02,0.42
0.27,0,0.41
0.28,-0.03,0.42
0.26,-0.06,0.41
0.24,-0.09,0.39
0.23,-0.13,0.35
0.2,-0.17,0.32
0.19,-0.22,0.29
0.17,-0.29,0.28
0.19,-0.38,0.32
1.33,-1.48,1.85
2.73,-1.97,2.99
2.43,-0.98,2.93
1.32,-0.76,2.93
0.72,-0.93,2.15
0.53,-0.66,1.27
0.35,-0.32,0.7
0.25,-0.23,0.39
0.16,-0.24,0.28
0.15,-0.26,0.27
0.17,-0.29,0.27
0.17,-0.32,0.29
0.22,-0.36,0.38
0.4,-0.42,0.48
0.55,-0.47,0.63
0.69,-0.51,0.8
0.78,-0.55,1
0.8,-0.56,1.17
0.7,-0.55,1.24
0.55,-0.51,1.2
0.43,-0.45,1.04
0.39,-0.4,0.86
0.37,-0.38,0.71
0.38,-0.37,0.63
0.4,-0.37,0.6
0.45,-0.38,0.61
0.51,-0.39,0.65
0.57,-0.39,0.7
0.61,-0.38,0.76
0.62,-0.36,0.8
0.61,-0.36,0.82
0.58,-0.36,0.83
0.55,-0.35,0.83
0.53,-0.36,0.82
0.53,-0.36,0.81
0.53,-0.36,0.79
0.53,-0.37,0.77
0.53,-0.37,0.75
0.54,-0.39,0.75
0.54,-0.39,0.75
0.55,-0.39,0.76
0.54,-0.38,0.77
0.54,-0.38,0.78
0.54,-0.38,0.78
0.54,-0.38,0.78
0.53,-0.38,0.78
0.53,-0.38,0.78
0.53,-0.39,0.78
0.53,-0.39,0.78
0.53,-0.4,0.8
0.54,-0.42,0.81
0.54,-0.44,0.82
0.55,-0.44,0.83
0.56,-0.43,0.85
0.59,-0.46,0.88
0.61,-0.5,0.91
0.6,-0.51,0.91
0.61,-0.5,0.89
0.63,-0.5,0.87
0.65,-0.5,0.88
0.65,-0.5,0.87
0.64,-0.5,0.84
0.63,-0.48,0.8
0.63,-0.45,0.78
0.66,-0.44,0.79
0.67,-0.39,0.8
0.67,-0.36,0.79
0.69,-0.34,0.79
0.68,-0.32,0.8
0.66,-0.3,0.8
0.64,-0.27,0.8
0.63,-0.25,0.81
0.63,-0.23,0.81
0.62,-0.21,0.81
0.62,-0.19,0.82
0.61,-0.19,0.81
0.59,-0.17,0.8
0.58,-0.15,0.79
0.56,-0.14,0.78
0.54,-0.12,0.76
0.53,-0.1,0.73
0.51,-0.08,0.71
0.49,-0.06,0.69
0.48,-0.05,0.68
0.46,-0.04,0.67
0.45,-0.03,0.66
0.44,-0.02,0.64
0.43,-0.02,0.63
0.41,-0.01,0.6
0.38,0.01,0.55
0.35,0.03,0.47
0.33,0.03,0.45
0.33,0.02,0.43
0.31,0.02,0.43
0.3,0.01,0.42
0.3,0,0.4
0.29,-0.01,0.4
0.3,-0.02,0.41
0.31,-0.05,0.41
0.31,-0.08,0.4
0.3,-0.1,0.38
0.28,-0.13,0.34
0.27,-0.17,0.3
0.26,-0.21,0.27
0.25,-0.27,0.24
0.76,-0.55,1.25
1.55,-0.99,2.46
2.02,-1.1,2.73
1.8,-0.91,2.93
1.17,-0.84,2.62
0.9,-0.76,1.69
0.69,-0.48,0.91
0.48,-0.27,0.48
0.39,-0.24,0.32
0.31,-0.23,0.27
0.26,-0.24,0.24
0.24,-0.28,0.27
0.28,-0.35,0.34
0.35,-0.4,0.45
0.43,-0.46,0.59
0.51,-0.51,0.76
0.59,-0.56,0.92
0.65,-0.59,1.06
0.66,-0.6,1.14
0.62,-0.6,1.12
0.57,-0.57,1.03
0.5,-0.52,0.89
0.44,-0.47,0.75
0.42,-0.43,0.66
0.42,-0.4,0.62
0.42,-0.39,0.6
0.45,-0.39,0.62
0.49,-0.4,0.68
0.53,-0.4,0.74
0.55,-0.39,0.8
0.56,-0.39,0.84
0.56,-0.37,0.85
0.56,-0.36,0.84
0.55,-0.35,0.83
0.55,-0.35,0.81
0.54,-0.35,0.79
0.53,-0.36,0.78
0.53,-0.36,0.76
0.52,-0.37,0.76
0.52,-0.38,0.77
0.52,-0.38,0.78
0.52,-0.38,0.78
0.52,-0.38,0.79
0.52,-0.38,0.79
0.52,-0.37,0.79
0.52,-0.37,0.78
0.52,-0.38,0.78
0.52,-0.38,0.77
0.52,-0.38,0.76
0.51,-0.38,0.75
0.51,-0.38,0.75
0.51,-0.39,0.76
0.51,-0.4,0.77
0.52,-0.41,0.78
0.52,-0.41,0.78
0.52,-0.4,0.78
0.52,-0.4,0.79
0.52,-0.4,0.79
0.52,-0.39,0.78
0.52,-0.38,0.78
0.53,-0.38,0.78
0.52,-0.38,0.78
0.52,-0.38,0.78
0.52,-0.37,0.78
0.52,-0.38,0.78
0.52,-0.38,0.78
0.52,-0.38,0.78
0.52,-0.39,0.78
0.52,-0.4,0.78
0.52,-0.4,0.78
0.53,-0.4,0.78
0.53,-0.41,0.77
0.52,-0.41,0.77
0.52,-0.42,0.77
0.52,-0.42,0.76
0.52,-0.42,0.75
0.53,-0.42,0.75
0.54,-0.43,0.75
0.54,-0.43,0.75
0.54,-0.44,0.75
0.54,-0.45,0.75
0.54,-0.45,0.75
0.54,-0.45,0.75
0.54,-0.45,0.75
0.54,-0.45,0.74
0.54,-0.45,0.74
0.53,-0.45,0.73
0.54,-0.45,0.73
0.54,-0.45,0.73
0.54,-0.46,0.73
0.54,-0.45,0.73
0.54,-0.46,0.74
0.54,-0.46,0.74
0.54,-0.46,0.74
0.54,-0.46,0.74
0.54,-0.46,0.74
0.54,-0.45,0.74
0.54,-0.45,0.74
0.54,-0.45,0.74
0.54,-0.45,0.74
0.54,-0.45,0.74
0.54,-0.45,0.74
0.54,-0.45,0.74
0.54,-0.45,0.74
0.54,-0.45,0.73
0.54,-0.45,0.73
0.55,-0.45,0.73
0.55,-0.45,0.74
0.55,-0.46,0.74
0.55,-0.45,0.73
0.55,-0.46,0.74
0.55,-0.46,0.73
0.54,-0.46,0.73
0.54,-0.46,0.73
0.54,-0.46,0.73
0.54,-0.46,0.73
0.53,-0.46,0.73
0.53,-0.46,0.73
0.53,-0.47,0.73
0.53,-0.47,0.73
0.53,-0.47,0.74
0.53,-0.46,0.75
0.53,-0.45,0.75
0.53,-0.44,0.75
0.52,-0.44,0.76
0.53,-0.43,0.76
0.53,-0.43,0.76
0.54,-0.43,0.75
0.54,-0.43,0.75
0.54,-0.43,0.75
0.54,-0.43,0.75
0.54,-0.43,0.75
0.54,-0.43,0.75
0.54,-0.43,0.75
0.53,-0.44,0.75
0.53,-0.43,0.75
0.53,-0.44,0.75
0.53,-0.43,0.75
0.54,-0.43,0.75
0.54,-0.44,0.75
0.54,-0.43,0.75
0.53,-0.43,0.75
0.53,-0.43,0.75
0.54,-0.44,0.75
0.53,-0.44,0.75
0.53,-0.44,0.75
0.54,-0.44,0.75
