Acc_x,Acc_y,Acc_z
0,0,0
0,0,0
0,0,0
0,0,0
0,0,0
0,0,0
0,0,0
0,0,0
0,0,0
0,0,0
0,0,0
0,0,0
0,0,0
0,0,0
0,0,0
0,0,0
0,0,0
0,0,0
0,0,0
0,0,0
0,0,0
0,0,0
0,0,0
0,0,0
0,0,0
0,0,0
0,0,0
0,0,0
0,0,0
0,0,0
0,0,0
0,0,0
0,0,0
0,0,0
0,0,0
0,0,0
1.04,0.49,0.21
0.99,0.51,0.2
0.93,0.53,0.19
0.87,0.54,0.19
0.82,0.54,0.2
0.77,0.54,0.21
0.75,0.54,0.21
0.73,0.54,0.21
0.71,0.53,0.21
0.67,0.52,0.21
0.7,0.51,0.21
0.74,0.49,0.22
0.81,0.48,0.23
0.89,0.47,0.23
0.96,0.46,0.23
0.99,0.45,0.23
1,0.45,0.22
0.98,0.46,0.2
0.94,0.48,0.19
0.91,0.49,0.19
0.88,0.5,0.19
0.85,0.51,0.19
0.82,0.51,0.2
0.81,0.51,0.21
0.81,0.5,0.2
0.8,0.5,0.19
0.78,0.5,0.19
0.77,0.5,0.19
0.77,0.49,0.19
0.78,0.49,0.19
0.8,0.48,0.2
0.82,0.48,0.2
0.83,0.47,0.2
0.84,0.47,0.2
0.86,0.46,0.18
0.85,0.46,0.18
0.84,0.47,0.19
0.84,0.47,0.19
0.83,0.47,0.19
0.8,0.47,0.19
0.78,0.47,0.19
0.75,0.47,0.19
0.73,0.47,0.2
0.72,0.46,0.2
0.72,0.46,0.21
0.76,0.45,0.22
0.79,0.43,0.23
0.82,0.43,0.23
0.83,0.42,0.23
0.8,0.42,0.23
0.77,0.42,0.22
0.77,0.41,0.23
0.82,0.39,0.24
0.86,0.37,0.26
0.88,0.37,0.29
0.92,0.36,0.32
0.96,0.35,0.34
0.94,0.35,0.35
0.92,0.37,0.34
0.81,0.36,0.31
0.71,0.3,0.39
0.85,0.32,0.45
0.85,0.35,0.44
0.85,0.32,0.5
0.82,0.31,0.53
0.78,0.32,0.53
0.73,0.31,0.56
0.65,0.3,0.54
0.64,0.28,0.53
0.67,0.24,0.55
0.67,0.22,0.57
0.71,0.22,0.6
0.74,0.2,0.61
0.74,0.19,0.62
0.75,0.19,0.63
0.76,0.18,0.63
0.76,0.18,0.64
0.79,0.17,0.66
0.82,0.16,0.67
0.83,0.14,0.66
0.83,0.12,0.65
0.84,0.12,0.66
0.83,0.13,0.65
0.81,0.11,0.63
0.82,0.08,0.63
0.84,0.07,0.65
0.85,0.08,0.64
0.77,0.07,0.63
0.71,0.06,0.63
0.69,0.07,0.62
0.69,0.06,0.61
0.66,0.04,0.62
0.68,0.02,0.61
0.73,0,0.63
0.79,-0.01,0.65
0.81,-0.03,0.66
0.79,-0.05,0.65
0.75,-0.05,0.64
0.71,-0.05,0.62
0.66,-0.06,0.61
0.63,-0.08,0.62
0.65,-0.1,0.62
0.68,-0.11,0.62
0.67,-0.14,0.6
0.64,-0.18,0.59
0.71,-0.21,0.56
0.76,-0.2,0.53
0.76,-0.19,0.57
0.78,-0.19,0.66
0.75,-0.19,0.69
0.7,-0.2,0.68
0.71,-0.21,0.72
0.74,-0.23,0.76
0.82,-0.25,0.78
0.96,-0.29,0.88
1.11,-0.32,1.03
1.14,-0.3,1.1
1.08,-0.28,1.09
0.98,-0.27,1.04
0.85,-0.27,0.94
0.74,-0.26,0.83
0.68,-0.25,0.72
0.66,-0.27,0.65
0.69,-0.31,0.63
0.77,-0.36,0.67
0.85,-0.4,0.74
0.89,-0.43,0.82
0.9,-0.43,0.89
0.86,-0.42,0.9
0.79,-0.39,0.85
0.7,-0.36,0.76
0.62,-0.34,0.68
0.55,-0.32,0.61
0.51,-0.31,0.56
0.49,-0.32,0.53
0.5,-0.32,0.53
0.53,-0.33,0.54
0.57,-0.35,0.56
0.62,-0.36,0.65
0.76,-0.39,0.7
0.82,-0.4,0.73
0.84,-0.41,0.74
0.83,-0.41,0.74
0.81,-0.41,0.73
0.78,-0.4,0.72
0.76,-0.38,0.7
0.74,-0.35,0.67
0.7,-0.32,0.65
0.65,-0.3,0.63
0.62,-0.28,0.59
0.59,-0.25,0.57
0.56,-0.24,0.57
0.58,-0.24,0.57
0.63,-0.24,0.58
0.66,-0.23,0.59
0.68,-0.23,0.6
0.69,-0.24,0.6
0.71,-0.25,0.6
0.72,-0.26,0.59
0.71,-0.28,0.57
0.71,-0.29,0.56
0.71,-0.3,0.54
0.71,-0.3,0.53
0.69,-0.31,0.52
0.68,-0.32,0.48
0.69,-0.36,0.48
0.68,-0.41,0.49
0.68,-0.4,0.49
0.73,-0.42,0.47
0.76,-0.51,0.46
0.78,-0.54,0.49
0.85,-0.59,0.5
0.9,-0.66,0.55
0.96,-0.74,0.74
1.08,-0.82,1
1.09,-0.92,1.04
1.1,-0.81,0.82
1.05,-0.71,0.58
0.92,-0.82,0.41
0.83,-0.88,0.32
0.77,-0.94,0.33
0.76,-0.95,0.34
0.75,-1.03,0.33
0.73,-1.15,0.31
0.75,-1.15,0.33
0.74,-1.19,0.35
0.7,-1.19,0.38
0.67,-1.23,0.36
0.7,-1.29,0.29
0.73,-1.24,0.25
0.74,-1.3,0.17
0.61,-1.34,0.16
0.6,-1.3,0.17
0.59,-1.33,0.14
0.6,-1.34,0.14
0.6,-1.33,0.14
0.58,-1.29,0.13
0.55,-1.27,0.13
0.53,-1.27,0.14
0.5,-1.23,0.13
0.47,-1.19,0.11
0.46,-1.11,0.09
0.44,-1.01,0.06
0.42,-0.91,0.04
0.39,-0.85,0.03
0.38,-0.8,0.03
0.38,-0.75,0.06
0.39,-0.73,0.08
0.39,-0.7,0.09
0.39,-0.67,0.11
0.38,-0.63,0.11
0.35,-0.62,0.12
0.33,-0.59,0.15
0.33,-0.55,0.16
0.3,-0.52,0.17
0.29,-0.49,0.17
0.26,-0.46,0.18
0.21,-0.45,0.17
0.21,-0.42,0.17
0.24,-0.41,0.16
0.25,-0.42,0.14
0.24,-0.42,0.14
0.26,-0.44,0.14
0.25,-0.46,0.14
0.24,-0.5,0.13
0.23,-0.54,0.11
0.21,-0.55,0.1
0.23,-0.59,0.08
0.24,-0.6,0.06
0.24,-0.61,0.04
0.25,-0.65,0.04
0.28,-0.7,0.03
0.31,-0.76,0.02
0.33,-0.82,0.02
0.33,-0.87,0.04
0.34,-0.91,0.05
0.37,-0.99,0.05
0.39,-1.04,0.06
0.41,-1.07,0.07
0.41,-1.09,0.09
0.42,-1.08,0.1
0.42,-1.06,0.11
0.43,-1.03,0.11
0.46,-0.97,0.12
0.46,-0.96,0.14
0.45,-0.95,0.16
0.45,-0.94,0.17
0.44,-0.94,0.19
0.42,-0.93,0.21
0.4,-0.92,0.21
0.38,-0.92,0.21
0.36,-0.92,0.18
0.36,-0.92,0.18
0.36,-0.92,0.17
0.37,-0.93,0.15
0.38,-0.94,0.13
0.37,-0.94,0.12
0.37,-0.94,0.12
0.36,-0.94,0.13
0.36,-0.94,0.14
0.36,-0.94,0.14
0.36,-0.95,0.14
0.37,-0.96,0.14
0.39,-0.96,0.15
0.4,-0.96,0.16
0.4,-0.96,0.17
0.41,-0.95,0.18
0.41,-0.95,0.18
0.42,-0.94,0.18
0.42,-0.94,0.18
0.43,-0.94,0.18
0.43,-0.94,0.18
0.42,-0.93,0.17
0.42,-0.92,0.17
0.42,-0.91,0.16
0.42,-0.91,0.16
0.42,-0.91,0.16
0.42,-0.91,0.17
0.42,-0.91,0.17
0.42,-0.91,0.16
0.42,-0.92,0.16
0.42,-0.92,0.16
0.42,-0.91,0.15
0.42,-0.91,0.14
0.42,-0.91,0.14
0.42,-0.91,0.14
0.42,-0.91,0.14
0.42,-0.91,0.14
0.42,-0.91,0.15
0.42,-0.91,0.14
0.42,-0.92,0.14
0.41,-0.92,0.14
0.4,-0.91,0.13
0.41,-0.91,0.13
0.4,-0.91,0.12
0.4,-0.91,0.13
0.4,-0.91,0.13
0.4,-0.91,0.13
0.4,-0.91,0.13
0.39,-0.91,0.13
0.39,-0.92,0.14
0.39,-0.92,0.15
0.4,-0.92,0.15
0.4,-0.93,0.16
0.4,-0.93,0.17
0.4,-0.93,0.17
0.39,-0.93,0.17
0.4,-0.93,0.17
0.4,-0.93,0.17
0.4,-0.93,0.17
0.41,-0.92,0.17
0.41,-0.92,0.17
0.41,-0.92,0.17
0.41,-0.92,0.17
0.41,-0.92,0.18
0.42,-0.92,0.18
0.41,-0.92,0.18
0.41,-0.86,0.16
0.41,-0.86,0.16
0.41,-0.85,0.15
0.41,-0.84,0.15
0.4,-0.83,0.15
0.39,-0.82,0.15
0.39,-0.8,0.15
0.39,-0.78,0.15
0.38,-0.77,0.15
0.37,-0.75,0.14
0.36,-0.74,0.13
0.35,-0.7,0.13
0.34,-0.67,0.13
0.34,-0.65,0.12
0.32,-0.63,0.11
0.32,-0.61,0.1
0.32,-0.61,0.09
0.32,-0.61,0.1
0.32,-0.61,0.11
0.33,-0.62,0.14
0.31,-0.63,0.15
0.3,-0.64,0.15
0.3,-0.67,0.13
0.3,-0.7,0.12
0.31,-0.72,0.12
0.33,-0.74,0.13
0.35,-0.75,0.13
0.36,-0.78,0.14
0.35,-0.83,0.15
0.33,-0.87,0.18
0.32,-0.88,0.2
0.33,-0.86,0.2
0.33,-0.88,0.19
0.36,-0.92,0.16
0.42,-0.93,0.15
0.49,-0.94,0.17
0.53,-0.93,0.22
0.51,-0.93,0.28
0.46,-0.93,0.29
0.44,-0.95,0.27
0.43,-0.96,0.27
0.46,-0.95,0.28
0.52,-0.96,0.29
0.58,-0.95,0.31
0.62,-0.93,0.32
0.63,-0.93,0.33
0.62,-0.92,0.36
0.61,-0.92,0.38
0.62,-0.93,0.4
0.63,-0.94,0.41
0.65,-0.93,0.41
0.68,-0.92,0.4
0.68,-0.89,0.39
0.69,-0.87,0.39
0.69,-0.84,0.41
0.68,-0.83,0.45
0.67,-0.81,0.47
0.65,-0.79,0.47
0.64,-0.78,0.47
0.65,-0.78,0.47
0.68,-0.77,0.49
0.69,-0.76,0.52
0.72,-0.77,0.53
0.74,-0.76,0.62
0.71,-0.76,0.68
0.72,-0.76,0.72
0.75,-0.74,0.76
0.76,-0.72,0.81
0.76,-0.69,0.87
0.77,-0.65,0.92
0.8,-0.63,0.95
0.82,-0.6,0.97
0.82,-0.57,0.96
0.8,-0.53,0.9
0.77,-0.49,0.82
0.73,-0.45,0.72
0.68,-0.4,0.63
0.63,-0.35,0.58
0.59,-0.31,0.57
0.56,-0.28,0.57
0.55,-0.25,0.59
0.54,-0.23,0.63
0.54,-0.23,0.66
0.54,-0.24,0.71
0.56,-0.25,0.75
0.58,-0.26,0.78
0.6,-0.27,0.81
0.62,-0.28,0.83
0.64,-0.29,0.84
0.67,-0.32,0.81
0.73,-0.33,0.77
0.75,-0.34,0.72
0.77,-0.37,0.67
0.79,-0.4,0.63
0.8,-0.42,0.61
0.8,-0.44,0.6
0.78,-0.45,0.6
0.75,-0.46,0.62
0.71,-0.46,0.63
0.68,-0.46,0.64
0.65,-0.46,0.63
0.63,-0.46,0.63
0.61,-0.46,0.63
0.6,-0.48,0.63
0.6,-0.49,0.63
0.6,-0.49,0.64
0.6,-0.49,0.65
0.61,-0.48,0.65
0.63,-0.48,0.64
0.65,-0.48,0.63
0.67,-0.47,0.63
0.69,-0.46,0.63
0.69,-0.46,0.63
0.7,-0.45,0.63
0.7,-0.44,0.62
0.7,-0.43,0.62
0.69,-0.43,0.61
0.68,-0.43,0.61
0.68,-0.43,0.61
0.67,-0.44,0.61
0.67,-0.45,0.62
0.67,-0.45,0.62
0.67,-0.46,0.63
0.67,-0.46,0.63
0.67,-0.46,0.63
0.66,-0.46,0.63
0.66,-0.47,0.62
0.66,-0.47,0.62
0.66,-0.48,0.62
0.66,-0.48,0.62
0.65,-0.48,0.62
0.65,-0.48,0.62
0.65,-0.48,0.62
0.66,-0.48,0.62
0.65,-0.47,0.61
0.65,-0.46,0.62
0.66,-0.47,0.63
0.67,-0.47,0.63
0.67,-0.47,0.62
0.67,-0.47,0.62
0.68,-0.47,0.62
0.68,-0.46,0.61
0.68,-0.45,0.61
0.68,-0.45,0.6
0.69,-0.46,0.6
0.69,-0.46,0.6
0.69,-0.46,0.6
0.69,-0.45,0.61
0.69,-0.44,0.61
0.69,-0.43,0.61
0.69,-0.43,0.61
0.69,-0.43,0.61
0.7,-0.43,0.61
0.7,-0.43,0.61
0.7,-0.44,0.61
0.7,-0.44,0.61
0.69,-0.44,0.61
0.69,-0.45,0.61
0.68,-0.45,0.61
0.68,-0.45,0.61
0.68,-0.46,0.62
0.67,-0.46,0.62
0.67,-0.46,0.62
0.67,-0.46,0.62
0.67,-0.46,0.62
0.67,-0.45,0.62
0.67,-0.45,0.62
0.67,-0.44,0.63
0.67,-0.44,0.62
0.68,-0.44,0.62
0.68,-0.44,0.63
0.68,-0.44,0.62
0.68,-0.44,0.62
0.68,-0.44,0.62
0.68,-0.43,0.62
0.68,-0.44,0.62
0.68,-0.44,0.62
0.68,-0.43,0.62
0.68,-0.44,0.62
0.68,-0.44,0.62
0.68,-0.44,0.62
0.68,-0.44,0.62
0.68,-0.44,0.62
0.68,-0.44,0.61
0.68,-0.44,0.62
0.67,-0.44,0.62
0.68,-0.44,0.62
0.68,-0.44,0.62
0.68,-0.43,0.62
0.68,-0.43,0.63
0.67,-0.43,0.63
0.68,-0.43,0.64
0.68,-0.41,0.65
0.67,-0.4,0.63
0.69,-0.41,0.63
0.69,-0.41,0.64
0.68,-0.41,0.64
0.69,-0.41,0.63
0.69,-0.41,0.63
0.68,-0.41,0.63
0.68,-0.42,0.63
0.69,-0.41,0.62
0.69,-0.4,0.62
0.68,-0.42,0.61
0.68,-0.42,0.61
0.69,-0.42,0.62
0.69,-0.43,0.62
0.68,-0.44,0.61
0.69,-0.45,0.6
0.69,-0.45,0.61
0.7,-0.44,0.61
0.7,-0.44,0.61
0.69,-0.45,0.61
0.69,-0.44,0.61
0.69,-0.44,0.6
0.69,-0.45,0.6
0.69,-0.45,0.61
0.68,-0.45,0.61
0.69,-0.45,0.61
0.69,-0.45,0.62
0.69,-0.43,0.61
0.69,-0.44,0.61
0.68,-0.44,0.61
0.68,-0.44,0.61
0.68,-0.44,0.62
0.68,-0.44,0.63
0.68,-0.43,0.64
0.67,-0.43,0.64
0.65,-0.43,0.65
0.65,-0.42,0.66
0.65,-0.41,0.66
0.64,-0.41,0.66
0.63,-0.41,0.66
0.64,-0.39,0.67
0.63,-0.38,0.68
0.63,-0.37,0.67
0.65,-0.37,0.65
0.66,-0.37,0.65
0.67,-0.37,0.64
0.68,-0.36,0.63
0.69,-0.37,0.63
0.69,-0.37,0.63
0.68,-0.37,0.63
0.66,-0.37,0.64
0.65,-0.37,0.65
0.65,-0.38,0.66
0.66,-0.38,0.65
0.67,-0.38,0.63
0.67,-0.38,0.61
0.67,-0.37,0.59
0.66,-0.38,0.58
0.65,-0.38,0.58
0.65,-0.39,0.57
0.66,-0.38,0.54
0.67,-0.4,0.52
0.69,-0.43,0.49
0.72,-0.45,0.46
0.75,-0.45,0.44
0.77,-0.46,0.43
0.78,-0.47,0.43
0.77,-0.49,0.43
0.77,-0.51,0.43
0.77,-0.54,0.43
0.77,-0.56,0.42
0.77,-0.58,0.42
0.79,-0.59,0.41
0.81,-0.58,0.4
0.82,-0.57,0.39
0.82,-0.58,0.37
0.81,-0.59,0.36
0.82,-0.6,0.35
0.82,-0.62,0.35
0.82,-0.67,0.36
0.83,-0.69,0.38
0.84,-0.7,0.39
0.86,-0.71,0.4
0.88,-0.72,0.43
0.9,-0.75,0.45
0.92,-0.78,0.48
0.91,-0.82,0.5
0.89,-0.85,0.52
0.9,-0.89,0.53
0.91,-0.93,0.54
0.89,-0.97,0.53
0.85,-0.99,0.52
0.8,-1.02,0.5
0.75,-1.06,0.49
0.71,-1.08,0.48
0.67,-1.1,0.45
0.65,-1.11,0.43
0.62,-1.14,0.4
0.62,-1.17,0.36
0.61,-1.19,0.34
0.59,-1.23,0.35
0.57,-1.28,0.34
0.58,-1.3,0.34
0.58,-1.32,0.34
0.56,-1.33,0.35
0.5,-1.37,0.37
0.48,-1.36,0.38
0.46,-1.34,0.38
0.43,-1.32,0.38
0.41,-1.27,0.36
0.39,-1.24,0.33
0.39,-1.18,0.29
0.4,-1.09,0.25
0.4,-0.99,0.22
0.36,-0.93,0.2
0.32,-0.9,0.17
0.31,-0.86,0.16
0.3,-0.81,0.15
0.3,-0.78,0.13
0.31,-0.74,0.11
0.32,-0.7,0.1
0.32,-0.66,0.09
0.33,-0.62,0.08
0.35,-0.58,0.08
0.37,-0.54,0.08
0.38,-0.5,0.07
0.38,-0.45,0.07
0.37,-0.41,0.09
0.35,-0.41,0.1
0.35,-0.4,0.1
0.35,-0.4,0.12
0.32,-0.4,0.13
0.32,-0.43,0.14
0.33,-0.48,0.13
0.33,-0.51,0.12
0.33,-0.51,0.12
0.33,-0.52,0.13
0.35,-0.53,0.15
0.37,-0.54,0.17
0.38,-0.57,0.18
0.38,-0.6,0.18
0.37,-0.62,0.16
0.36,-0.64,0.13
0.34,-0.65,0.1
0.34,-0.68,0.08
0.35,-0.73,0.06
0.36,-0.78,0.05
0.36,-0.83,0.04
0.37,-0.89,0.04
0.39,-0.96,0.04
0.4,-1.02,0.05
0.42,-1.08,0.07
0.44,-1.1,0.09
0.45,-1.11,0.11
0.45,-1.09,0.14
0.44,-1.06,0.17
0.4,-1.03,0.21
0.35,-0.99,0.24
0.34,-0.97,0.27
0.33,-0.96,0.28
0.33,-0.95,0.28
0.32,-0.95,0.26
0.32,-0.96,0.23
0.32,-0.97,0.2
0.34,-0.99,0.18
0.35,-1,0.17
0.36,-1.01,0.16
0.36,-1,0.15
0.37,-1,0.14
0.38,-1,0.14
0.38,-1,0.13
0.38,-0.99,0.13
0.37,-0.97,0.12
0.37,-0.96,0.12
0.36,-0.94,0.11
0.35,-0.93,0.11
0.35,-0.93,0.1
0.35,-0.93,0.1
0.34,-0.92,0.11
0.33,-0.92,0.12
0.33,-0.92,0.12
0.33,-0.93,0.13
0.33,-0.93,0.13
0.34,-0.94,0.13
0.34,-0.93,0.12
0.33,-0.93,0.11
0.33,-0.92,0.11
0.33,-0.92,0.11
0.32,-0.91,0.1
0.33,-0.92,0.1
0.33,-0.92,0.1
0.33,-0.92,0.11
0.33,-0.92,0.11
0.33,-0.91,0.12
0.33,-0.9,0.12
0.33,-0.9,0.13
0.33,-0.91,0.13
0.33,-0.92,0.14
0.33,-0.92,0.14
0.33,-0.93,0.15
0.33,-0.94,0.16
0.34,-0.94,0.16
0.35,-0.94,0.16
0.35,-0.93,0.16
0.36,-0.93,0.16
0.37,-0.93,0.15
0.38,-0.93,0.15
0.38,-0.93,0.15
0.39,-0.93,0.14
0.4,-0.92,0.14
0.4,-0.92,0.14
0.4,-0.92,0.14
0.41,-0.92,0.15
0.41,-0.92,0.15
0.42,-0.92,0.15
0.42,-0.92,0.16
0.41,-0.93,0.16
0.41,-0.93,0.16
0.41,-0.93,0.16
0.42,-0.94,0.16
0.42,-0.94,0.16
0.41,-0.94,0.16
0.42,-0.94,0.16
0.42,-0.94,0.16
0.42,-0.93,0.15
0.42,-0.92,0.15
0.42,-0.92,0.15
0.42,-0.92,0.16
0.42,-0.92,0.16
0.41,-0.92,0.15
0.41,-0.92,0.16
0.42,-0.92,0.18
0.42,-0.92,0.18
0.41,-0.92,0.17
0.41,-0.91,0.16
0.4,-0.91,0.14
0.4,-0.92,0.14
0.4,-0.93,0.14
0.4,-0.94,0.15
0.41,-0.94,0.15
0.42,-0.93,0.14
0.43,-0.93,0.12
0.43,-0.92,0.13
0.43,-0.92,0.13
0.42,-0.91,0.12
0.42,-0.9,0.12
0.43,-0.89,0.11
0.42,-0.89,0.1
0.41,-0.88,0.11
0.41,-0.88,0.12
0.41,-0.87,0.13
0.4,-0.85,0.13
0.38,-0.84,0.14
0.37,-0.83,0.14
0.36,-0.83,0.13
0.36,-0.82,0.13
0.35,-0.82,0.14
0.35,-0.8,0.13
0.34,-0.78,0.14
0.34,-0.76,0.14
0.33,-0.74,0.13
0.32,-0.71,0.1
0.31,-0.7,0.08
0.32,-0.7,0.08
0.32,-0.69,0.08
0.32,-0.69,0.09
0.31,-0.69,0.09
0.31,-0.68,0.1
0.3,-0.67,0.11
0.28,-0.66,0.13
0.28,-0.67,0.11
0.3,-0.69,0.1
0.3,-0.7,0.11
0.29,-0.71,0.12
0.28,-0.72,0.15
0.26,-0.73,0.18
0.24,-0.75,0.19
0.21,-0.75,0.19
0.21,-0.75,0.21
0.21,-0.74,0.25
0.2,-0.75,0.3
0.22,-0.78,0.34
0.28,-0.8,0.37
0.33,-0.8,0.39
0.36,-0.8,0.42
0.37,-0.83,0.44
0.39,-0.87,0.45
0.44,-0.9,0.44
0.48,-0.91,0.42
0.52,-0.91,0.37
0.54,-0.91,0.34
0.55,-0.91,0.33
0.56,-0.92,0.34
0.57,-0.93,0.36
0.57,-0.94,0.4
0.58,-0.95,0.42
0.62,-0.96,0.41
0.65,-0.96,0.37
0.69,-0.95,0.31
0.69,-0.95,0.29
0.67,-0.93,0.29
0.65,-0.91,0.3
0.64,-0.91,0.33
0.63,-0.91,0.37
0.63,-0.9,0.41
0.63,-0.89,0.45
0.64,-0.89,0.5
0.66,-0.89,0.55
0.7,-0.89,0.59
0.75,-0.9,0.63
0.78,-0.89,0.66
0.79,-0.88,0.67
0.8,-0.86,0.67
0.8,-0.83,0.67
0.77,-0.82,0.67
0.77,-0.81,0.68
0.75,-0.8,0.69
0.74,-0.79,0.69
0.74,-0.77,0.7
0.76,-0.76,0.72
0.8,-0.75,0.72
0.84,-0.73,0.73
0.84,-0.68,0.76
0.81,-0.61,0.78
0.78,-0.53,0.76
0.77,-0.44,0.73
0.75,-0.37,0.71
0.7,-0.31,0.7
0.64,-0.26,0.68
0.59,-0.22,0.66
0.55,-0.19,0.67
0.53,-0.18,0.68
0.52,-0.17,0.69
0.51,-0.18,0.73
0.5,-0.2,0.79
0.5,-0.22,0.84
0.51,-0.25,0.89
0.52,-0.28,0.93
0.53,-0.3,0.95
0.55,-0.33,0.9
0.6,-0.33,0.84
0.62,-0.34,0.78
0.64,-0.35,0.72
0.65,-0.35,0.68
0.66,-0.34,0.66
0.66,-0.34,0.65
0.66,-0.34,0.65
0.64,-0.33,0.66
0.62,-0.32,0.67
0.6,-0.31,0.67
0.59,-0.31,0.65
0.57,-0.3,0.64
0.56,-0.31,0.64
0.56,-0.31,0.64
0.57,-0.31,0.65
0.58,-0.31,0.67
0.61,-0.32,0.68
0.62,-0.32,0.69
0.65,-0.32,0.7
0.69,-0.32,0.71
0.71,-0.32,0.71
0.73,-0.32,0.71
0.75,-0.32,0.7
0.76,-0.32,0.68
0.77,-0.34,0.68
0.76,-0.35,0.66
0.73,-0.36,0.65
0.7,-0.36,0.65
0.68,-0.36,0.65
0.66,-0.36,0.65
0.64,-0.36,0.65
0.63,-0.36,0.65
0.62,-0.37,0.66
0.62,-0.37,0.66
0.62,-0.38,0.66
0.63,-0.38,0.67
0.63,-0.38,0.67
0.64,-0.38,0.67
0.64,-0.38,0.67
0.66,-0.39,0.67
0.67,-0.39,0.67
0.67,-0.4,0.66
0.69,-0.39,0.65
0.7,-0.39,0.64
0.71,-0.39,0.64
0.72,-0.39,0.64
0.72,-0.38,0.64
0.71,-0.38,0.65
0.71,-0.37,0.67
0.7,-0.35,0.67
0.7,-0.33,0.67
0.7,-0.32,0.68
0.71,-0.3,0.68
0.72,-0.3,0.68
0.74,-0.31,0.7
0.75,-0.32,0.72
0.74,-0.34,0.71
0.73,-0.36,0.69
0.72,-0.36,0.68
0.71,-0.36,0.68
0.71,-0.38,0.67
0.74,-0.42,0.68
0.81,-0.48,0.72
0.9,-0.53,0.78
0.93,-0.53,0.79
0.87,-0.52,0.71
0.79,-0.5,0.6
0.76,-0.5,0.53
0.79,-0.52,0.49
0.84,-0.57,0.49
0.88,-0.61,0.48
0.91,-0.65,0.5
0.93,-0.69,0.54
0.93,-0.71,0.56
0.9,-0.74,0.56
0.87,-0.8,0.55
0.84,-0.87,0.54
0.8,-0.96,0.46
0.68,-1.16,0.4
0.64,-1.22,0.34
0.63,-1.25,0.3
0.64,-1.28,0.27
0.66,-1.32,0.26
0.69,-1.34,0.27
0.71,-1.36,0.31
0.71,-1.39,0.35
0.68,-1.43,0.38
0.63,-1.45,0.39
0.58,-1.4,0.38
0.53,-1.31,0.35
0.46,-1.28,0.31
0.39,-1.26,0.27
0.38,-1.16,0.23
0.4,-1.04,0.19
0.42,-0.96,0.18
0.42,-0.92,0.18
0.41,-0.91,0.19
0.38,-0.9,0.21
0.35,-0.87,0.21
0.35,-0.83,0.19
0.34,-0.8,0.18
0.33,-0.75,0.17
0.32,-0.7,0.16
0.31,-0.64,0.13
0.28,-0.54,0.13
0.27,-0.49,0.15
0.28,-0.45,0.17
0.3,-0.43,0.19
0.32,-0.39,0.22
0.32,-0.36,0.25
0.29,-0.35,0.26
0.29,-0.35,0.27
0.3,-0.35,0.27
0.3,-0.36,0.27
0.27,-0.39,0.27
0.22,-0.42,0.24
0.19,-0.46,0.2
0.17,-0.5,0.15
0.17,-0.57,0.11
0.19,-0.65,0.06
0.21,-0.73,0.02
0.22,-0.82,-0.01
0.26,-0.89,-0.02
0.3,-0.93,-0.02
0.32,-0.96,0.02
0.34,-0.97,0.04
0.37,-0.95,0.06
0.4,-0.93,0.06
0.42,-0.9,0.05
0.44,-0.88,0.04
0.45,-0.85,0.04
0.45,-0.84,0.03
0.45,-0.84,0.03
0.45,-0.84,0.04
0.46,-0.84,0.06
0.47,-0.84,0.07
0.47,-0.86,0.09
0.48,-0.87,0.11
0.48,-0.88,0.13
0.47,-0.89,0.15
0.45,-0.9,0.17
0.44,-0.9,0.19
0.42,-0.91,0.22
0.42,-0.93,0.25
0.42,-0.94,0.27
0.43,-0.96,0.29
0.45,-0.97,0.3
0.45,-0.97,0.3
0.46,-0.97,0.31
0.46,-0.96,0.32
0.45,-0.94,0.34
0.44,-0.94,0.36
0.43,-0.93,0.37
0.42,-0.93,0.38
0.41,-0.91,0.38
0.4,-0.9,0.36
0.36,-0.9,0.32
0.36,-0.92,0.29
0.35,-0.92,0.27
0.36,-0.92,0.26
0.37,-0.93,0.24
0.36,-0.93,0.23
0.37,-0.94,0.21
0.37,-0.94,0.2
0.38,-0.94,0.19
0.38,-0.94,0.19
0.38,-0.93,0.18
0.38,-0.93,0.17
0.38,-0.93,0.16
0.38,-0.93,0.16
0.37,-0.92,0.15
0.38,-0.92,0.15
0.39,-0.91,0.15
0.39,-0.91,0.16
0.39,-0.9,0.17
0.39,-0.9,0.18
0.39,-0.9,0.18
0.39,-0.9,0.19
0.39,-0.9,0.2
0.38,-0.91,0.21
0.38,-0.91,0.22
0.38,-0.92,0.22
0.37,-0.92,0.22
0.37,-0.93,0.22
0.37,-0.93,0.21
0.38,-0.94,0.21
0.39,-0.94,0.2
0.39,-0.94,0.2
0.39,-0.94,0.2
0.39,-0.94,0.19
0.39,-0.94,0.19
0.38,-0.94,0.2
0.38,-0.94,0.21
0.37,-0.94,0.21
0.38,-0.94,0.21
0.39,-0.94,0.2
0.41,-0.94,0.19
0.44,-0.94,0.18
0.45,-0.93,0.18
0.46,-0.92,0.18
0.45,-0.91,0.18
0.44,-0.9,0.18
0.43,-0.89,0.18
0.41,-0.88,0.19
0.4,-0.87,0.19
0.39,-0.86,0.2
0.39,-0.85,0.2
0.38,-0.84,0.18
0.39,-0.83,0.17
0.39,-0.82,0.17
0.4,-0.8,0.17
0.41,-0.79,0.18
0.42,-0.78,0.19
0.41,-0.77,0.18
0.4,-0.76,0.17
0.4,-0.74,0.13
0.4,-0.73,0.07
0.42,-0.72,-0.02
0.46,-0.71,-0.09
0.5,-0.69,-0.08
0.53,-0.69,-0.04
0.44,-0.72,0.02
0.32,-0.75,0.1
0.31,-0.76,0.16
0.23,-0.79,0.23
0.17,-0.83,0.26
0.15,-0.84,0.28
0.13,-0.85,0.3
0.15,-0.86,0.31
0.19,-0.86,0.33
0.21,-0.83,0.35
0.2,-0.82,0.35
0.19,-0.8,0.34
0.19,-0.78,0.3
0.22,-0.76,0.27
0.23,-0.73,0.25
0.26,-0.72,0.22
0.27,-0.7,0.21
0.27,-0.7,0.21
0.25,-0.7,0.23
0.24,-0.7,0.25
0.23,-0.71,0.27
0.22,-0.7,0.28
0.24,-0.72,0.3
0.25,-0.73,0.31
0.27,-0.75,0.28
0.34,-0.77,0.24
0.4,-0.78,0.21
0.4,-0.8,0.2
0.4,-0.81,0.19
0.42,-0.84,0.19
0.4,-0.85,0.19
0.39,-0.89,0.23
0.4,-0.93,0.32
0.42,-0.95,0.38
0.44,-0.98,0.4
0.47,-1.02,0.39
0.5,-1.06,0.37
0.53,-1.07,0.36
0.57,-1.07,0.34
0.58,-1.06,0.36
0.58,-1.06,0.39
0.58,-1.06,0.42
0.58,-1.07,0.45
0.61,-1.07,0.5
0.63,-1.07,0.55
0.64,-1.05,0.59
0.65,-1.04,0.61
0.67,-1.01,0.61
0.69,-0.96,0.57
0.7,-0.92,0.54
0.71,-0.89,0.5
0.72,-0.87,0.46
0.72,-0.85,0.44
0.73,-0.86,0.42
0.75,-0.86,0.4
0.77,-0.85,0.44
0.77,-0.87,0.52
0.77,-0.9,0.61
0.76,-0.93,0.67
0.76,-0.94,0.68
0.75,-0.9,0.6
0.74,-0.86,0.48
0.76,-0.82,0.42
0.78,-0.78,0.45
0.8,-0.71,0.54
0.79,-0.51,0.6
0.79,-0.43,0.59
0.77,-0.35,0.58
0.74,-0.25,0.57
0.7,-0.2,0.57
0.66,-0.21,0.6
0.65,-0.22,0.64
0.65,-0.24,0.68
0.67,-0.25,0.73
0.68,-0.26,0.76
0.69,-0.26,0.77
0.71,-0.27,0.75
0.72,-0.27,0.73
0.73,-0.28,0.71
0.75,-0.29,0.7
0.76,-0.3,0.7
0.77,-0.32,0.71
0.77,-0.33,0.72
0.77,-0.34,0.71
0.76,-0.35,0.71
0.74,-0.34,0.68
0.71,-0.35,0.66
0.68,-0.35,0.66
0.66,-0.37,0.64
0.65,-0.4,0.62
0.65,-0.43,0.62
0.64,-0.48,0.63
0.61,-0.49,0.64
0.6,-0.5,0.64
0.59,-0.5,0.64
0.58,-0.5,0.64
0.59,-0.5,0.64
0.6,-0.5,0.63
0.61,-0.49,0.62
0.62,-0.48,0.62
0.63,-0.47,0.61
0.65,-0.47,0.6
0.68,-0.46,0.59
0.7,-0.45,0.59
0.71,-0.44,0.59
0.72,-0.44,0.59
0.73,-0.44,0.59
0.72,-0.44,0.6
0.72,-0.43,0.59
0.71,-0.43,0.58
0.71,-0.43,0.57
0.72,-0.43,0.56
0.73,-0.42,0.54
0.74,-0.44,0.53
0.74,-0.46,0.54
0.72,-0.48,0.57
0.71,-0.48,0.59
0.69,-0.47,0.62
0.67,-0.46,0.61
0.65,-0.44,0.61
0.64,-0.44,0.59
0.63,-0.43,0.58
0.62,-0.42,0.56
0.63,-0.42,0.56
0.66,-0.43,0.56
0.73,-0.45,0.6
0.81,-0.5,0.7
0.9,-0.56,0.83
0.97,-0.59,0.9
0.94,-0.59,0.85
0.86,-0.56,0.68
0.8,-0.54,0.52
0.84,-0.54,0.4
0.9,-0.55,0.33
0.94,-0.57,0.31
1,-0.6,0.32
1.08,-0.63,0.35
1.13,-0.67,0.39
1.11,-0.72,0.41
1.04,-0.77,0.42
0.96,-0.81,0.41
0.88,-0.86,0.37
0.84,-0.91,0.3
0.82,-1.08,0.22
0.82,-1.21,0.17
0.78,-1.33,0.09
0.73,-1.44,0.06
0.69,-1.49,0.08
0.67,-1.52,0.07
0.64,-1.57,0.06
0.62,-1.59,0.08
0.59,-1.54,0.08
0.56,-1.5,0.07
0.51,-1.46,0.07
0.47,-1.39,0.08
0.45,-1.33,0.07
0.43,-1.26,0.07
0.4,-1.19,0.08
0.4,-1.1,0.09
0.42,-1.02,0.09
0.42,-0.95,0.1
0.4,-0.89,0.11
0.38,-0.84,0.1
0.37,-0.78,0.09
0.34,-0.72,0.08
0.31,-0.67,0.09
0.3,-0.62,0.11
0.27,-0.57,0.14
0.28,-0.53,0.14
0.31,-0.43,0.15
0.33,-0.39,0.16
0.33,-0.38,0.16
0.33,-0.37,0.16
0.29,-0.34,0.17
0.27,-0.32,0.16
0.27,-0.31,0.12
0.26,-0.29,0.09
0.27,-0.29,0.05
0.28,-0.29,0.02
0.3,-0.31,0.02
0.33,-0.34,0.03
0.33,-0.37,0.03
0.33,-0.4,0.04
0.32,-0.44,0.05
0.31,-0.49,0.05
0.31,-0.54,0.04
0.32,-0.6,0.04
0.34,-0.68,0.04
0.37,-0.78,0.05
0.4,-0.88,0.06
0.41,-0.97,0.07
0.4,-1.06,0.07
0.41,-1.15,0.06
0.42,-1.21,0.05
0.42,-1.22,0.02
0.43,-1.2,-0.01
0.44,-1.1,-0.02
0.45,-1.05,-0.02
0.47,-1.01,0
0.47,-0.98,0.03
0.47,-0.95,0.05
0.48,-0.95,0.07
0.48,-0.96,0.09
0.47,-0.96,0.13
0.44,-0.96,0.17
0.4,-0.95,0.21
0.34,-0.93,0.28
0.26,-0.94,0.36
0.18,-0.96,0.41
0.12,-0.98,0.43
0.13,-0.98,0.39
0.18,-0.98,0.35
0.24,-0.98,0.3
0.28,-0.98,0.26
0.32,-0.97,0.23
0.35,-0.97,0.2
0.37,-0.96,0.18
0.39,-0.96,0.15
0.39,-0.95,0.13
0.39,-0.94,0.12
0.4,-0.93,0.1
0.4,-0.92,0.07
0.39,-0.9,0.06
0.38,-0.9,0.06
0.38,-0.9,0.07
0.38,-0.9,0.08
0.39,-0.9,0.09
0.38,-0.9,0.1
0.38,-0.9,0.11
0.38,-0.91,0.11
0.37,-0.92,0.12
0.38,-0.93,0.13
0.39,-0.93,0.13
0.39,-0.93,0.13
0.4,-0.93,0.12
0.4,-0.93,0.13
0.41,-0.94,0.13
0.41,-0.94,0.14
0.4,-0.94,0.14
0.4,-0.94,0.14
0.4,-0.94,0.13
0.4,-0.94,0.13
0.4,-0.94,0.14
0.4,-0.93,0.15
0.39,-0.93,0.16
0.38,-0.93,0.17
0.37,-0.93,0.18
0.36,-0.93,0.18
0.34,-0.93,0.17
0.35,-0.94,0.16
0.36,-0.95,0.15
0.36,-0.95,0.14
0.36,-0.95,0.14
0.36,-0.94,0.13
0.36,-0.94,0.13
0.36,-0.94,0.13
0.36,-0.94,0.13
0.35,-0.94,0.13
0.35,-0.94,0.13
0.35,-0.94,0.13
0.35,-0.94,0.13
0.35,-0.94,0.13
0.36,-0.94,0.13
0.36,-0.94,0.13
0.37,-0.94,0.13
0.37,-0.94,0.13
0.38,-0.94,0.13
0.39,-0.93,0.12
0.4,-0.93,0.12
0.41,-0.93,0.11
0.41,-0.93,0.11
0.42,-0.93,0.12
0.41,-0.92,0.13
0.4,-0.92,0.15
0.37,-0.9,0.16
0.35,-0.9,0.17
0.34,-0.9,0.18
0.34,-0.89,0.17
0.36,-0.89,0.15
0.38,-0.89,0.13
0.39,-0.88,0.13
0.41,-0.85,0.13
0.42,-0.83,0.14
0.41,-0.8,0.15
0.39,-0.77,0.15
0.37,-0.74,0.15
0.36,-0.73,0.15
0.33,-0.7,0.15
0.32,-0.68,0.15
0.32,-0.65,0.13
0.34,-0.63,0.12
0.37,-0.61,0.1
0.38,-0.58,0.09
0.38,-0.56,0.09
0.37,-0.56,0.09
0.35,-0.56,0.11
0.32,-0.57,0.14
0.31,-0.59,0.15
0.31,-0.61,0.14
0.31,-0.63,0.15
0.26,-0.65,0.16
0.24,-0.66,0.18
0.24,-0.67,0.2
0.24,-0.69,0.22
0.24,-0.71,0.24
0.27,-0.73,0.26
0.29,-0.74,0.28
0.29,-0.76,0.31
0.3,-0.79,0.34
0.31,-0.81,0.37
0.33,-0.82,0.39
0.33,-0.86,0.4
0.34,-0.91,0.4
0.37,-0.94,0.39
0.39,-0.95,0.4
0.4,-0.96,0.4
0.4,-0.97,0.4
0.39,-0.98,0.41
0.39,-0.98,0.4
0.41,-0.98,0.37
0.43,-0.97,0.34
0.45,-0.97,0.33
0.47,-0.99,0.32
0.5,-1.01,0.35
0.54,-1.04,0.4
0.56,-1.05,0.49
0.63,-1.06,0.52
0.67,-1.06,0.52
0.72,-1.05,0.52
0.75,-1.05,0.53
0.77,-1.05,0.55
0.79,-1.05,0.55
0.78,-1.04,0.53
0.78,-1.02,0.49
0.77,-1,0.47
0.76,-0.98,0.47
0.74,-0.98,0.47
0.72,-0.98,0.48
0.7,-0.96,0.49
0.69,-0.94,0.49
0.69,-0.92,0.51
0.71,-0.91,0.54
0.72,-0.9,0.57
0.72,-0.89,0.62
0.72,-0.88,0.64
0.7,-0.86,0.64
0.68,-0.83,0.63
0.66,-0.79,0.63
0.62,-0.74,0.62
0.6,-0.68,0.59
0.6,-0.62,0.57
0.62,-0.56,0.57
0.65,-0.41,0.59
0.64,-0.35,0.61
0.62,-0.3,0.65
0.6,-0.29,0.71
0.56,-0.29,0.75
0.53,-0.3,0.77
0.51,-0.31,0.78
0.51,-0.33,0.77
0.54,-0.34,0.76
0.56,-0.34,0.74
0.58,-0.36,0.73
0.61,-0.37,0.73
0.64,-0.39,0.74
0.67,-0.4,0.74
0.68,-0.42,0.74
0.69,-0.43,0.74
0.69,-0.43,0.73
0.68,-0.43,0.71
0.68,-0.42,0.69
0.67,-0.41,0.67
0.66,-0.4,0.65
0.66,-0.39,0.64
0.65,-0.39,0.65
0.64,-0.39,0.67
0.63,-0.39,0.68
0.62,-0.38,0.7
0.6,-0.39,0.7
0.59,-0.39,0.69
0.59,-0.38,0.68
0.59,-0.37,0.67
0.6,-0.37,0.68
0.61,-0.37,0.7
0.62,-0.37,0.69
0.62,-0.4,0.68
0.62,-0.42,0.68
0.61,-0.43,0.69
0.61,-0.44,0.68
0.61,-0.44,0.68
0.6,-0.45,0.68
0.59,-0.45,0.68
0.6,-0.45,0.69
0.6,-0.45,0.69
0.61,-0.46,0.7
0.62,-0.45,0.71
0.61,-0.45,0.71
0.61,-0.44,0.7
0.61,-0.44,0.69
0.61,-0.44,0.68
0.61,-0.44,0.68
0.61,-0.44,0.67
0.62,-0.43,0.67
0.64,-0.42,0.66
0.65,-0.39,0.68
0.65,-0.39,0.68
0.66,-0.4,0.69
0.65,-0.39,0.69
0.65,-0.38,0.68
0.64,-0.37,0.69
0.63,-0.37,0.69
0.62,-0.36,0.66
0.62,-0.36,0.64
0.63,-0.38,0.63
0.63,-0.4,0.61
0.63,-0.42,0.59
0.64,-0.45,0.61
0.66,-0.48,0.63
0.71,-0.51,0.69
0.74,-0.55,0.77
0.76,-0.61,0.86
0.78,-0.64,0.92
0.76,-0.61,0.9
0.7,-0.56,0.8
0.67,-0.53,0.69
0.7,-0.53,0.63
0.75,-0.54,0.63
0.77,-0.55,0.62
0.78,-0.55,0.6
0.81,-0.57,0.62
0.84,-0.62,0.71
0.88,-0.65,0.7
0.86,-0.68,0.66
0.83,-0.73,0.63
0.79,-0.78,0.6
0.76,-0.86,0.57
0.72,-0.96,0.53
0.68,-1.05,0.48
0.66,-1.12,0.46
0.66,-1.18,0.45
0.66,-1.22,0.43
0.65,-1.27,0.42
0.65,-1.3,0.42
0.64,-1.33,0.43
0.61,-1.37,0.42
0.57,-1.4,0.42
0.54,-1.39,0.44
0.51,-1.39,0.44
0.48,-1.36,0.42
0.46,-1.33,0.4
0.44,-1.31,0.37
0.42,-1.26,0.34
0.39,-1.2,0.31
0.38,-1.12,0.3
0.38,-1.05,0.29
0.39,-0.98,0.27
0.39,-0.85,0.24
0.35,-0.81,0.24
0.34,-0.77,0.24
0.33,-0.72,0.24
0.33,-0.66,0.25
0.31,-0.61,0.25
0.29,-0.55,0.26
0.31,-0.49,0.23
0.32,-0.47,0.21
0.31,-0.44,0.21
0.3,-0.4,0.2
0.28,-0.38,0.2
0.24,-0.35,0.2
0.23,-0.34,0.19
0.24,-0.36,0.19
0.22,-0.37,0.18
0.23,-0.38,0.19
0.24,-0.4,0.18
0.24,-0.41,0.18
0.23,-0.41,0.16
0.23,-0.42,0.14
0.24,-0.45,0.12
0.25,-0.49,0.09
0.27,-0.54,0.07
0.29,-0.59,0.04
0.3,-0.64,0.03
0.31,-0.74,0.03
0.31,-0.8,0.04
0.32,-0.88,0.03
0.34,-0.95,0.02
0.36,-1.02,0.02
0.38,-1.08,0.01
0.38,-1.1,0.01
0.38,-1.09,0.03
0.39,-1.06,0.06
0.4,-1.03,0.08
0.41,-0.99,0.09
0.41,-0.97,0.1
0.43,-0.94,0.1
0.43,-0.92,0.1
0.43,-0.91,0.1
0.44,-0.89,0.11
0.43,-0.89,0.12
0.43,-0.92,0.12
0.43,-0.93,0.13
0.43,-0.94,0.15
0.43,-0.96,0.17
0.42,-0.97,0.2
0.4,-0.98,0.23
0.38,-0.99,0.24
0.37,-0.99,0.23
0.36,-0.98,0.22
0.35,-0.96,0.23
0.31,-0.94,0.23
0.3,-0.94,0.24
0.29,-0.94,0.24
0.29,-0.94,0.24
0.29,-0.95,0.23
0.3,-0.95,0.21
0.31,-0.96,0.19
0.32,-0.96,0.16
0.33,-0.97,0.14
0.33,-0.97,0.13
0.34,-0.96,0.12
0.35,-0.96,0.11
0.36,-0.95,0.11
0.37,-0.95,0.11
0.37,-0.95,0.1
0.37,-0.95,0.1
0.37,-0.95,0.1
0.37,-0.95,0.11
0.37,-0.94,0.12
0.37,-0.94,0.13
0.37,-0.93,0.13
0.37,-0.93,0.14
0.37,-0.93,0.15
0.37,-0.93,0.17
0.37,-0.93,0.18
0.37,-0.93,0.19
0.37,-0.93,0.19
0.37,-0.93,0.18
0.37,-0.94,0.18
0.37,-0.94,0.18
0.37,-0.94,0.19
0.37,-0.94,0.19
0.37,-0.93,0.18
0.37,-0.94,0.18
0.38,-0.94,0.18
0.39,-0.94,0.17
0.4,-0.94,0.17
0.4,-0.95,0.17
0.39,-0.96,0.17
0.39,-0.97,0.16
0.4,-0.96,0.16
0.4,-0.95,0.15
0.4,-0.93,0.14
0.39,-0.92,0.13
0.38,-0.92,0.13
0.37,-0.92,0.13
0.37,-0.92,0.13
0.37,-0.92,0.13
0.37,-0.91,0.13
0.37,-0.9,0.13
0.37,-0.9,0.13
0.37,-0.89,0.14
0.36,-0.89,0.14
0.37,-0.89,0.14
0.38,-0.89,0.13
0.39,-0.89,0.13
0.39,-0.89,0.14
0.4,-0.89,0.14
0.4,-0.88,0.14
0.39,-0.88,0.15
0.38,-0.87,0.15
0.37,-0.88,0.15
0.36,-0.89,0.16
0.35,-0.89,0.17
0.34,-0.88,0.17
0.34,-0.88,0.16
0.34,-0.87,0.15
0.34,-0.86,0.14
0.33,-0.85,0.12
0.34,-0.85,0.1
0.35,-0.84,0.08
0.36,-0.84,0.07
0.36,-0.84,0.07
0.36,-0.83,0.08
0.36,-0.81,0.1
0.36,-0.8,0.11
0.35,-0.79,0.11
0.33,-0.8,0.08
0.31,-0.81,0.07
0.31,-0.82,0.05
0.31,-0.83,0.05
0.31,-0.83,0.06
0.31,-0.83,0.08
0.31,-0.82,0.11
0.32,-0.82,0.12
0.32,-0.82,0.14
0.32,-0.82,0.15
0.3,-0.82,0.16
0.29,-0.82,0.17
0.28,-0.82,0.17
0.28,-0.81,0.17
0.28,-0.81,0.16
0.28,-0.81,0.15
0.29,-0.81,0.16
0.3,-0.8,0.18
0.29,-0.8,0.21
0.29,-0.8,0.22
0.28,-0.79,0.22
0.29,-0.78,0.21
0.29,-0.78,0.19
0.26,-0.77,0.18
0.25,-0.76,0.17
0.25,-0.77,0.17
0.26,-0.78,0.23
0.29,-0.84,0.25
0.32,-0.86,0.27
0.34,-0.87,0.29
0.37,-0.87,0.3
0.38,-0.87,0.31
0.39,-0.87,0.32
0.4,-0.88,0.34
0.41,-0.91,0.36
0.4,-0.94,0.39
0.4,-0.99,0.42
0.4,-1.05,0.45
0.43,-1.1,0.45
0.47,-1.1,0.42
0.49,-1.07,0.39
0.51,-1.03,0.38
0.53,-0.99,0.38
0.56,-0.98,0.4
0.59,-0.98,0.43
0.61,-0.98,0.46
0.62,-0.99,0.5
0.63,-0.98,0.53
0.65,-0.98,0.53
0.67,-0.97,0.52
0.68,-0.96,0.51
0.7,-0.94,0.5
0.71,-0.91,0.5
0.71,-0.87,0.49
0.72,-0.86,0.5
0.75,-0.87,0.52
0.79,-0.89,0.56
0.84,-0.92,0.59
0.89,-0.95,0.61
0.95,-0.99,0.6
1.01,-1.01,0.59
1.03,-0.99,0.61
0.99,-0.9,0.62
0.93,-0.79,0.56
0.86,-0.71,0.51
0.82,-0.63,0.51
0.79,-0.57,0.52
0.73,-0.52,0.55
0.68,-0.47,0.59
0.62,-0.43,0.62
0.56,-0.39,0.64
0.52,-0.36,0.65
0.49,-0.34,0.67
0.46,-0.31,0.69
0.43,-0.31,0.72
0.41,-0.33,0.75
0.4,-0.33,0.78
0.41,-0.34,0.81
0.43,-0.35,0.85
0.47,-0.35,0.87
0.49,-0.33,0.88
0.51,-0.31,0.87
0.53,-0.29,0.85
0.53,-0.28,0.83
0.55,-0.25,0.8
0.56,-0.24,0.77
0.56,-0.23,0.74
0.56,-0.22,0.73
0.57,-0.22,0.73
0.58,-0.22,0.73
0.6,-0.22,0.72
0.61,-0.23,0.73
0.62,-0.24,0.75
0.63,-0.25,0.77
0.65,-0.26,0.78
0.66,-0.27,0.8
0.67,-0.27,0.79
0.68,-0.27,0.77
0.69,-0.27,0.75
0.7,-0.28,0.71
0.69,-0.31,0.68
0.68,-0.35,0.68
0.65,-0.38,0.69
0.64,-0.4,0.7
0.62,-0.42,0.7
0.59,-0.46,0.68
0.58,-0.47,0.67
0.58,-0.47,0.67
0.57,-0.47,0.68
0.58,-0.47,0.68
0.6,-0.47,0.69
0.6,-0.47,0.69
0.6,-0.47,0.69
0.61,-0.47,0.68
0.61,-0.46,0.67
0.62,-0.46,0.68
0.62,-0.45,0.67
0.62,-0.46,0.67
0.61,-0.46,0.67
0.6,-0.46,0.68
0.61,-0.46,0.68
0.61,-0.47,0.68
0.61,-0.46,0.68
0.6,-0.46,0.67
0.6,-0.46,0.68
0.59,-0.45,0.69
0.58,-0.45,0.69
0.58,-0.45,0.69
0.57,-0.44,0.68
0.57,-0.44,0.66
0.58,-0.44,0.66
0.59,-0.45,0.66
0.59,-0.46,0.67
0.6,-0.46,0.67
0.61,-0.45,0.67
0.61,-0.44,0.67
0.61,-0.44,0.67
0.6,-0.44,0.67
0.6,-0.44,0.67
0.6,-0.44,0.68
0.61,-0.44,0.68
0.61,-0.43,0.67
0.61,-0.43,0.67
0.61,-0.43,0.67
0.62,-0.43,0.67
0.62,-0.43,0.67
0.63,-0.43,0.67
0.62,-0.42,0.67
0.61,-0.41,0.67
0.61,-0.4,0.67
0.61,-0.39,0.67
0.61,-0.4,0.68
0.62,-0.4,0.69
0.62,-0.4,0.69
0.63,-0.4,0.69
0.64,-0.41,0.69
0.64,-0.43,0.69
0.63,-0.47,0.67
0.62,-0.48,0.64
0.63,-0.48,0.6
0.65,-0.48,0.57
0.67,-0.51,0.54
0.68,-0.55,0.53
0.72,-0.6,0.54
0.75,-0.66,0.54
0.77,-0.71,0.56
0.78,-0.74,0.59
0.75,-0.76,0.59
0.7,-0.76,0.53
0.65,-0.74,0.44
0.65,-0.72,0.35
0.7,-0.73,0.29
0.8,-0.76,0.31
0.92,-0.79,0.37
1.01,-0.8,0.41
1.02,-0.84,0.4
0.95,-0.9,0.36
0.86,-0.98,0.33
0.8,-1.06,0.32
0.77,-1.12,0.31
0.76,-1.19,0.29
0.76,-1.26,0.25
0.74,-1.34,0.22
0.69,-1.44,0.15
0.69,-1.48,0.11
0.7,-1.47,0.09
0.7,-1.43,0.07
0.67,-1.39,0.07
0.63,-1.36,0.07
0.59,-1.36,0.08
0.55,-1.34,0.1
0.5,-1.31,0.12
0.49,-1.28,0.15
0.49,-1.27,0.17
0.5,-1.25,0.19
0.5,-1.22,0.21
0.52,-1.16,0.22
0.49,-1.09,0.22
0.46,-1.01,0.21
0.43,-0.93,0.21
0.39,-0.86,0.21
0.35,-0.79,0.22
0.35,-0.73,0.23
0.35,-0.69,0.24
0.34,-0.64,0.26
0.35,-0.59,0.26
0.33,-0.54,0.26
0.31,-0.49,0.26
0.31,-0.46,0.26
0.31,-0.42,0.26
0.31,-0.42,0.24
0.32,-0.41,0.22
0.33,-0.42,0.2
0.33,-0.43,0.18
0.33,-0.44,0.16
0.33,-0.45,0.15
0.33,-0.48,0.11
0.31,-0.53,0.08
0.31,-0.59,0.05
0.3,-0.64,0
0.3,-0.68,-0.02
0.3,-0.7,-0.04
0.29,-0.71,-0.04
0.3,-0.73,-0.03
0.31,-0.74,-0.02
0.3,-0.74,0
0.31,-0.75,0.01
0.31,-0.77,0.01
0.32,-0.79,0.01
0.33,-0.81,0.01
0.33,-0.83,0.02
0.33,-0.83,0.02
0.33,-0.84,0.02
0.32,-0.86,0.04
0.29,-0.89,0.08
0.26,-0.93,0.14
0.26,-0.96,0.15
0.29,-0.98,0.15
0.32,-1,0.16
0.33,-1.02,0.18
0.34,-1.03,0.21
0.36,-1.04,0.23
0.38,-1.03,0.24
0.4,-1.02,0.25
0.42,-1.01,0.24
0.43,-1.01,0.23
0.43,-1,0.21
0.43,-0.99,0.2
0.42,-0.97,0.19
0.42,-0.95,0.18
0.42,-0.94,0.17
0.42,-0.95,0.16
0.42,-0.94,0.15
0.41,-0.93,0.15
0.4,-0.92,0.15
0.4,-0.91,0.14
0.39,-0.9,0.13
0.38,-0.9,0.12
0.37,-0.91,0.12
0.37,-0.92,0.11
0.37,-0.93,0.1
0.37,-0.93,0.1
0.37,-0.93,0.11
0.37,-0.92,0.11
0.37,-0.91,0.11
0.37,-0.91,0.11
0.38,-0.91,0.11
0.38,-0.9,0.11
0.38,-0.9,0.11
0.38,-0.9,0.12
0.39,-0.9,0.13
0.39,-0.9,0.13
0.39,-0.91,0.14
0.39,-0.92,0.14
0.4,-0.92,0.15
0.4,-0.93,0.16
0.41,-0.94,0.16
0.4,-0.94,0.16
0.39,-0.94,0.16
0.38,-0.95,0.16
0.36,-0.95,0.15
0.35,-0.96,0.15
0.34,-0.96,0.15
0.33,-0.96,0.14
0.32,-0.95,0.13
0.32,-0.95,0.12
0.32,-0.95,0.12
0.32,-0.94,0.11
0.34,-0.94,0.11
0.35,-0.95,0.11
0.35,-0.95,0.11
0.36,-0.95,0.11
0.36,-0.95,0.12
0.36,-0.95,0.12
0.36,-0.95,0.13
0.36,-0.94,0.14
0.36,-0.94,0.15
0.36,-0.93,0.16
0.35,-0.92,0.16
0.35,-0.92,0.17
0.35,-0.91,0.17
0.35,-0.9,0.17
0.35,-0.89,0.15
0.35,-0.88,0.13
0.36,-0.88,0.12
0.37,-0.87,0.12
0.37,-0.86,0.13
0.37,-0.85,0.14
0.38,-0.84,0.15
0.39,-0.83,0.14
0.38,-0.82,0.12
0.38,-0.82,0.11
0.36,-0.81,0.1
0.35,-0.79,0.1
0.34,-0.78,0.09
0.35,-0.76,0.08
0.37,-0.73,0.06
0.38,-0.7,0.04
0.38,-0.69,0.04
0.39,-0.68,0.04
0.38,-0.68,0.05
0.35,-0.69,0.06
0.32,-0.69,0.08
0.3,-0.68,0.09
0.29,-0.67,0.09
0.29,-0.66,0.08
0.28,-0.67,0.07
0.27,-0.68,0.08
0.27,-0.69,0.08
0.28,-0.71,0.09
0.3,-0.74,0.11
0.3,-0.76,0.13
0.28,-0.79,0.17
0.25,-0.81,0.2
0.23,-0.82,0.22
0.22,-0.82,0.27
0.19,-0.82,0.32
0.17,-0.83,0.36
0.18,-0.84,0.37
0.2,-0.85,0.39
0.23,-0.85,0.38
0.26,-0.86,0.37
0.28,-0.86,0.33
0.3,-0.86,0.3
0.31,-0.86,0.31
0.32,-0.85,0.33
0.32,-0.86,0.38
0.33,-0.87,0.42
0.35,-0.88,0.4
0.41,-0.92,0.34
0.48,-0.99,0.33
0.55,-1.07,0.35
0.63,-1.13,0.38
0.68,-1.17,0.4
0.7,-1.18,0.41
0.7,-1.17,0.4
0.7,-1.15,0.38
0.69,-1.12,0.35
0.67,-1.09,0.33
0.67,-1.08,0.33
0.67,-1.07,0.34
0.67,-1.07,0.34
0.67,-1.07,0.37
0.67,-1.07,0.4
0.68,-1.08,0.42
0.69,-1.07,0.4
0.72,-1.02,0.36
0.72,-1,0.34
0.72,-1,0.35
0.72,-1,0.38
0.73,-1,0.42
0.72,-1.02,0.47
0.71,-1.03,0.51
0.7,-1.04,0.54
0.69,-1.01,0.59
0.65,-0.94,0.61
0.62,-0.88,0.59
0.61,-0.83,0.56
0.63,-0.79,0.54
0.64,-0.73,0.52
0.66,-0.65,0.49
0.68,-0.57,0.45
0.71,-0.49,0.43
0.72,-0.42,0.43
0.73,-0.36,0.49
0.73,-0.33,0.57
0.69,-0.31,0.65
0.65,-0.3,0.71
0.63,-0.32,0.74
0.62,-0.32,0.75
0.65,-0.33,0.73
0.7,-0.34,0.72
0.74,-0.36,0.74
0.74,-0.38,0.76
0.72,-0.4,0.75
0.7,-0.41,0.74
0.7,-0.4,0.72
0.7,-0.38,0.69
0.7,-0.37,0.67
0.71,-0.36,0.66
0.7,-0.35,0.66
0.69,-0.34,0.66
0.69,-0.34,0.64
0.71,-0.35,0.64
0.73,-0.36,0.64
0.72,-0.36,0.63
0.7,-0.36,0.62
0.68,-0.35,0.6
0.66,-0.34,0.58
0.64,-0.33,0.56
0.63,-0.33,0.55
0.61,-0.32,0.55
0.6,-0.32,0.55
0.59,-0.32,0.56
0.6,-0.32,0.58
0.61,-0.33,0.61
0.62,-0.34,0.65
0.63,-0.34,0.71
0.65,-0.35,0.74
0.64,-0.35,0.76
0.63,-0.35,0.78
0.61,-0.35,0.78
0.6,-0.36,0.78
0.59,-0.36,0.77
0.58,-0.37,0.74
0.6,-0.39,0.69
0.62,-0.41,0.66
0.63,-0.42,0.64
0.63,-0.43,0.64
0.64,-0.44,0.64
0.64,-0.45,0.65
0.64,-0.45,0.66
0.65,-0.45,0.67
0.65,-0.46,0.68
0.64,-0.46,0.69
0.64,-0.46,0.68
0.65,-0.45,0.67
0.65,-0.45,0.66
0.66,-0.44,0.64
0.67,-0.44,0.63
0.68,-0.45,0.62
0.69,-0.44,0.62
0.69,-0.44,0.62
0.7,-0.45,0.63
0.69,-0.45,0.62
0.68,-0.44,0.61
0.67,-0.43,0.59
0.67,-0.41,0.56
0.66,-0.4,0.55
0.66,-0.4,0.54
0.66,-0.41,0.53
0.65,-0.43,0.52
0.64,-0.44,0.5
0.63,-0.44,0.46
0.62,-0.45,0.45
0.63,-0.46,0.46
0.64,-0.48,0.48
0.65,-0.51,0.52
0.67,-0.56,0.56
0.69,-0.61,0.59
0.72,-0.66,0.63
0.77,-0.71,0.67
0.85,-0.75,0.73
0.92,-0.78,0.78
0.97,-0.8,0.79
0.98,-0.78,0.75
0.9,-0.72,0.66
0.79,-0.64,0.52
0.76,-0.58,0.41
0.82,-0.57,0.35
0.98,-0.63,0.39
1.03,-0.65,0.42
1.03,-0.66,0.41
0.99,-0.65,0.37
0.96,-0.68,0.34
0.93,-0.71,0.32
0.89,-0.76,0.29
0.87,-0.81,0.24
0.87,-0.88,0.2
0.85,-0.96,0.17
0.84,-1.02,0.13
0.84,-1.06,0.09
0.83,-1.09,0.07
0.8,-1.12,0.06
0.75,-1.14,0.06
0.71,-1.19,0.06
0.68,-1.24,0.07
0.65,-1.28,0.08
0.6,-1.33,0.07
0.57,-1.35,0.08
0.54,-1.34,0.1
0.53,-1.32,0.09
0.52,-1.3,0.08
0.51,-1.27,0.08
0.49,-1.22,0.07
0.46,-1.15,0.07
0.4,-1.07,0.07
0.32,-1.03,0.05
0.28,-0.94,0.05
0.28,-0.86,0.05
0.26,-0.81,0.05
0.26,-0.78,0.05
0.26,-0.71,0.05
0.26,-0.61,0.06
0.27,-0.55,0.05
0.25,-0.54,0.06
0.23,-0.53,0.08
0.24,-0.51,0.09
0.23,-0.49,0.08
0.21,-0.49,0.1
0.21,-0.48,0.11
0.23,-0.5,0.1
0.24,-0.5,0.11
0.26,-0.51,0.12
0.28,-0.54,0.13
0.29,-0.58,0.13
0.29,-0.6,0.12
0.3,-0.63,0.11
0.3,-0.66,0.12
0.31,-0.68,0.15
0.33,-0.7,0.17
0.34,-0.74,0.13
0.37,-0.81,0.11
0.37,-0.85,0.1
0.37,-0.88,0.09
0.38,-0.9,0.06
0.38,-0.91,0.04
0.4,-0.92,0.02
0.41,-0.92,0.02
0.41,-0.92,0.03
0.41,-0.93,0.03
0.41,-0.92,0.03
0.41,-0.91,0.03
0.41,-0.9,0.03
0.41,-0.9,0.05
0.4,-0.89,0.08
0.41,-0.89,0.1
0.42,-0.9,0.13
0.42,-0.91,0.15
0.44,-0.91,0.16
0.45,-0.91,0.15
0.46,-0.91,0.14
0.46,-0.91,0.13
0.46,-0.91,0.13
0.46,-0.9,0.13
0.44,-0.91,0.14
0.44,-0.91,0.14
0.43,-0.91,0.15
0.44,-0.92,0.14
0.44,-0.91,0.14
0.44,-0.91,0.14
0.43,-0.92,0.15
0.42,-0.93,0.16
0.4,-0.94,0.16
0.39,-0.94,0.16
0.38,-0.94,0.16
0.38,-0.94,0.16
0.37,-0.94,0.16
0.36,-0.95,0.15
0.36,-0.95,0.15
0.36,-0.95,0.14
0.35,-0.94,0.14
0.35,-0.95,0.13
0.35,-0.95,0.12
0.35,-0.95,0.11
0.36,-0.94,0.1
0.36,-0.94,0.1
0.35,-0.93,0.1
0.34,-0.93,0.11
0.32,-0.92,0.12
0.32,-0.93,0.13
0.32,-0.92,0.14
0.31,-0.93,0.14
0.32,-0.93,0.14
0.32,-0.92,0.16
0.31,-0.92,0.16
0.31,-0.92,0.16
0.32,-0.92,0.17
0.33,-0.93,0.18
0.35,-0.93,0.19
0.37,-0.94,0.19
0.38,-0.94,0.19
0.39,-0.93,0.2
0.4,-0.94,0.2
0.4,-0.95,0.2
0.39,-0.95,0.19
0.39,-0.96,0.19
0.4,-0.96,0.19
0.39,-0.96,0.19
0.39,-0.95,0.19
0.38,-0.95,0.19
0.38,-0.94,0.18
0.38,-0.93,0.18
0.38,-0.93,0.17
0.38,-0.94,0.17
0.38,-0.94,0.17
0.38,-0.93,0.18
0.38,-0.93,0.17
0.38,-0.92,0.17
0.38,-0.92,0.18
0.37,-0.92,0.18
0.37,-0.92,0.17
0.37,-0.92,0.17
0.38,-0.92,0.18
0.38,-0.92,0.18
0.39,-0.92,0.18
0.39,-0.92,0.17
0.39,-0.92,0.18
0.39,-0.92,0.18
0.39,-0.92,0.18
0.39,-0.94,0.17
0.39,-0.94,0.17
0.38,-0.92,0.18
0.39,-0.91,0.18
0.38,-0.91,0.18
0.38,-0.91,0.19
0.38,-0.9,0.19
0.37,-0.89,0.19
0.36,-0.89,0.19
0.35,-0.9,0.19
0.35,-0.91,0.19
0.36,-0.92,0.19
0.37,-0.94,0.19
0.39,-0.95,0.19
0.4,-0.95,0.19
0.4,-0.95,0.18
0.4,-0.94,0.16
0.42,-0.94,0.17
0.44,-0.93,0.17
0.44,-0.91,0.15
0.44,-0.9,0.14
0.43,-0.89,0.13
0.43,-0.88,0.13
0.42,-0.86,0.13
0.4,-0.84,0.14
0.38,-0.82,0.14
0.37,-0.8,0.13
0.37,-0.77,0.11
0.37,-0.74,0.1
0.38,-0.7,0.1
0.38,-0.67,0.1
0.37,-0.63,0.1
0.35,-0.59,0.1
0.34,-0.56,0.09
0.3,-0.53,0.07
0.28,-0.51,0.05
0.25,-0.5,0.04
0.23,-0.5,0.05
0.22,-0.51,0.05
0.22,-0.54,0.04
0.23,-0.57,0.02
0.24,-0.59,0.01
0.24,-0.65,0.12
0.24,-0.71,0.15
0.25,-0.77,0.19
0.25,-0.8,0.21
0.22,-0.81,0.21
0.2,-0.82,0.21
0.19,-0.83,0.23
0.19,-0.85,0.26
0.22,-0.85,0.29
0.26,-0.85,0.33
0.28,-0.87,0.38
0.31,-0.92,0.41
0.36,-0.96,0.45
0.4,-0.96,0.5
0.44,-0.98,0.54
0.49,-1,0.55
0.53,-1,0.52
0.57,-0.98,0.47
0.6,-0.96,0.4
0.61,-0.94,0.33
0.61,-0.94,0.28
0.61,-0.96,0.28
0.61,-1,0.3
0.6,-1.03,0.34
0.59,-1.04,0.38
0.59,-1.04,0.41
0.61,-1.04,0.43
0.71,-1.03,0.43
0.74,-1.01,0.42
0.76,-0.99,0.41
0.77,-0.99,0.42
0.76,-0.97,0.41
0.73,-0.95,0.4
0.68,-0.92,0.39
0.64,-0.88,0.39
0.6,-0.86,0.4
0.59,-0.84,0.42
0.62,-0.83,0.44
0.66,-0.82,0.45
0.72,-0.81,0.46
0.78,-0.81,0.48
0.84,-0.8,0.5
0.88,-0.81,0.53
0.88,-0.81,0.56
0.86,-0.8,0.56
0.86,-0.78,0.53
0.9,-0.78,0.51
0.95,-0.8,0.5
0.97,-0.82,0.47
0.97,-0.83,0.46
0.93,-0.82,0.5
0.86,-0.77,0.58
0.79,-0.67,0.6
0.65,-0.5,0.59
0.59,-0.44,0.58
0.56,-0.4,0.57
0.54,-0.37,0.59
0.51,-0.34,0.6
0.51,-0.32,0.62
0.52,-0.32,0.64
0.53,-0.32,0.67
0.54,-0.33,0.69
0.54,-0.35,0.71
0.54,-0.37,0.74
0.54,-0.4,0.76
0.55,-0.42,0.79
0.55,-0.44,0.8
0.57,-0.45,0.8
0.59,-0.47,0.79
0.61,-0.48,0.77
0.65,-0.49,0.72
0.68,-0.5,0.67
0.7,-0.51,0.62
0.7,-0.52,0.59
0.7,-0.52,0.58
0.68,-0.53,0.57
0.66,-0.53,0.58
0.64,-0.53,0.58
0.61,-0.54,0.6
0.56,-0.55,0.6
0.54,-0.55,0.61
0.53,-0.55,0.61
0.54,-0.55,0.61
0.55,-0.54,0.61
0.55,-0.54,0.62
0.56,-0.54,0.62
0.57,-0.54,0.63
0.58,-0.54,0.64
0.6,-0.54,0.64
0.6,-0.54,0.64
0.61,-0.54,0.65
0.61,-0.53,0.64
0.61,-0.53,0.64
0.6,-0.52,0.63
0.59,-0.51,0.63
0.6,-0.5,0.62
0.61,-0.49,0.61
0.62,-0.48,0.61
0.63,-0.49,0.62
0.63,-0.49,0.63
0.64,-0.5,0.64
0.64,-0.5,0.64
0.64,-0.5,0.64
0.63,-0.5,0.63
0.62,-0.51,0.59
0.61,-0.49,0.59
0.62,-0.5,0.59
0.63,-0.51,0.59
0.65,-0.53,0.6
0.67,-0.53,0.6
0.67,-0.52,0.6
0.65,-0.52,0.6
0.64,-0.5,0.61
0.62,-0.49,0.61
0.62,-0.49,0.6
0.63,-0.49,0.59
0.63,-0.5,0.59
0.64,-0.5,0.61
0.67,-0.53,0.63
0.73,-0.56,0.69
0.82,-0.6,0.76
0.88,-0.62,0.83
0.92,-0.62,0.84
0.86,-0.56,0.77
0.73,-0.51,0.64
0.69,-0.53,0.56
0.77,-0.59,0.56
0.87,-0.67,0.6
0.93,-0.72,0.59
0.97,-0.76,0.53
1,-0.78,0.42
1.04,-0.82,0.4
1.03,-0.86,0.43
1.01,-0.93,0.38
0.99,-1.01,0.33
0.95,-1.08,0.35
0.93,-1.13,0.35
0.9,-1.17,0.35
0.88,-1.2,0.34
0.83,-1.21,0.32
0.76,-1.21,0.31
0.7,-1.21,0.29
0.63,-1.21,0.29
0.56,-1.19,0.31
0.53,-1.16,0.32
0.53,-1.12,0.36
0.54,-1.09,0.41
0.55,-1.08,0.44
0.53,-1.04,0.44
0.48,-1.01,0.41
0.44,-0.97,0.34
0.43,-0.94,0.28
0.43,-0.9,0.28
0.46,-0.88,0.28
0.52,-0.82,0.25
0.49,-0.78,0.23
0.41,-0.79,0.25
0.31,-0.66,0.24
0.3,-0.62,0.19
0.29,-0.6,0.12
0.35,-0.55,0.05
0.45,-0.48,-0.04
0.42,-0.5,-0.03
0.31,-0.49,0.04
0.29,-0.49,0.05
0.29,-0.51,0.05
0.31,-0.49,0.05
0.31,-0.5,0.06
0.31,-0.5,0.04
0.31,-0.5,0.02
0.28,-0.51,0.02
0.25,-0.55,0.03
0.23,-0.58,0.02
0.22,-0.62,0.01
0.22,-0.65,-0.01
0.23,-0.67,-0.03
0.23,-0.69,-0.04
0.23,-0.71,-0.04
0.23,-0.72,-0.05
0.25,-0.73,-0.04
0.25,-0.74,-0.02
0.26,-0.74,0.02
0.27,-0.75,0.07
0.32,-0.81,0.1
0.35,-0.82,0.15
0.36,-0.84,0.18
0.38,-0.86,0.19
0.4,-0.88,0.18
0.42,-0.9,0.16
0.42,-0.93,0.14
0.42,-0.97,0.13
0.44,-1.01,0.11
0.46,-1.03,0.1
0.43,-1.05,0.11
0.43,-1.07,0.11
0.46,-1.05,0.11
0.45,-1.03,0.12
0.45,-1.02,0.13
0.47,-0.99,0.13
0.48,-0.97,0.13
0.48,-0.95,0.14
0.48,-0.94,0.15
0.48,-0.94,0.15
0.49,-0.92,0.17
0.47,-0.91,0.19
0.45,-0.9,0.21
0.44,-0.89,0.21
0.44,-0.89,0.22
0.44,-0.9,0.21
0.4,-0.89,0.21
0.38,-0.89,0.21
0.37,-0.89,0.19
0.37,-0.9,0.17
0.36,-0.91,0.16
0.37,-0.92,0.15
0.38,-0.93,0.15
0.38,-0.94,0.15
0.37,-0.94,0.15
0.38,-0.95,0.15
0.38,-0.95,0.15
0.38,-0.95,0.15
0.37,-0.96,0.16
0.37,-0.95,0.17
0.36,-0.95,0.18
0.36,-0.95,0.17
0.35,-0.95,0.17
0.36,-0.95,0.17
0.36,-0.95,0.17
0.35,-0.95,0.18
0.35,-0.94,0.18
0.34,-0.95,0.18
0.34,-0.95,0.17
0.35,-0.96,0.17
0.36,-0.96,0.18
0.36,-0.96,0.18
0.36,-0.93,0.18
0.36,-0.93,0.17
0.36,-0.92,0.17
0.36,-0.92,0.17
0.36,-0.92,0.17
0.36,-0.91,0.17
0.36,-0.91,0.17
0.36,-0.91,0.17
0.37,-0.91,0.18
0.37,-0.92,0.18
0.37,-0.92,0.18
0.37,-0.93,0.18
0.37,-0.93,0.18
0.38,-0.94,0.18
0.39,-0.94,0.18
0.39,-0.94,0.18
0.38,-0.94,0.18
0.38,-0.94,0.19
0.38,-0.95,0.19
0.38,-0.94,0.19
0.37,-0.94,0.2
0.37,-0.94,0.2
0.37,-0.94,0.19
0.38,-0.94,0.19
0.38,-0.93,0.19
0.36,-0.93,0.19
0.39,-0.92,0.18
0.38,-0.91,0.18
0.35,-0.92,0.18
0.35,-0.92,0.19
0.37,-0.93,0.17
0.4,-0.94,0.16
0.38,-0.94,0.17
0.37,-0.94,0.16
0.38,-0.94,0.16
0.39,-0.93,0.15
0.39,-0.91,0.14
0.4,-0.9,0.14
0.41,-0.89,0.14
0.42,-0.89,0.14
0.41,-0.88,0.13
0.41,-0.88,0.13
0.4,-0.88,0.13
0.4,-0.87,0.13
0.4,-0.87,0.13
0.4,-0.86,0.11
0.41,-0.85,0.09
0.41,-0.85,0.08
0.41,-0.85,0.08
0.41,-0.84,0.09
0.39,-0.82,0.1
0.38,-0.81,0.1
0.38,-0.79,0.12
0.36,-0.77,0.13
0.37,-0.76,0.13
0.37,-0.74,0.13
0.35,-0.71,0.12
0.33,-0.69,0.1
0.32,-0.68,0.09
0.32,-0.67,0.08
0.32,-0.67,0.06
0.33,-0.67,0.04
0.33,-0.67,0.04
0.33,-0.69,0.06
0.31,-0.7,0.07
0.29,-0.71,0.08
0.28,-0.69,0.1
0.25,-0.67,0.11
0.23,-0.66,0.13
0.22,-0.66,0.15
0.22,-0.69,0.17
0.23,-0.69,0.17
0.26,-0.72,0.17
0.3,-0.74,0.17
0.31,-0.75,0.19
0.3,-0.79,0.24
0.29,-0.79,0.31
0.27,-0.81,0.37
0.26,-0.87,0.42
0.32,-0.88,0.45
0.32,-0.91,0.42
0.33,-0.9,0.39
0.38,-0.93,0.38
0.37,-0.95,0.34
0.36,-0.92,0.32
0.4,-0.9,0.33
0.46,-0.9,0.36
0.51,-0.91,0.37
0.53,-0.92,0.4
0.57,-0.94,0.43
0.63,-0.96,0.45
0.67,-0.98,0.45
0.7,-0.99,0.45
0.72,-0.99,0.45
0.73,-0.98,0.46
0.71,-0.96,0.45
0.69,-0.95,0.42
0.69,-0.93,0.4
0.7,-0.92,0.39
0.71,-0.9,0.4
0.73,-0.89,0.43
0.73,-0.9,0.46
0.73,-0.9,0.47
0.73,-0.89,0.49
0.75,-0.87,0.5
0.8,-0.89,0.52
0.83,-0.91,0.56
0.85,-0.95,0.62
0.86,-0.98,0.66
0.87,-1.01,0.67
0.88,-1.04,0.66
0.89,-1.07,0.64
0.88,-1.07,0.6
0.84,-1.06,0.55
0.77,-1.01,0.53
0.69,-0.91,0.51
0.66,-0.76,0.47
0.67,-0.65,0.44
0.68,-0.57,0.46
0.66,-0.46,0.48
0.62,-0.41,0.5
0.57,-0.4,0.53
0.55,-0.38,0.56
0.54,-0.36,0.6
0.55,-0.35,0.65
0.56,-0.35,0.69
0.55,-0.35,0.72
0.54,-0.36,0.74
0.54,-0.36,0.74
0.54,-0.36,0.74
0.57,-0.39,0.75
0.63,-0.39,0.76
0.66,-0.39,0.77
0.68,-0.38,0.78
0.7,-0.38,0.77
0.71,-0.37,0.77
0.7,-0.35,0.75
0.69,-0.33,0.73
0.68,-0.32,0.72
0.68,-0.31,0.71
0.66,-0.31,0.7
0.65,-0.31,0.7
0.65,-0.3,0.7
0.64,-0.3,0.69
0.63,-0.3,0.69
0.63,-0.3,0.69
0.63,-0.29,0.68
0.64,-0.3,0.69
0.64,-0.31,0.69
0.64,-0.32,0.7
0.64,-0.34,0.68
0.65,-0.37,0.65
0.66,-0.4,0.65
0.67,-0.43,0.64
0.67,-0.45,0.64
0.66,-0.46,0.63
0.66,-0.48,0.62
0.65,-0.49,0.62
0.65,-0.5,0.61
0.65,-0.5,0.61
0.65,-0.5,0.61
0.65,-0.5,0.61
0.65,-0.5,0.61
0.65,-0.5,0.61
0.66,-0.5,0.61
0.66,-0.49,0.61
0.67,-0.48,0.6
0.68,-0.47,0.6
0.68,-0.47,0.6
0.67,-0.46,0.61
0.67,-0.45,0.63
0.66,-0.44,0.63
0.66,-0.44,0.63
0.65,-0.44,0.64
0.65,-0.44,0.64
0.66,-0.45,0.64
0.66,-0.45,0.64
0.66,-0.46,0.64
0.66,-0.46,0.64
0.65,-0.46,0.63
0.65,-0.46,0.63
0.65,-0.46,0.63
0.65,-0.45,0.63
0.67,-0.45,0.64
0.68,-0.45,0.63
0.68,-0.45,0.63
0.68,-0.45,0.63
0.68,-0.45,0.63
0.67,-0.45,0.63
0.67,-0.45,0.62
0.67,-0.45,0.62
0.67,-0.46,0.61
0.67,-0.46,0.6
0.68,-0.46,0.6
0.68,-0.46,0.6
0.68,-0.46,0.59
0.68,-0.47,0.59
0.68,-0.47,0.59
0.68,-0.47,0.59
0.68,-0.48,0.59
0.69,-0.48,0.59
0.69,-0.48,0.59
0.69,-0.49,0.59
0.69,-0.49,0.58
0.69,-0.49,0.58
0.69,-0.49,0.58
0.69,-0.48,0.59
0.69,-0.47,0.59
0.69,-0.48,0.58
0.69,-0.48,0.57
0.69,-0.48,0.56
0.7,-0.48,0.56
0.7,-0.49,0.56
0.69,-0.49,0.56
0.69,-0.49,0.56
0.69,-0.5,0.57
0.69,-0.49,0.57
0.69,-0.49,0.58
0.69,-0.49,0.58
0.69,-0.49,0.57
0.68,-0.49,0.57
0.68,-0.5,0.57
0.69,-0.5,0.57
0.69,-0.49,0.58
0.68,-0.49,0.58
0.68,-0.49,0.58
0.68,-0.49,0.59
0.68,-0.49,0.58
0.68,-0.5,0.58
0.68,-0.5,0.59
0.68,-0.49,0.59
0.67,-0.5,0.59
0.68,-0.5,0.59
0.68,-0.5,0.58
0.68,-0.5,0.58
0.68,-0.5,0.58
0.68,-0.5,0.57
0.69,-0.5,0.57
0.69,-0.5,0.56
0.7,-0.5,0.56
0.69,-0.51,0.57
0.69,-0.5,0.57
0.69,-0.49,0.56
0.69,-0.49,0.56
0.68,-0.5,0.56
0.68,-0.51,0.57
0.69,-0.5,0.57
0.69,-0.5,0.56
0.68,-0.51,0.56
0.68,-0.5,0.56
0.68,-0.5,0.56
0.68,-0.5,0.56
0.68,-0.51,0.56
0.68,-0.51,0.56
0.68,-0.51,0.56
0.68,-0.52,0.56
0.68,-0.51,0.56
0.68,-0.5,0.56
0.68,-0.51,0.56
0.68,-0.51,0.56
0.68,-0.52,0.56
0.69,-0.51,0.56
0.68,-0.51,0.56
0.68,-0.51,0.56
0.69,-0.51,0.56
0.69,-0.5,0.56
0.69,-0.51,0.56
0.69,-0.51,0.56
0.69,-0.5,0.56
0.69,-0.5,0.56
0.69,-0.5,0.56
0.69,-0.5,0.56
0.69,-0.49,0.55
0.69,-0.49,0.56
0.69,-0.49,0.57
0.69,-0.49,0.57
0.69,-0.49,0.57
0.69,-0.49,0.57
0.7,-0.48,0.57
0.7,-0.49,0.57
0.7,-0.49,0.56
0.7,-0.49,0.56
0.7,-0.49,0.57
0.7,-0.49,0.57
0.7,-0.49,0.57
0.69,-0.5,0.57
0.69,-0.49,0.56
0.7,-0.49,0.56
0.7,-0.49,0.56
0.7,-0.49,0.56
0.7,-0.49,0.56
0.71,-0.49,0.56
0.7,-0.49,0.56
0.7,-0.49,0.56
0.7,-0.49,0.55
0.7,-0.49,0.55
0.7,-0.48,0.55
0.71,-0.48,0.55
0.71,-0.49,0.55
0.71,-0.49,0.55
0.71,-0.49,0.55
0.71,-0.5,0.55
0.7,-0.5,0.55
0.7,-0.5,0.54
0.7,-0.5,0.54
0.7,-0.5,0.54
0.72,-0.49,0.54
0.72,-0.5,0.53
0.71,-0.5,0.53
0.7,-0.51,0.53
0.7,-0.51,0.54
0.7,-0.51,0.54
0.7,-0.51,0.55
0.71,-0.5,0.55
0.71,-0.5,0.55
0.7,-0.49,0.56
0.71,-0.49,0.57
0.71,-0.48,0.57
0.7,-0.48,0.56
0.71,-0.48,0.56
0.71,-0.48,0.56
0.71,-0.48,0.56
0.71,-0.48,0.55
0.71,-0.49,0.55
0.71,-0.49,0.55
0.71,-0.49,0.55
0.71,-0.49,0.55
0.71,-0.49,0.55
0.71,-0.49,0.55
0.71,-0.49,0.55
0.72,-0.49,0.55
0.71,-0.49,0.55
0.71,-0.49,0.55
0.71,-0.49,0.56
0.71,-0.49,0.56
0.72,-0.49,0.56
0.72,-0.5,0.56
0.72,-0.5,0.56
0.72,-0.5,0.54
0.71,-0.51,0.53
0.7,-0.5,0.52
0.69,-0.5,0.53
0.68,-0.5,0.53
0.68,-0.5,0.54
0.68,-0.49,0.54
0.69,-0.49,0.55
0.69,-0.48,0.56
0.7,-0.47,0.56
0.71,-0.46,0.56
0.72,-0.46,0.56
0.73,-0.45,0.55
0.73,-0.45,0.54
0.73,-0.46,0.53
0.73,-0.46,0.53
0.73,-0.48,0.52
0.72,-0.49,0.52
0.72,-0.5,0.53
0.72,-0.5,0.54
0.71,-0.5,0.55
0.7,-0.51,0.56
0.7,-0.51,0.57
0.7,-0.51,0.57
0.7,-0.5,0.56
0.71,-0.51,0.55
0.7,-0.51,0.55
0.7,-0.51,0.55
0.7,-0.51,0.55
0.69,-0.51,0.56
0.69,-0.52,0.56
0.69,-0.52,0.56
0.69,-0.52,0.56
0.69,-0.52,0.56
0.69,-0.52,0.56
0.69,-0.52,0.56
0.69,-0.52,0.56
0.68,-0.52,0.56
0.68,-0.52,0.56
0.68,-0.51,0.56
0.68,-0.51,0.55
0.68,-0.51,0.55
0.68,-0.5,0.55
0.69,-0.49,0.55
0.69,-0.49,0.55
0.7,-0.48,0.55
0.71,-0.48,0.56
0.7,-0.47,0.56
0.71,-0.46,0.56
0.71,-0.45,0.56
0.71,-0.45,0.56
0.72,-0.45,0.56
0.73,-0.44,0.55
0.72,-0.44,0.55
0.72,-0.44,0.56
0.72,-0.44,0.56
0.72,-0.44,0.57
0.71,-0.45,0.58
0.7,-0.45,0.58
0.7,-0.46,0.58
0.7,-0.46,0.57
0.7,-0.47,0.57
0.7,-0.47,0.57
0.69,-0.48,0.57
0.7,-0.48,0.56
0.7,-0.49,0.56
0.69,-0.5,0.56
0.69,-0.51,0.56
0.69,-0.51,0.56
0.69,-0.51,0.56
0.69,-0.51,0.56
0.7,-0.51,0.56
0.7,-0.51,0.56
0.7,-0.51,0.56
0.71,-0.51,0.55
0.71,-0.51,0.54
0.7,-0.52,0.54
0.69,-0.51,0.54
0.69,-0.51,0.54
0.69,-0.51,0.54
0.7,-0.51,0.55
0.71,-0.5,0.55
