Acc_x,Acc_y,Acc_z
0.29,0.93,0.19
0.29,0.93,0.19
0.29,0.93,0.18
0.29,0.92,0.18
0.29,0.92,0.18
0.3,0.92,0.18
0.29,0.92,0.19
0.29,0.92,0.19
0.3,0.92,0.2
0.29,0.93,0.2
0.29,0.93,0.19
0.29,0.92,0.19
0.29,0.92,0.19
0.29,0.92,0.19
0.29,0.92,0.19
0.29,0.93,0.19
0.29,0.93,0.19
0.29,0.93,0.19
0.29,0.92,0.19
0.29,0.92,0.19
0.29,0.92,0.19
0.28,0.92,0.19
0.28,0.92,0.19
0.28,0.92,0.19
0.28,0.93,0.19
0.28,0.92,0.19
0.29,0.92,0.19
0.29,0.93,0.19
0.29,0.93,0.19
0.28,0.92,0.19
0.28,0.93,0.19
0.29,0.93,0.19
0.29,0.92,0.19
0.29,0.92,0.19
0.29,0.92,0.19
0.29,0.92,0.19
0.29,0.92,0.19
0.29,0.92,0.19
0.29,0.92,0.19
0.29,0.92,0.19
0.29,0.92,0.19
0.3,0.92,0.19
0.29,0.92,0.19
0.29,0.92,0.19
0.29,0.92,0.19
0.28,0.92,0.19
0.28,0.92,0.19
0.28,0.93,0.19
0.28,0.93,0.19
0.28,0.93,0.18
0.29,0.93,0.18
0.29,0.92,0.18
0.28,0.92,0.19
0.29,0.92,0.19
0.29,0.93,0.19
0.29,0.93,0.19
0.29,0.93,0.19
0.29,0.93,0.19
0.29,0.92,0.19
0.29,0.92,0.19
0.29,0.92,0.19
0.29,0.92,0.19
0.29,0.92,0.19
0.29,0.92,0.19
0.29,0.92,0.19
0.29,0.92,0.19
0.29,0.92,0.19
0.29,0.92,0.19
0.29,0.92,0.19
0.29,0.92,0.19
0.29,0.92,0.19
0.29,0.92,0.19
0.29,0.92,0.19
0.29,0.92,0.19
0.28,0.92,0.19
0.29,0.92,0.19
0.29,0.92,0.19
0.29,0.92,0.19
0.29,0.92,0.19
0.29,0.92,0.19
0.29,0.92,0.19
0.28,0.93,0.19
0.29,0.92,0.19
0.29,0.92,0.18
0.29,0.92,0.18
0.3,0.92,0.19
0.3,0.92,0.19
0.31,0.92,0.18
0.31,0.92,0.18
0.31,0.91,0.18
0.31,0.9,0.17
0.31,0.9,0.16
0.31,0.92,0.16
0.31,0.92,0.17
0.31,0.91,0.17
0.32,0.9,0.17
0.32,0.9,0.17
0.33,0.9,0.16
0.33,0.89,0.16
0.34,0.87,0.16
0.34,0.86,0.17
0.35,0.85,0.17
0.35,0.83,0.16
0.35,0.8,0.15
0.35,0.76,0.14
0.35,0.68,0.14
0.35,0.57,0.12
0.36,0.56,0.12
0.37,0.64,0.12
0.38,0.68,0.11
0.39,0.66,0.1
0.41,0.67,0.1
0.43,0.68,0.11
0.43,0.69,0.1
0.43,0.69,0.08
0.43,0.69,0.06
0.4,0.69,0.06
0.38,0.68,0.06
0.37,0.68,0.05
0.37,0.67,0.04
0.36,0.68,0.05
0.35,0.69,0.04
0.35,0.71,0.02
0.37,0.72,0
0.4,0.73,-0.01
0.42,0.75,-0.02
0.46,0.74,0
0.52,0.72,0.05
0.59,0.69,0.11
0.64,0.68,0.12
0.67,0.68,0.12
0.69,0.68,0.11
0.72,0.68,0.1
0.74,0.67,0.09
0.73,0.65,0.1
0.7,0.64,0.13
0.73,0.61,0.28
0.88,0.56,0.3
0.95,0.56,0.3
0.96,0.56,0.29
0.96,0.56,0.26
0.96,0.54,0.2
0.95,0.48,0.18
0.93,0.44,0.19
0.95,0.4,0.2
0.99,0.35,0.21
1,0.3,0.23
0.99,0.27,0.26
1,0.23,0.29
1.08,0.19,0.31
1.18,0.15,0.31
1.25,0.11,0.28
1.26,0.07,0.26
1.23,0.04,0.24
1.23,0.02,0.23
1.22,0.01,0.27
1.17,0,0.3
1.08,-0.01,0.31
1.02,-0.04,0.37
1,-0.08,0.41
1.03,-0.13,0.4
1.06,-0.17,0.4
1.04,-0.21,0.4
1.01,-0.22,0.36
0.99,-0.25,0.33
0.96,-0.27,0.3
0.97,-0.3,0.29
0.98,-0.33,0.27
1.08,-0.36,0.26
1.2,-0.39,0.26
1.24,-0.47,0.24
1.21,-0.55,0.22
1.16,-0.59,0.21
1.13,-0.63,0.19
1.16,-0.71,0.15
1.16,-0.77,0.15
1.11,-0.78,0.16
1.07,-0.83,0.13
1.05,-0.86,0.09
1.03,-0.85,0.07
1.01,-0.86,0.03
0.97,-0.88,0.01
0.95,-0.9,0.02
0.94,-0.91,0.01
0.87,-0.82,0.07
0.81,-0.89,0.04
0.78,-1.09,-0.03
0.73,-1.14,-0.02
0.71,-1.15,-0.05
0.64,-1.23,-0.12
0.64,-1.29,-0.15
0.59,-1.45,-0.04
0.6,-1.48,-0.05
0.58,-1.49,-0.11
0.48,-1.8,-0.15
0.15,-2.29,-0.32
0.27,-1.93,-0.21
0.58,-1.25,0.01
0.46,-1.21,-0.01
0.43,-1.2,-0.01
0.44,-1.18,0.05
0.39,-1.15,0.05
0.37,-1.12,0.06
0.33,-1.13,0.08
0.28,-1.09,0.1
0.2,-1.02,0.2
0.15,-0.91,0.15
0.14,-0.82,0.05
0.1,-0.77,0.05
0.1,-0.73,0.03
0.09,-0.71,0.03
0.03,-0.68,0.02
0,-0.63,-0.01
0.02,-0.59,-0.02
0.03,-0.57,0
-0.01,-0.55,0.03
-0.02,-0.56,0.06
-0.03,-0.57,0.07
-0.03,-0.59,0.07
-0.02,-0.59,0.05
-0.01,-0.6,0.05
0,-0.61,0.05
0.03,-0.64,0.07
0.06,-0.67,0.11
0.07,-0.7,0.16
0.06,-0.73,0.19
0.08,-0.74,0.2
0.1,-0.74,0.2
0.1,-0.74,0.19
0.1,-0.75,0.19
0.12,-0.77,0.21
0.13,-0.79,0.24
0.13,-0.79,0.28
0.14,-0.79,0.31
0.15,-0.79,0.33
0.16,-0.8,0.36
0.16,-0.81,0.38
0.16,-0.82,0.38
0.18,-0.82,0.36
0.2,-0.82,0.35
0.23,-0.84,0.4
0.27,-0.86,0.46
0.28,-0.87,0.51
0.29,-0.87,0.53
0.29,-0.89,0.56
0.28,-0.9,0.58
0.26,-0.91,0.59
0.26,-0.91,0.59
0.28,-0.89,0.58
0.31,-0.87,0.55
0.34,-0.86,0.52
0.38,-0.86,0.49
0.4,-0.87,0.48
0.45,-0.89,0.41
0.53,-0.94,0.35
0.54,-1.04,0.33
0.54,-1.14,0.31
0.54,-1.26,0.3
0.53,-1.39,0.25
0.53,-1.28,0.18
0.55,-1.39,0.09
0.71,-1.75,0.05
0.73,-2.03,0.07
0.67,-2.16,0
0.71,-1.97,-0.04
0.65,-1.92,-0.01
0.54,-1.89,-0.03
0.46,-1.65,-0.22
0.56,-1.54,-0.17
0.61,-1.38,-0.09
0.57,-1.35,-0.17
0.6,-1.31,-0.23
0.55,-1.24,-0.19
0.48,-1.18,-0.19
0.52,-1.13,-0.25
0.54,-1.06,-0.27
0.5,-0.99,-0.26
0.45,-0.9,-0.23
0.39,-0.84,-0.19
0.42,-0.78,-0.19
0.45,-0.64,-0.2
0.43,-0.6,-0.22
0.43,-0.7,-0.26
0.39,-0.71,-0.22
0.39,-0.65,-0.15
0.41,-0.6,-0.15
0.36,-0.63,-0.14
0.29,-0.65,-0.12
0.28,-0.62,-0.13
0.28,-0.6,-0.12
0.27,-0.59,-0.11
0.28,-0.6,-0.09
0.28,-0.62,-0.08
0.27,-0.67,-0.08
0.27,-0.69,-0.09
0.26,-0.72,-0.1
0.25,-0.74,-0.1
0.26,-0.78,-0.1
0.26,-0.81,-0.1
0.27,-0.84,-0.09
0.28,-0.85,-0.08
0.29,-0.86,-0.06
0.3,-0.86,-0.05
0.31,-0.86,-0.04
0.32,-0.85,-0.03
0.32,-0.85,-0.01
0.33,-0.84,0
0.33,-0.83,0
0.33,-0.82,0.01
0.33,-0.81,0.01
0.33,-0.81,0.02
0.33,-0.82,0.03
0.34,-0.84,0.03
0.35,-0.87,0.03
0.35,-0.89,0.04
0.35,-0.91,0.05
0.35,-0.94,0.07
0.35,-0.96,0.08
0.35,-0.99,0.09
0.34,-1.02,0.08
0.36,-1.03,0.09
0.37,-1.04,0.11
0.39,-1.06,0.12
0.4,-1.07,0.14
0.39,-1.11,0.15
0.39,-1.14,0.17
0.39,-1.15,0.19
0.4,-1.16,0.18
0.4,-1.23,0.17
0.43,-1.2,0.19
0.45,-1.16,0.2
0.43,-1.23,0.2
0.44,-1.28,0.19
0.49,-1.33,0.18
0.51,-1.37,0.2
0.52,-1.35,0.22
0.54,-1.3,0.24
0.53,-1.33,0.24
0.51,-1.36,0.24
0.52,-1.33,0.24
0.53,-1.32,0.23
0.53,-1.3,0.22
0.54,-1.25,0.22
0.55,-1.21,0.23
0.55,-1.15,0.22
0.55,-1.02,0.23
0.54,-0.96,0.22
0.56,-0.9,0.21
0.54,-0.86,0.2
0.51,-0.81,0.2
0.52,-0.78,0.19
0.54,-0.79,0.18
0.55,-0.83,0.17
0.55,-0.89,0.17
0.55,-0.96,0.18
0.55,-1.02,0.2
0.55,-1.07,0.21
0.53,-1.08,0.22
0.52,-1.04,0.22
0.51,-0.97,0.2
0.49,-0.91,0.18
0.47,-0.87,0.15
0.47,-0.83,0.11
0.48,-0.8,0.09
0.5,-0.78,0.07
0.54,-0.77,0.06
0.54,-0.77,0.05
0.54,-0.77,0.04
0.53,-0.76,0.02
0.52,-0.77,0.02
0.51,-0.8,0.01
0.51,-0.82,0
0.49,-0.84,0
0.49,-0.89,-0.01
0.51,-0.94,0
0.51,-0.97,-0.01
0.51,-1,-0.02
0.53,-1.02,-0.01
0.54,-1.06,0
0.53,-1.13,0
0.55,-1.15,0.03
0.57,-1.16,0.04
0.59,-1.21,0.04
0.62,-1.25,0.06
0.64,-1.29,0.09
0.64,-1.34,0.11
0.62,-1.42,0.12
0.61,-1.49,0.14
0.6,-1.55,0.15
0.59,-1.58,0.18
0.58,-1.59,0.2
0.57,-1.58,0.21
0.57,-1.56,0.2
0.56,-1.53,0.19
0.52,-1.48,0.21
0.48,-1.42,0.22
0.45,-1.38,0.19
0.43,-1.33,0.15
0.36,-1.18,0.13
0.37,-1.08,0.29
0.41,-1.16,0.16
0.42,-1.25,-0.03
0.35,-1.15,0.04
0.25,-1.12,0.05
0.22,-1.1,0.02
0.2,-1.02,-0.06
0.21,-1,-0.05
0.29,-0.98,-0.03
0.25,-0.94,-0.03
0.22,-0.93,-0.04
0.23,-0.91,-0.06
0.22,-0.88,-0.05
0.23,-0.84,-0.03
0.19,-0.8,-0.05
0.16,-0.77,-0.05
0.22,-0.76,-0.08
0.25,-0.7,-0.1
0.22,-0.65,-0.07
0.23,-0.64,-0.08
0.24,-0.63,-0.08
0.24,-0.62,-0.08
0.24,-0.62,-0.09
0.25,-0.63,-0.08
0.25,-0.64,-0.06
0.26,-0.67,-0.09
0.31,-0.69,-0.1
0.28,-0.71,-0.06
0.27,-0.74,-0.06
0.28,-0.78,-0.05
0.3,-0.81,-0.05
0.29,-0.85,-0.05
0.31,-0.87,-0.06
0.31,-0.9,-0.05
0.27,-0.97,-0.03
0.28,-1.01,-0.02
0.31,-1.02,-0.03
0.31,-1.04,-0.03
0.32,-1.06,-0.03
0.32,-1.07,-0.02
0.33,-1.07,-0.02
0.33,-1.07,-0.02
0.34,-1.07,-0.01
0.35,-1.08,-0.01
0.35,-1.08,-0.01
0.36,-1.1,-0.01
0.38,-1.12,-0.02
0.39,-1.13,-0.02
0.42,-1.15,-0.02
0.44,-1.19,-0.03
0.39,-1.23,-0.03
0.41,-1.29,-0.03
0.41,-1.36,-0.04
0.4,-1.41,-0.05
0.41,-1.46,-0.06
0.43,-1.46,-0.05
0.45,-1.4,-0.03
0.46,-1.37,-0.04
0.45,-1.33,-0.05
0.45,-1.25,-0.05
0.45,-1.13,-0.06
0.46,-1.04,-0.05
0.47,-1,-0.04
0.49,-1.03,-0.03
0.5,-1.08,-0.01
0.53,-1.15,0.01
0.54,-1.21,0.02
0.55,-1.24,0.02
0.57,-1.24,0.02
0.56,-1.21,0.03
0.56,-1.17,0.03
0.57,-1.11,0.02
0.56,-1.05,0.02
0.57,-0.98,0.03
0.57,-0.93,0.06
0.56,-0.91,0.08
0.58,-0.87,0.11
0.6,-0.88,0.07
0.62,-0.86,0.06
0.6,-0.84,0.09
0.61,-0.83,0.09
0.57,-0.85,0.09
0.57,-0.85,0.09
0.62,-0.8,0.1
0.65,-0.76,0.12
0.66,-0.77,0.11
0.67,-0.81,0.1
0.67,-0.85,0.12
0.65,-0.88,0.13
0.66,-0.91,0.13
0.69,-0.94,0.12
0.7,-0.96,0.11
0.68,-0.98,0.1
0.65,-0.99,0.1
0.63,-1,0.11
0.61,-1.02,0.11
0.6,-1.05,0.11
0.59,-1.08,0.11
0.58,-1.13,0.1
0.57,-1.17,0.08
0.55,-1.21,0.07
0.53,-1.24,0.07
0.51,-1.24,0.06
0.48,-1.23,0.05
0.47,-1.25,0.04
0.47,-1.31,0.02
0.46,-1.37,0.02
0.45,-1.4,0.02
0.42,-1.43,0.03
0.34,-1.47,0.04
0.32,-1.44,0.05
0.32,-1.42,0.05
0.3,-1.45,0.07
0.31,-1.47,0.05
0.32,-1.49,0.04
0.33,-1.48,0.02
0.31,-1.45,0
0.28,-1.37,-0.02
0.25,-1.27,-0.03
0.22,-1.17,-0.03
0.2,-1.07,-0.02
0.22,-0.99,-0.03
0.25,-0.95,-0.05
0.26,-0.94,-0.03
0.31,-0.96,-0.05
0.35,-1,-0.07
0.32,-1.03,-0.07
0.28,-1.07,-0.07
0.22,-1.08,-0.07
0.34,-0.96,-0.06
0.3,-0.93,-0.03
0.22,-0.96,-0.04
0.21,-0.93,-0.05
0.21,-0.89,-0.05
0.21,-0.85,-0.04
0.19,-0.84,-0.04
0.18,-0.82,-0.04
0.19,-0.81,-0.04
0.19,-0.8,-0.04
0.18,-0.79,-0.04
0.18,-0.79,-0.04
0.17,-0.78,-0.05
0.18,-0.77,-0.05
0.2,-0.76,-0.05
0.21,-0.74,-0.05
0.22,-0.73,-0.05
0.23,-0.71,-0.05
0.25,-0.71,-0.05
0.25,-0.71,-0.04
0.24,-0.7,-0.04
0.24,-0.69,-0.03
0.25,-0.69,-0.02
0.26,-0.7,-0.01
0.27,-0.71,0
0.28,-0.72,0.01
0.3,-0.77,0.04
0.31,-0.78,0.05
0.3,-0.82,0.05
0.31,-0.85,0.07
0.32,-0.87,0.07
0.34,-0.93,0.07
0.35,-0.97,0.08
0.36,-1.01,0.1
0.36,-1.08,0.1
0.36,-1.17,0.1
0.35,-1.25,0.11
0.33,-1.32,0.11
0.32,-1.37,0.1
0.34,-1.45,0.09
0.41,-1.51,0.05
0.47,-1.55,-0.01
0.48,-1.53,-0.02
0.5,-1.42,0.03
0.53,-1.3,0.05
0.58,-1.22,0.04
0.61,-1.18,0.05
0.63,-1.21,0.04
0.63,-1.32,0.08
0.52,-1.41,0.15
0.46,-1.47,0.15
0.56,-1.5,0.13
0.51,-1.37,0.07
0.52,-1.28,0.06
0.56,-1.21,0.14
0.5,-1.11,0.13
0.47,-1.01,0.13
0.57,-0.94,0.17
0.54,-0.88,0.14
0.51,-0.83,0.15
0.52,-0.81,0.18
0.52,-0.83,0.22
0.45,-0.87,0.16
0.45,-0.89,0.11
0.57,-0.84,0.11
0.59,-0.82,0.12
0.59,-0.83,0.16
0.6,-0.82,0.2
0.6,-0.79,0.25
0.61,-0.81,0.23
0.6,-0.87,0.21
0.6,-0.95,0.29
0.59,-0.93,0.33
0.67,-0.94,0.22
0.77,-0.97,0.21
0.61,-0.96,0.25
0.55,-0.99,0.19
0.66,-0.96,0.18
0.65,-0.97,0.17
0.59,-0.98,0.16
0.56,-0.99,0.15
0.55,-1.02,0.14
0.55,-1.05,0.13
0.55,-1.08,0.12
0.54,-1.1,0.12
0.54,-1.12,0.13
0.52,-1.14,0.14
0.51,-1.15,0.14
0.53,-1.18,0.11
0.52,-1.25,0.09
0.51,-1.35,0.09
0.5,-1.46,0.09
0.49,-1.5,0.08
0.53,-1.59,0.05
0.52,-1.68,0.05
0.47,-1.65,0.13
0.43,-1.64,0.18
0.42,-1.59,0.14
0.43,-1.58,0.1
0.4,-1.61,0.07
0.38,-1.58,0.05
0.36,-1.55,0.05
0.31,-1.53,0.03
0.29,-1.5,0.05
0.28,-1.39,0
0.19,-1.32,-0.02
0.2,-1.24,0.05
0.23,-1.14,-0.07
0.26,-1.02,-0.02
0.25,-0.94,0.1
0.28,-0.91,-0.03
0.27,-0.88,-0.08
0.28,-0.82,-0.05
0.26,-0.76,-0.07
0.24,-0.74,-0.08
0.26,-0.74,-0.06
0.27,-0.73,-0.07
0.22,-0.72,-0.08
0.19,-0.7,-0.07
0.18,-0.68,-0.07
0.17,-0.67,-0.07
0.17,-0.66,-0.08
0.17,-0.65,-0.08
0.18,-0.64,-0.08
0.18,-0.64,-0.08
0.18,-0.63,-0.08
0.18,-0.61,-0.07
0.18,-0.6,-0.07
0.18,-0.59,-0.07
0.19,-0.59,-0.07
0.21,-0.58,-0.06
0.23,-0.58,-0.05
0.24,-0.59,-0.05
0.25,-0.6,-0.06
0.26,-0.62,-0.06
0.27,-0.65,-0.06
0.28,-0.68,-0.06
0.29,-0.72,-0.06
0.3,-0.76,-0.05
0.31,-0.8,-0.04
0.32,-0.84,-0.04
0.32,-0.9,-0.03
0.32,-0.96,-0.03
0.34,-1.01,-0.02
0.34,-1.06,-0.01
0.33,-1.15,0
0.36,-1.19,0.03
0.37,-1.23,0.04
0.34,-1.33,0.04
0.37,-1.4,0.06
0.41,-1.45,0.06
0.43,-1.47,0.06
0.44,-1.47,0.1
0.45,-1.45,0.13
0.54,-1.47,0.19
0.54,-1.37,0.27
0.44,-1.44,0.05
0.57,-1.64,0.12
0.65,-1.39,0.14
0.4,-1.39,0.11
0.33,-1.35,0.17
0.46,-1.34,0.06
0.5,-1.31,0.09
0.52,-1.23,0.16
0.45,-1.33,0.13
0.41,-1.43,0.11
0.36,-1.42,0.12
0.38,-1.37,0.13
0.41,-1.32,0.12
0.4,-1.28,0.15
0.43,-1.24,0.17
0.43,-1.2,0.19
0.47,-1.13,0.16
0.52,-1.07,0.13
0.49,-0.99,0.15
0.48,-0.91,0.18
0.46,-0.85,0.17
0.44,-0.79,0.13
0.46,-0.74,0.12
0.45,-0.72,0.13
0.43,-0.74,0.14
0.43,-0.73,0.17
0.45,-0.74,0.2
0.47,-0.77,0.21
0.48,-0.79,0.21
0.5,-0.8,0.21
0.5,-0.81,0.21
0.52,-0.82,0.22
0.56,-0.84,0.22
0.59,-0.87,0.21
0.6,-0.89,0.21
0.61,-0.92,0.21
0.61,-0.94,0.2
0.61,-0.95,0.2
0.62,-0.97,0.19
0.62,-0.98,0.19
0.6,-0.99,0.19
0.58,-1.01,0.17
0.57,-1.02,0.16
0.55,-1.04,0.16
0.53,-1.06,0.16
0.51,-1.07,0.14
0.51,-1.09,0.11
0.52,-1.09,0.09
0.51,-1.08,0.09
0.46,-1.1,0.12
0.44,-1.08,0.13
0.43,-1.12,0.09
0.45,-1.15,0.02
0.47,-1.23,0.03
0.49,-1.25,0.03
0.46,-1.3,0.04
0.41,-1.33,0.02
0.44,-1.35,-0.02
0.49,-1.36,-0.08
0.5,-1.3,-0.04
0.45,-1.29,0.06
0.44,-1.32,0.04
0.49,-1.36,0.02
0.48,-1.47,-0.01
0.47,-1.59,-0.01
0.46,-1.64,-0.01
0.44,-1.67,-0.01
0.4,-1.65,-0.01
0.37,-1.56,-0.02
0.33,-1.44,-0.03
0.28,-1.33,-0.03
0.23,-1.22,0.02
0.25,-1.14,0.09
0.22,-1.1,0.06
0.16,-1.01,0.09
0.25,-0.93,0.05
0.24,-0.92,-0.11
0.2,-0.83,-0.04
0.22,-0.73,-0.08
0.3,-0.75,-0.11
0.32,-0.67,-0.06
0.27,-0.64,-0.06
0.23,-0.64,-0.07
0.23,-0.64,-0.07
0.23,-0.63,-0.07
0.22,-0.62,-0.07
0.21,-0.61,-0.07
0.2,-0.61,-0.08
0.19,-0.61,-0.07
0.19,-0.62,-0.07
0.19,-0.63,-0.07
0.2,-0.63,-0.07
0.2,-0.64,-0.06
0.2,-0.64,-0.06
0.22,-0.64,-0.05
0.23,-0.65,-0.04
0.23,-0.66,-0.03
0.24,-0.68,-0.03
0.25,-0.7,-0.03
0.25,-0.72,-0.03
0.26,-0.75,-0.01
0.25,-0.8,-0.03
0.25,-0.83,-0.04
0.28,-0.83,-0.01
0.29,-0.87,-0.01
0.3,-0.97,0.01
0.28,-1.03,0.02
0.29,-1.1,0.03
0.29,-1.2,0.02
0.4,-1.19,0
0.41,-1.17,0.02
0.27,-1.29,0.01
0.27,-1.35,0.01
0.31,-1.32,0.03
0.33,-1.24,0.06
0.35,-1.18,0.08
0.34,-1.15,0.12
0.34,-1.17,0.17
0.35,-1.28,0.17
0.29,-1.41,0.1
0.32,-1.54,0.05
0.36,-1.52,0
0.31,-1.49,0.01
0.32,-1.54,0.02
0.36,-1.55,0.03
0.37,-1.61,-0.01
0.39,-1.58,-0.03
0.43,-1.43,0.03
0.41,-1.26,0.04
0.42,-1.12,0.05
0.44,-1.02,0.1
0.5,-0.98,0.11
0.5,-1.05,0.1
0.5,-1.14,0.09
0.5,-1.21,0.08
0.5,-1.25,0.07
0.5,-1.24,0.07
0.48,-1.2,0.08
0.46,-1.14,0.09
0.45,-1.08,0.11
0.44,-1.02,0.09
0.45,-0.95,0.12
0.47,-0.89,0.14
0.49,-0.82,0.14
0.51,-0.75,0.15
0.51,-0.74,0.13
0.5,-0.79,0.09
0.52,-0.82,0.08
0.54,-0.79,0.09
0.54,-0.79,0.08
0.55,-0.81,0.06
0.57,-0.83,0.05
0.6,-0.85,0.06
0.61,-0.86,0.06
0.61,-0.88,0.06
0.62,-0.9,0.05
0.64,-0.92,0.05
0.64,-0.96,0.02
0.64,-0.93,0.04
0.63,-0.94,0.04
0.63,-0.96,0.04
0.63,-0.97,0.03
0.63,-0.98,0.01
0.62,-0.99,0
0.61,-1.01,-0.02
0.61,-1.03,-0.03
0.6,-1.04,-0.03
0.56,-1.05,-0.01
0.55,-1.08,-0.01
0.59,-1.1,-0.03
0.58,-1.11,-0.01
0.54,-1.14,-0.02
0.54,-1.15,-0.05
0.57,-1.19,-0.11
0.58,-1.24,-0.06
0.58,-1.25,-0.03
0.6,-1.28,0.01
0.62,-1.35,-0.03
0.61,-1.39,-0.08
0.59,-1.41,-0.05
0.6,-1.47,-0.05
0.54,-1.52,-0.03
0.55,-1.48,-0.04
0.52,-1.36,0.01
0.55,-1.3,0.03
0.49,-1.32,0.02
0.5,-1.35,0.03
0.51,-1.42,0.04
0.49,-1.49,0.04
0.46,-1.53,0.02
0.43,-1.52,0.01
0.4,-1.46,0.01
0.36,-1.37,0.01
0.31,-1.28,0.02
0.26,-1.2,0.03
0.24,-1.12,0.04
0.23,-1.05,0.03
0.21,-0.97,0.02
0.19,-0.85,0.07
0.21,-0.81,0
0.26,-0.79,-0.06
0.27,-0.68,-0.02
0.26,-0.61,-0.02
0.25,-0.57,-0.01
0.21,-0.56,-0.03
0.19,-0.6,-0.07
0.23,-0.59,-0.09
0.24,-0.55,-0.09
0.21,-0.56,-0.11
0.17,-0.55,-0.11
0.2,-0.53,-0.16
0.25,-0.57,-0.18
0.26,-0.61,-0.14
0.22,-0.62,-0.14
0.17,-0.66,-0.13
0.18,-0.7,-0.16
0.24,-0.71,-0.18
0.24,-0.74,-0.16
0.24,-0.75,-0.14
0.24,-0.75,-0.14
0.24,-0.77,-0.15
0.24,-0.79,-0.12
0.25,-0.8,-0.11
0.31,-0.82,-0.11
0.33,-0.83,-0.11
0.3,-0.84,-0.1
0.31,-0.86,-0.08
0.31,-0.91,-0.08
0.32,-0.94,-0.07
0.33,-0.97,-0.07
0.34,-1,-0.06
0.36,-1.02,-0.06
0.36,-1.04,-0.04
0.37,-1.05,-0.03
0.37,-1.07,-0.02
0.37,-1.08,-0.01
0.39,-1.11,0
0.4,-1.15,0.02
0.42,-1.2,0.02
0.43,-1.28,0.03
0.42,-1.38,0.03
0.4,-1.49,0.03
0.37,-1.57,0.04
0.4,-1.74,0.05
0.43,-1.92,0
0.44,-1.91,-0.01
0.49,-1.66,0.02
0.5,-1.46,-0.05
0.55,-1.3,-0.11
0.63,-1.02,-0.11
0.69,-0.81,-0.12
0.65,-0.82,-0.12
0.61,-1.06,-0.1
0.59,-1.2,0.02
0.6,-1.3,0.08
0.64,-1.43,0.04
0.57,-1.51,0.03
0.55,-1.5,0
0.54,-1.36,-0.01
0.52,-1.21,-0.01
0.51,-1.06,-0.01
0.49,-0.87,0.02
0.5,-0.82,0.02
0.53,-0.79,0.02
0.57,-0.77,0.02
0.58,-0.78,0.01
0.59,-0.81,0
0.6,-0.84,0
0.6,-0.86,0
0.6,-0.89,0.01
0.6,-0.91,0.01
0.62,-0.93,0.02
0.62,-0.94,0.04
0.63,-0.94,0.03
0.64,-0.93,0.02
0.65,-0.93,0.03
0.67,-0.93,0.03
0.69,-0.91,0
0.69,-0.9,-0.01
0.69,-0.9,0
0.69,-0.89,0.01
0.68,-0.9,0
0.67,-0.91,0
0.65,-0.92,-0.01
0.62,-0.94,-0.02
0.6,-0.95,-0.03
0.57,-0.97,-0.04
0.55,-1.02,-0.05
0.51,-1.04,-0.05
0.5,-1.05,-0.05
0.48,-1.07,-0.07
0.46,-1.08,-0.07
0.46,-1.08,-0.07
0.45,-1.1,-0.08
0.45,-1.11,-0.09
0.44,-1.14,-0.11
0.43,-1.19,-0.11
0.43,-1.23,-0.12
0.43,-1.29,-0.12
0.43,-1.36,-0.12
0.45,-1.41,-0.13
0.44,-1.45,-0.13
0.4,-1.45,-0.12
0.37,-1.39,-0.1
0.32,-1.27,-0.07
0.3,-1.15,-0.06
0.33,-1.11,-0.07
0.4,-1.18,-0.09
0.43,-1.28,-0.09
0.44,-1.41,-0.08
0.43,-1.53,-0.08
0.4,-1.58,-0.1
0.37,-1.55,-0.11
0.33,-1.46,-0.12
0.22,-1.23,-0.13
0.18,-1.14,-0.13
0.15,-1.06,-0.12
0.11,-0.93,-0.02
0.15,-0.85,-0.02
0.24,-0.86,-0.14
0.26,-0.85,-0.14
0.26,-0.82,-0.1
0.27,-0.78,-0.06
0.27,-0.8,-0.1
0.29,-0.78,-0.12
0.29,-0.75,-0.1
0.27,-0.75,-0.12
0.27,-0.75,-0.12
0.27,-0.74,-0.11
0.26,-0.73,-0.1
0.23,-0.75,-0.1
0.21,-0.76,-0.1
0.2,-0.77,-0.09
0.19,-0.79,-0.08
0.19,-0.79,-0.09
0.18,-0.79,-0.09
0.17,-0.78,-0.08
0.17,-0.76,-0.07
0.18,-0.74,-0.05
0.18,-0.72,-0.03
0.2,-0.71,-0.03
0.21,-0.71,-0.03
0.22,-0.71,-0.03
0.22,-0.73,-0.03
0.24,-0.73,-0.02
0.24,-0.74,-0.02
0.23,-0.77,-0.03
0.24,-0.79,-0.02
0.22,-0.82,-0.02
0.24,-0.86,-0.04
0.27,-0.89,-0.04
0.27,-0.95,-0.03
0.29,-0.99,-0.02
0.31,-1.04,-0.01
0.32,-1.09,-0.01
0.34,-1.14,0.01
0.33,-1.19,0.02
0.32,-1.26,0
0.34,-1.36,-0.03
0.42,-1.52,-0.02
0.43,-1.75,-0.04
0.33,-1.88,0
0.33,-1.88,0
0.48,-1.69,-0.03
0.5,-1.61,-0.06
0.5,-1.53,-0.04
0.7,-0.91,0.01
0.6,-0.77,0.03
0.58,-0.73,0.06
0.62,-0.76,0.05
0.55,-0.89,0.07
0.48,-1.05,0.07
0.48,-1.2,0.07
0.52,-1.34,0.05
0.53,-1.53,0
0.47,-1.68,-0.01
0.4,-1.75,0.01
0.42,-1.77,0.02
0.43,-1.66,0.01
0.49,-1.39,0.02
0.51,-1.12,0.03
0.5,-0.94,0.02
0.52,-0.81,0.04
0.59,-0.68,0.07
0.65,-0.61,0.07
0.56,-0.67,0.03
0.53,-0.74,0.05
0.58,-0.7,0.09
0.64,-0.65,0.03
0.67,-0.69,-0.02
0.67,-0.71,-0.03
0.64,-0.72,-0.02
0.62,-0.77,-0.02
0.62,-0.82,-0.01
0.6,-0.86,0
0.59,-0.92,-0.01
0.61,-0.97,-0.02
0.63,-1.01,-0.03
0.65,-1.02,-0.04
0.65,-1.03,-0.05
0.66,-1.04,-0.06
0.65,-1.05,-0.06
0.64,-1.06,-0.06
0.64,-1.07,-0.06
0.63,-1.08,-0.07
0.62,-1.1,-0.09
0.6,-1.13,-0.09
0.58,-1.16,-0.09
0.56,-1.18,-0.09
0.55,-1.2,-0.08
0.56,-1.22,-0.08
0.55,-1.24,-0.08
0.52,-1.27,-0.1
0.5,-1.29,-0.11
0.47,-1.3,-0.09
0.44,-1.26,-0.08
0.49,-1.22,-0.07
0.51,-1.25,-0.1
0.46,-1.32,-0.08
0.46,-1.3,-0.17
0.5,-1.33,-0.16
0.47,-1.46,-0.1
0.39,-1.6,-0.09
0.42,-1.65,-0.08
0.4,-1.66,-0.08
0.34,-1.66,-0.1
0.33,-1.57,-0.1
0.3,-1.43,-0.1
0.28,-1.3,-0.07
0.24,-1.19,-0.05
0.19,-1.07,-0.03
0.18,-0.98,0.01
0.2,-0.9,0.01
0.2,-0.86,-0.04
0.27,-0.81,-0.05
0.29,-0.77,-0.06
0.28,-0.81,-0.09
0.3,-0.79,-0.06
0.31,-0.74,-0.05
0.31,-0.74,-0.06
0.27,-0.79,-0.09
0.24,-0.84,-0.13
0.27,-0.83,-0.14
0.28,-0.81,-0.15
0.2,-0.81,-0.14
0.18,-0.79,-0.13
0.17,-0.76,-0.13
0.15,-0.74,-0.14
0.19,-0.71,-0.14
0.19,-0.69,-0.13
0.18,-0.69,-0.13
0.2,-0.69,-0.13
0.2,-0.68,-0.13
0.2,-0.68,-0.13
0.21,-0.69,-0.12
0.21,-0.69,-0.12
0.2,-0.71,-0.11
0.2,-0.72,-0.1
0.21,-0.74,-0.1
0.24,-0.75,-0.11
0.24,-0.78,-0.1
0.23,-0.84,-0.05
0.23,-0.92,-0.03
0.27,-0.91,-0.08
0.3,-0.89,-0.12
0.28,-0.94,-0.12
0.29,-1,-0.12
0.31,-1.04,-0.11
0.32,-1.08,-0.11
0.33,-1.12,-0.11
0.36,-1.23,-0.08
0.38,-1.29,-0.1
0.38,-1.34,-0.11
0.39,-1.39,-0.07
0.4,-1.45,-0.08
0.38,-1.5,-0.09
0.37,-1.51,-0.12
0.4,-1.51,-0.14
0.44,-1.49,-0.16
0.43,-1.45,-0.11
0.46,-1.34,-0.06
0.5,-1.25,-0.05
0.53,-1.13,-0.02
0.53,-0.98,0.01
0.5,-0.91,-0.03
0.52,-1.01,-0.13
0.5,-1.16,-0.16
0.45,-1.24,-0.11
0.54,-1.35,-0.09
0.56,-1.49,-0.11
0.5,-1.54,-0.09
0.52,-1.54,-0.06
0.53,-1.47,-0.05
0.53,-1.33,-0.04
0.54,-1.2,-0.02
0.54,-1.11,-0.01
0.55,-1.01,-0.01
0.55,-0.98,-0.02
0.58,-0.96,-0.02
0.61,-0.93,-0.02
0.61,-0.9,0
0.6,-0.88,0.01
0.62,-0.83,0
0.67,-0.79,0.03
0.64,-0.77,0.02
0.73,-0.72,-0.07
0.72,-0.72,-0.05
0.52,-0.79,0.02
0.59,-0.82,-0.01
0.7,-0.8,-0.02
0.68,-0.81,-0.01
0.67,-0.84,0
0.68,-0.88,0
0.68,-0.9,0.01
0.67,-0.92,0.02
0.66,-0.95,0.02
0.66,-0.99,0.02
0.65,-1.03,0.02
0.64,-1.08,0
0.63,-1.13,-0.01
0.62,-1.17,-0.02
0.62,-1.2,-0.05
0.61,-1.2,-0.06
0.66,-1.19,-0.04
0.66,-1.2,-0.03
0.66,-1.21,-0.03
0.65,-1.22,-0.05
0.65,-1.23,-0.08
0.62,-1.26,-0.1
0.58,-1.25,-0.11
0.57,-1.21,-0.1
0.5,-1.18,-0.07
0.42,-1.13,-0.05
0.42,-1.13,-0.07
0.51,-1.17,-0.12
0.55,-1.22,-0.1
0.46,-1.31,-0.1
0.4,-1.4,-0.13
0.46,-1.46,-0.12
0.46,-1.53,-0.12
0.42,-1.59,-0.13
0.39,-1.62,-0.13
0.37,-1.61,-0.14
0.35,-1.55,-0.14
0.3,-1.47,-0.15
0.26,-1.36,-0.16
0.24,-1.23,-0.09
0.22,-1.18,-0.08
0.27,-0.98,-0.06
0.17,-0.99,-0.15
0.21,-0.96,-0.22
0.25,-0.85,-0.13
0.2,-0.77,-0.11
0.21,-0.74,-0.1
0.22,-0.72,-0.09
0.22,-0.7,-0.1
0.22,-0.69,-0.12
0.18,-0.68,-0.14
0.17,-0.68,-0.13
0.17,-0.68,-0.13
0.19,-0.68,-0.14
0.18,-0.69,-0.12
0.15,-0.71,-0.11
0.14,-0.73,-0.11
0.11,-0.76,-0.11
0.09,-0.8,-0.12
0.09,-0.81,-0.12
0.1,-0.81,-0.13
0.12,-0.8,-0.14
0.13,-0.79,-0.11
0.14,-0.76,-0.09
0.16,-0.74,-0.08
0.15,-0.74,-0.09
0.14,-0.73,-0.08
0.13,-0.76,-0.1
0.15,-0.78,-0.09
0.16,-0.81,-0.09
0.18,-0.83,-0.1
0.23,-0.83,-0.1
0.26,-0.8,-0.07
0.26,-0.83,-0.08
0.25,-0.94,-0.13
0.28,-1,-0.12
0.32,-1.07,-0.11
0.35,-1.14,-0.12
0.35,-1.21,-0.14
0.36,-1.26,-0.12
0.38,-1.3,-0.1
0.42,-1.33,-0.1
0.44,-1.39,-0.09
0.45,-1.47,-0.1
0.46,-1.54,-0.08
0.48,-1.62,-0.07
0.5,-1.59,-0.08
0.49,-1.61,-0.11
0.58,-1.59,-0.16
0.62,-1.4,-0.12
0.6,-1.27,-0.02
0.53,-1.33,0.02
0.44,-1.41,-0.03
0.47,-1.36,0.01
0.57,-1.15,0.04
0.62,-1.05,0.04
0.59,-0.98,0.05
0.58,-0.98,0.03
0.62,-1.02,0
0.55,-1.07,0.03
0.53,-1.1,0.06
0.59,-1.14,0.03
0.63,-1.17,0.03
0.61,-1.15,0.05
0.6,-1.09,0.07
0.6,-1.04,0.07
0.6,-0.97,0.07
0.6,-0.92,0.07
0.62,-0.87,0.04
0.67,-0.84,0.06
0.63,-0.86,0.07
0.58,-0.88,0.04
0.67,-0.84,0.03
0.71,-0.82,0.05
0.65,-0.86,0.05
0.68,-0.86,0.02
0.72,-0.84,0.01
0.71,-0.84,0
0.72,-0.83,0.01
0.73,-0.82,0
0.73,-0.81,0
0.73,-0.82,-0.01
0.73,-0.84,-0.02
0.72,-0.87,-0.02
0.71,-0.91,-0.02
0.7,-0.96,-0.02
0.7,-1.01,-0.03
0.69,-1.06,-0.04
0.68,-1.1,-0.05
0.67,-1.14,-0.06
0.64,-1.18,-0.06
0.66,-1.18,-0.06
0.68,-1.19,-0.05
0.66,-1.21,-0.04
0.64,-1.24,-0.05
0.64,-1.25,-0.07
0.64,-1.27,-0.07
0.63,-1.3,-0.07
0.63,-1.32,-0.06
0.63,-1.31,-0.04
0.61,-1.29,-0.02
0.56,-1.28,-0.01
0.56,-1.18,-0.01
0.6,-1.11,-0.02
0.59,-1.11,-0.02
0.57,-1.15,-0.06
0.51,-1.35,-0.06
0.46,-1.44,-0.06
0.48,-1.43,-0.07
0.46,-1.38,-0.08
0.37,-1.29,-0.03
0.42,-1.18,0.03
0.44,-1.13,0.01
0.45,-1.13,-0.02
0.47,-1.12,-0.03
0.4,-1.12,-0.05
0.36,-1.13,-0.06
0.35,-1.12,-0.06
0.32,-1.08,-0.07
0.29,-1.04,-0.08
0.26,-0.99,-0.07
0.25,-0.94,-0.07
0.25,-0.87,-0.05
0.21,-0.83,-0.06
0.22,-0.77,-0.07
0.27,-0.72,-0.04
0.28,-0.69,-0.08
0.27,-0.69,-0.04
0.29,-0.66,-0.02
0.31,-0.62,-0.06
0.29,-0.6,-0.08
0.26,-0.61,-0.1
0.23,-0.63,-0.1
0.22,-0.63,-0.1
0.21,-0.64,-0.09
0.21,-0.64,-0.09
0.2,-0.65,-0.09
0.2,-0.65,-0.09
0.21,-0.65,-0.08
0.21,-0.66,-0.08
0.22,-0.66,-0.07
0.22,-0.68,-0.08
0.2,-0.72,-0.11
0.23,-0.73,-0.1
0.24,-0.73,-0.09
0.26,-0.77,-0.08
0.27,-0.81,-0.09
0.27,-0.82,-0.08
0.27,-0.84,-0.07
0.29,-0.86,-0.04
0.29,-0.87,-0.01
0.28,-0.92,-0.06
0.31,-0.99,-0.11
0.31,-1.05,-0.09
0.29,-1.13,-0.08
0.31,-1.19,-0.09
0.34,-1.27,-0.1
0.37,-1.37,-0.1
0.34,-1.58,-0.08
0.37,-1.68,-0.08
0.45,-1.82,-0.09
0.47,-1.79,-0.05
0.58,-1.91,-0.13
0.76,-1.88,-0.13
0.83,-1.5,-0.01
0.82,-1.36,-0.19
0.86,-1.25,-0.22
0.85,-1.12,-0.02
0.68,-1.12,0.01
0.63,-1.15,0.03
0.62,-1.14,0.08
0.65,-1.18,0.1
0.7,-1.22,0.11
0.61,-1.24,0.15
0.52,-1.26,0.18
0.55,-1.22,0.16
0.57,-1.15,0.14
0.59,-1.08,0.15
0.59,-1.01,0.15
0.57,-0.97,0.16
0.57,-0.93,0.17
0.57,-0.9,0.16
0.59,-0.88,0.16
0.61,-0.87,0.13
0.59,-0.86,0.12
0.6,-0.87,0.11
0.6,-0.86,0.09
0.59,-0.86,0.1
0.58,-0.84,0.11
0.57,-0.84,0.09
0.58,-0.85,0.07
0.61,-0.86,0.06
0.63,-0.89,0.05
0.62,-0.93,0.03
0.64,-0.98,0.02
0.71,-1,0.01
0.67,-1.03,0.01
0.64,-1.06,-0.01
0.72,-1.03,-0.03
0.71,-1.02,-0.01
0.66,-1.02,0.02
0.67,-1.02,0.01
0.68,-1.04,-0.03
0.66,-1.03,-0.04
0.68,-1.04,0
0.68,-1.06,0
0.61,-1.08,-0.04
0.55,-1.08,-0.02
0.6,-1.07,-0.04
0.61,-1.08,-0.03
0.52,-1.11,0
0.53,-1.13,-0.02
0.59,-1.14,-0.07
0.61,-1.18,-0.08
0.52,-1.23,-0.07
0.45,-1.37,-0.04
0.46,-1.47,-0.07
0.5,-1.46,-0.04
0.41,-1.52,0.03
0.33,-1.48,-0.04
0.38,-1.27,0.01
0.41,-1.1,0.06
0.45,-1.02,0.02
0.5,-1.04,0
0.51,-1.11,-0.03
0.49,-1.25,-0.05
0.42,-1.38,-0.08
0.33,-1.48,-0.12
0.28,-1.47,-0.1
0.25,-1.38,-0.1
0.21,-1.23,-0.1
0.18,-1.05,-0.09
0.16,-0.95,-0.08
0.22,-0.88,-0.05
0.25,-0.87,-0.07
0.21,-0.86,-0.09
0.25,-0.82,-0.12
0.28,-0.77,-0.11
0.28,-0.74,-0.1
0.29,-0.74,-0.11
0.27,-0.73,-0.12
0.26,-0.71,-0.12
0.25,-0.72,-0.13
0.25,-0.72,-0.12
0.23,-0.71,-0.11
0.22,-0.7,-0.1
0.22,-0.69,-0.09
0.21,-0.7,-0.09
0.2,-0.7,-0.1
0.19,-0.7,-0.1
0.19,-0.71,-0.11
0.19,-0.72,-0.11
0.18,-0.74,-0.11
0.18,-0.75,-0.11
0.19,-0.75,-0.1
0.19,-0.76,-0.1
0.19,-0.76,-0.09
0.21,-0.76,-0.08
0.23,-0.77,-0.09
0.23,-0.78,-0.09
0.24,-0.79,-0.09
0.25,-0.82,-0.11
0.27,-0.83,-0.09
0.3,-0.86,-0.09
0.31,-0.9,-0.1
0.33,-0.93,-0.08
0.34,-0.97,-0.06
0.36,-1.03,-0.04
0.36,-1.1,-0.05
0.35,-1.19,-0.04
0.32,-1.28,-0.01
0.32,-1.36,0.02
0.42,-1.38,0.3
0.29,-0.93,0.73
-0.22,-1.25,0.55
0.36,-2.3,-0.47
1.53,-2.24,-0.89
0.84,-1.67,-0.47
0.03,-1.42,-0.08
0.54,-1.49,0.03
0.78,-1.61,0.01
0.58,-1.67,-0.01
0.52,-1.62,-0.01
0.57,-1.43,0.03
0.56,-1.18,0.04
0.56,-0.94,0.08
0.56,-0.81,0.11
0.52,-0.8,0.07
0.49,-0.91,0.02
0.5,-0.98,0.02
0.46,-1.05,0.04
0.47,-1.09,0.05
0.46,-1.13,0.05
0.45,-1.15,0.09
0.45,-1.15,0.12
0.41,-1.1,0.12
0.4,-1.05,0.11
0.41,-1,0.11
0.39,-0.92,0.14
0.4,-0.87,0.15
0.44,-0.84,0.14
0.47,-0.82,0.12
0.5,-0.83,0.1
0.52,-0.81,0.09
0.54,-0.8,0.08
0.55,-0.79,0.08
0.55,-0.8,0.07
0.54,-0.82,0.07
0.53,-0.84,0.07
0.54,-0.88,0.06
0.54,-0.92,0.07
0.56,-0.94,0.08
0.58,-0.97,0.07
0.56,-1.01,0.05
0.58,-1.03,0.02
0.61,-1.03,0.04
0.59,-1.03,0.05
0.56,-1.05,0.05
0.53,-1.04,0.05
0.56,-1.01,0.03
0.59,-1,0.01
0.58,-1,-0.01
0.58,-1,0
0.58,-1.01,0.14
0.6,-1.1,0.12
0.55,-1.22,-0.1
0.55,-1.24,-0.16
0.61,-1.28,-0.07
0.59,-1.36,-0.03
0.5,-1.49,-0.08
0.39,-1.64,-0.12
0.45,-1.66,-0.15
0.55,-1.59,-0.1
0.48,-1.44,-0.02
0.4,-1.33,-0.02
0.4,-1.25,-0.02
0.41,-1.18,-0.01
0.39,-1.2,-0.01
0.42,-1.36,-0.11
0.43,-1.51,-0.15
0.37,-1.62,-0.19
0.19,-1.72,-0.2
0.22,-1.63,-0.17
0.26,-1.37,-0.16
0.22,-1.21,-0.18
0.08,-1.16,-0.12
0.03,-1.1,-0.1
0.3,-0.92,-0.13
0.37,-0.8,-0.06
0.2,-0.75,0.08
0.15,-0.8,-0.05
0.23,-0.81,-0.16
0.26,-0.73,-0.1
0.2,-0.69,-0.09
0.17,-0.64,-0.06
0.17,-0.62,-0.08
0.17,-0.61,-0.11
0.19,-0.61,-0.12
0.19,-0.61,-0.12
0.17,-0.62,-0.11
0.14,-0.63,-0.1
0.13,-0.63,-0.09
0.14,-0.64,-0.08
0.15,-0.65,-0.07
0.15,-0.64,-0.07
0.16,-0.64,-0.07
0.17,-0.64,-0.07
0.18,-0.64,-0.07
0.19,-0.64,-0.07
0.21,-0.64,-0.05
0.23,-0.66,-0.04
0.24,-0.68,-0.03
0.24,-0.71,-0.03
0.24,-0.75,-0.04
0.24,-0.81,-0.05
0.23,-0.87,-0.06
0.23,-0.92,-0.06
0.25,-0.98,-0.08
0.27,-1.02,-0.06
0.28,-1.08,-0.03
0.3,-1.16,-0.01
0.31,-1.24,0.01
0.31,-1.33,0.01
0.25,-1.43,-0.05
0.2,-1.42,-0.1
0.23,-1.4,-0.13
0.29,-1.48,-0.14
0.34,-1.51,-0.13
0.35,-1.57,-0.12
0.39,-1.61,-0.04
0.42,-1.76,-0.06
0.47,-1.9,-0.21
0.55,-1.78,-0.23
0.55,-1.48,-0.22
0.63,-1.29,-0.17
0.67,-1.08,-0.11
0.63,-0.93,-0.05
0.57,-0.91,-0.04
0.6,-1,-0.08
0.58,-1.14,-0.09
0.5,-1.26,-0.08
0.41,-1.28,-0.06
0.37,-1.43,-0.13
0.36,-1.52,-0.16
0.35,-1.39,-0.09
0.36,-1.31,-0.09
0.35,-1.21,-0.07
0.39,-1.06,-0.04
0.43,-0.95,-0.01
0.45,-0.88,0.01
0.47,-0.83,0.02
0.49,-0.78,0.03
0.51,-0.76,0.02
0.51,-0.76,0.02
0.52,-0.76,0.01
0.51,-0.78,0
0.47,-0.81,0.01
0.48,-0.83,0.03
0.48,-0.85,0.06
0.49,-0.88,0.08
0.51,-0.87,0.09
0.54,-0.86,0.09
0.6,-0.82,0.1
0.64,-0.78,0.12
0.58,-0.84,0.09
0.58,-0.95,0.08
0.6,-1,0.11
0.62,-0.97,0.11
0.67,-0.98,0.1
0.64,-1.01,0.1
0.62,-1.02,0.09
0.63,-1,0.08
0.62,-1.01,0.08
0.6,-1.02,0.09
0.59,-1.02,0.09
0.58,-1,0.1
0.56,-1,0.09
0.54,-1.02,0.06
0.54,-1.04,0.06
0.53,-1.07,0.04
0.53,-1.12,0.01
0.52,-1.21,-0.01
0.5,-1.3,-0.03
0.49,-1.4,-0.05
0.48,-1.51,-0.07
0.44,-1.56,-0.07
0.46,-1.59,-0.09
0.44,-1.61,-0.12
0.38,-1.53,-0.12
0.31,-1.42,-0.1
0.29,-1.33,-0.08
0.34,-1.26,-0.09
0.34,-1.29,-0.09
0.34,-1.38,-0.11
0.38,-1.43,-0.14
0.35,-1.49,-0.14
0.3,-1.56,-0.15
0.27,-1.59,-0.17
0.21,-1.59,-0.18
0.13,-1.54,-0.19
0.15,-1.4,-0.14
0.2,-1.26,-0.14
0.17,-1.17,-0.11
0.14,-1.06,-0.04
0.1,-0.97,-0.06
0.12,-0.94,-0.1
0.21,-0.93,-0.1
0.28,-0.88,-0.06
0.25,-0.87,-0.05
0.16,-0.92,-0.09
0.15,-0.94,-0.08
0.12,-0.84,-0.06
0.11,-0.81,-0.03
0.08,-0.79,-0.04
0.09,-0.77,-0.03
0.08,-0.76,-0.01
0.05,-0.74,0
0.03,-0.71,0.05
0.06,-0.7,0.02
0.11,-0.71,-0.06
0.13,-0.7,-0.04
0.1,-0.69,-0.01
0.08,-0.68,0.01
0.09,-0.67,0.01
0.11,-0.66,0.01
0.12,-0.66,0.01
0.13,-0.67,0.01
0.14,-0.67,0.01
0.15,-0.69,0.01
0.16,-0.73,0
0.17,-0.76,0
0.19,-0.78,-0.01
0.21,-0.81,-0.02
0.22,-0.83,-0.03
0.24,-0.82,-0.03
0.25,-0.83,-0.02
0.27,-0.85,-0.03
0.31,-0.93,-0.01
0.32,-1,-0.01
0.32,-1.1,-0.02
0.31,-1.22,-0.04
0.3,-1.36,-0.07
0.26,-1.51,-0.12
0.24,-1.62,-0.14
0.25,-1.67,-0.14
0.28,-1.64,-0.13
0.36,-1.53,-0.12
0.48,-1.44,-0.11
0.57,-1.34,-0.04
0.68,-1.36,-0.09
0.68,-1.36,-0.09
0.76,-1.48,-0.07
0.74,-1.61,-0.06
0.67,-1.7,-0.1
0.57,-1.68,0
0.58,-1.49,0.05
0.58,-1.49,0.05
0.61,-1.38,0.14
0.61,-1.28,0.2
0.64,-0.84,0.19
0.61,-0.79,0.17
0.7,-0.69,0.13
0.72,-0.67,0.15
0.63,-0.73,0.15
0.63,-0.75,0.16
0.63,-0.76,0.12
0.66,-0.79,0.1
0.65,-0.87,0.09
0.62,-0.94,0.07
0.72,-1.05,0.01
0.72,-1.05,0.01
0.76,-1.06,0
0.79,-1.06,-0.01
0.81,-1.05,-0.02
0.79,-1.04,-0.02
0.79,-1.01,-0.04
0.79,-0.98,-0.04
0.8,-0.95,-0.05
0.8,-0.96,-0.08
0.76,-0.99,-0.1
0.72,-1.02,-0.1
0.67,-1.08,-0.14
0.73,-1.17,-0.12
0.66,-1.3,-0.18
0.63,-1.38,-0.21
0.63,-1.45,-0.21
0.6,-1.5,-0.21
0.58,-1.53,-0.23
0.6,-1.51,-0.25
0.56,-1.49,-0.26
0.49,-1.45,-0.21
0.4,-1.41,-0.13
0.38,-1.34,-0.14
0.42,-1.25,-0.16
0.42,-1.21,-0.14
0.37,-1.28,-0.15
0.38,-1.31,-0.2
0.43,-1.37,-0.21
0.37,-1.52,-0.2
0.32,-1.62,-0.21
0.31,-1.6,-0.21
0.3,-1.5,-0.21
0.28,-1.36,-0.19
0.23,-1.22,-0.16
0.21,-1.11,-0.12
0.21,-1.04,-0.11
0.21,-0.98,-0.11
0.22,-0.93,-0.1
0.21,-0.86,-0.08
0.16,-0.85,-0.08
0.15,-0.83,-0.07
0.15,-0.82,-0.06
0.15,-0.79,-0.05
0.16,-0.77,-0.04
0.16,-0.75,-0.04
0.15,-0.73,-0.05
0.14,-0.72,-0.05
0.12,-0.7,-0.04
0.1,-0.68,-0.04
0.06,-0.68,-0.04
0.03,-0.67,-0.05
0.02,-0.65,-0.05
0.02,-0.63,-0.04
0.03,-0.62,-0.03
0.05,-0.61,-0.02
0.08,-0.62,-0.02
0.11,-0.65,-0.02
0.14,-0.69,-0.02
0.16,-0.73,-0.02
0.18,-0.77,-0.02
0.2,-0.81,-0.02
0.22,-0.85,-0.02
0.23,-0.89,-0.03
0.23,-0.91,-0.03
0.23,-0.96,-0.04
0.26,-0.99,-0.04
0.27,-1.02,-0.03
0.28,-1.08,-0.04
0.29,-1.15,-0.05
0.3,-1.27,-0.07
0.28,-1.42,-0.07
0.26,-1.6,-0.08
0.26,-1.77,-0.14
0.3,-1.93,-0.21
0.34,-2,-0.24
0.33,-1.87,-0.24
0.33,-1.62,-0.21
0.39,-1.36,-0.2
0.47,-1.16,-0.17
0.54,-1.11,-0.17
0.59,-1.23,-0.15
0.57,-1.46,-0.1
0.58,-1.74,-0.1
0.65,-1.93,-0.17
0.66,-1.97,-0.18
0.69,-1.95,-0.07
0.71,-1.82,-0.05
0.73,-1.59,-0.07
0.71,-1.43,0.01
0.77,-1.2,0.16
0.75,-0.77,0.37
0.86,-0.74,0.38
0.77,-0.83,0.3
0.66,-0.88,0.24
0.7,-0.84,0.22
0.71,-0.81,0.19
0.71,-0.8,0.15
0.72,-0.79,0.14
0.68,-0.8,0.12
0.66,-0.84,0.1
0.66,-0.86,0.1
0.65,-0.89,0.08
0.66,-0.92,0.06
0.68,-0.94,0.04
0.68,-0.97,0.01
0.66,-1.01,-0.02
0.66,-1.03,-0.03
0.66,-1.01,-0.04
0.67,-1,-0.04
0.65,-1.03,-0.04
0.61,-1.06,-0.05
0.59,-1.09,-0.06
0.57,-1.12,-0.07
0.57,-1.12,-0.07
0.57,-1.11,-0.05
0.55,-1.11,-0.03
0.51,-1.12,-0.03
0.51,-1.18,-0.06
0.49,-1.26,-0.07
0.45,-1.3,-0.06
0.47,-1.29,-0.05
0.41,-1.31,-0.08
0.41,-1.32,-0.06
0.45,-1.3,-0.06
0.43,-1.33,-0.09
0.43,-1.38,-0.11
0.41,-1.43,-0.12
0.35,-1.47,-0.1
0.32,-1.53,-0.1
0.35,-1.57,-0.08
0.46,-1.55,-0.04
0.38,-1.63,-0.03
0.25,-1.69,-0.03
0.26,-1.6,-0.06
0.27,-1.43,-0.05
0.24,-1.36,-0.1
0.2,-1.35,-0.11
0.24,-1.17,-0.04
0.2,-1.08,-0.14
0.18,-1.11,-0.16
0.23,-1.07,-0.07
0.24,-1.06,0.03
0.23,-1.11,-0.07
0.28,-1.07,-0.14
0.2,-1.04,-0.14
0.18,-0.98,-0.07
0.21,-0.9,-0.06
0.22,-0.85,-0.08
0.22,-0.82,-0.1
0.21,-0.79,-0.1
0.19,-0.78,-0.09
0.18,-0.78,-0.06
0.18,-0.78,-0.06
0.16,-0.77,-0.07
0.14,-0.76,-0.07
0.14,-0.74,-0.08
0.14,-0.71,-0.08
0.14,-0.69,-0.07
0.14,-0.68,-0.06
0.15,-0.68,-0.05
0.16,-0.7,-0.04
0.16,-0.72,-0.03
0.16,-0.75,-0.02
0.17,-0.78,-0.02
0.18,-0.81,-0.02
0.18,-0.83,-0.02
0.2,-0.83,-0.03
0.22,-0.82,-0.04
0.24,-0.81,-0.03
0.27,-0.79,-0.02
0.27,-0.79,-0.01
0.27,-0.81,-0.01
0.27,-0.84,0.01
0.28,-0.87,0.04
0.29,-0.89,0.03
0.31,-0.94,0.02
0.31,-1.04,0.02
0.28,-1.15,0
0.28,-1.25,-0.05
0.28,-1.32,-0.08
0.28,-1.45,-0.09
0.27,-1.65,-0.11
0.29,-1.72,-0.15
0.32,-1.69,-0.21
0.34,-1.66,-0.23
0.38,-1.57,-0.2
0.43,-1.47,-0.13
0.53,-1.34,-0.07
0.61,-1.24,-0.02
0.58,-1.31,0.02
0.58,-1.43,0.02
0.61,-1.54,0
0.62,-1.58,-0.03
0.66,-1.56,-0.02
0.65,-1.56,0.07
0.66,-1.32,0.17
0.59,-1.23,0.25
0.63,-1.19,0.25
0.59,-1.12,0.16
0.55,-0.99,0.23
0.54,-0.92,0.28
0.53,-0.91,0.29
0.56,-0.94,0.24
0.62,-0.91,0.21
0.61,-0.87,0.22
0.57,-0.92,0.17
0.6,-0.94,0.13
0.62,-0.93,0.12
0.6,-0.93,0.11
0.58,-0.93,0.09
0.57,-0.91,0.08
0.55,-0.9,0.07
0.55,-0.9,0.08
0.61,-0.88,0.08
0.61,-0.9,0.05
0.61,-0.94,0.02
0.65,-0.95,0.01
0.66,-0.97,0
0.67,-1,-0.03
0.71,-1,-0.04
0.72,-0.98,-0.06
0.73,-1.02,-0.04
0.71,-1.01,0
0.7,-1.03,0
0.66,-1.07,-0.02
0.61,-1.1,-0.02
0.62,-1.12,-0.03
0.62,-1.13,-0.04
0.61,-1.18,-0.01
0.53,-1.28,-0.02
0.55,-1.36,-0.07
0.64,-1.41,-0.08
0.67,-1.5,-0.07
0.58,-1.61,-0.05
0.48,-1.66,-0.08
0.51,-1.61,-0.06
0.54,-1.56,-0.03
0.53,-1.55,-0.04
0.47,-1.6,-0.05
0.42,-1.7,-0.13
0.41,-1.72,-0.13
0.37,-1.64,-0.06
0.29,-1.51,-0.03
0.24,-1.41,-0.07
0.32,-1.27,-0.06
0.32,-1.23,-0.05
0.23,-1.26,-0.09
0.21,-1.12,-0.05
0.16,-1.09,-0.08
0.17,-1.08,-0.08
0.19,-1.03,-0.04
0.17,-0.94,-0.02
0.16,-0.88,-0.03
0.14,-0.83,-0.01
0.17,-0.81,-0.03
0.2,-0.82,-0.07
0.2,-0.81,-0.07
0.18,-0.79,-0.07
0.18,-0.79,-0.05
0.2,-0.76,-0.05
0.2,-0.74,-0.04
0.19,-0.72,-0.04
0.2,-0.7,-0.04
0.19,-0.67,-0.03
0.17,-0.65,-0.03
0.18,-0.63,-0.02
0.17,-0.63,-0.01
0.17,-0.63,-0.02
0.18,-0.64,-0.02
0.19,-0.65,-0.02
0.19,-0.66,-0.02
0.2,-0.68,-0.02
0.21,-0.68,-0.01
0.23,-0.68,0
0.24,-0.72,0
0.24,-0.75,-0.01
0.25,-0.77,-0.01
0.27,-0.79,-0.02
0.27,-0.84,-0.03
0.27,-0.88,-0.04
0.27,-0.91,-0.04
0.28,-0.94,-0.05
0.29,-0.98,-0.06
0.3,-0.99,-0.05
0.33,-1.01,-0.06
0.34,-1.04,-0.07
0.34,-1.09,-0.05
0.36,-1.17,-0.05
0.34,-1.26,-0.11
0.34,-1.35,-0.13
0.37,-1.45,-0.12
0.33,-1.53,-0.14
0.31,-1.56,-0.16
0.37,-1.62,-0.2
0.42,-1.68,-0.19
0.45,-1.64,-0.16
0.47,-1.59,-0.11
0.5,-1.5,-0.08
0.53,-1.34,-0.06
0.56,-1.15,-0.02
0.62,-1.16,-0.05
0.58,-1.22,-0.06
0.55,-1.29,-0.04
0.51,-1.37,-0.05
0.52,-1.44,-0.01
0.53,-1.46,0.02
0.51,-1.39,0.03
0.48,-1.32,0.09
0.49,-1.31,0.11
0.55,-1.22,0.12
0.52,-1.1,0.16
0.51,-1.03,0.17
0.52,-1.01,0.17
0.53,-0.98,0.17
0.53,-0.96,0.14
0.55,-0.94,0.12
0.57,-0.93,0.13
0.52,-0.93,0.14
0.53,-0.93,0.14
0.59,-0.93,0.12
0.61,-0.92,0.1
0.59,-0.92,0.1
0.58,-0.93,0.1
0.59,-0.92,0.1
0.6,-0.91,0.1
0.62,-0.87,0.09
0.64,-0.87,0.07
0.65,-0.88,0.05
0.67,-0.87,0.04
0.69,-0.86,0.03
0.68,-0.88,0.02
0.66,-0.91,0.01
0.65,-0.93,0
0.69,-0.95,-0.01
0.72,-0.99,-0.01
0.7,-1.02,-0.05
0.72,-1.01,-0.1
0.67,-1.03,-0.13
0.66,-1.08,-0.12
0.69,-1.14,-0.13
0.7,-1.22,-0.15
0.68,-1.31,-0.15
0.59,-1.44,-0.16
0.58,-1.58,-0.18
0.58,-1.7,-0.23
0.51,-1.79,-0.23
0.47,-1.77,-0.18
0.43,-1.67,-0.18
0.39,-1.54,-0.18
0.4,-1.38,-0.08
0.35,-1.29,-0.04
0.4,-1.31,-0.12
0.44,-1.43,-0.09
0.34,-1.57,-0.11
0.35,-1.62,-0.17
0.38,-1.62,-0.15
0.31,-1.63,-0.12
0.25,-1.62,-0.14
0.22,-1.54,-0.14
0.17,-1.39,-0.13
0.1,-1.25,-0.11
0.13,-1.04,-0.04
0.15,-0.86,-0.02
0.15,-0.84,-0.05
0.18,-0.86,-0.11
0.18,-0.82,-0.1
0.22,-0.74,-0.02
0.24,-0.69,-0.04
0.19,-0.69,-0.07
0.2,-0.69,-0.04
0.22,-0.73,-0.06
0.21,-0.81,-0.11
0.24,-0.82,-0.12
0.19,-0.81,-0.11
0.13,-0.83,-0.11
0.12,-0.84,-0.11
0.14,-0.82,-0.11
0.11,-0.79,-0.09
0.1,-0.74,-0.09
0.12,-0.69,-0.1
0.14,-0.65,-0.11
0.15,-0.61,-0.12
0.16,-0.59,-0.12
0.17,-0.57,-0.11
0.18,-0.55,-0.11
0.2,-0.56,-0.11
0.2,-0.59,-0.09
0.2,-0.64,-0.07
0.22,-0.7,-0.07
0.26,-0.74,-0.07
0.29,-0.73,-0.06
0.35,-0.75,-0.04
0.38,-0.85,-0.08
0.38,-0.94,-0.07
0.39,-0.95,0.01
0.4,-0.97,0.03
0.41,-1,0.02
0.44,-1.04,-0.01
0.47,-1.06,-0.03
0.45,-1.13,-0.06
0.37,-1.26,-0.1
0.22,-1.53,-0.06
0.13,-1.76,-0.09
0.18,-1.9,-0.19
0.38,-1.92,-0.15
0.34,-1.82,-0.09
0.38,-1.76,-0.04
0.59,-1.61,-0.01
0.76,-1.38,0.03
0.74,-1.42,-0.05
0.76,-1.55,-0.06
0.8,-1.61,0.02
0.74,-1.68,-0.05
0.63,-1.65,-0.09
0.69,-1.51,-0.03
0.84,-1.3,-0.02
0.63,-1.13,0
0.49,-1.05,0.06
0.56,-0.93,0.2
0.44,-0.8,0.24
0.44,-0.79,0.26
0.5,-0.86,0.25
0.47,-0.93,0.19
0.5,-0.93,0.21
0.52,-0.91,0.18
0.5,-0.96,0.14
0.49,-1,0.12
0.53,-0.98,0.1
0.56,-0.97,0.09
0.57,-0.99,0.12
0.55,-1.02,0.13
0.58,-1.02,0.13
0.6,-1,0.13
0.61,-0.97,0.11
0.62,-0.95,0.09
0.63,-0.94,0.07
0.64,-0.94,0.05
0.65,-0.93,0.04
0.64,-0.93,0.03
0.61,-0.95,0.03
0.58,-0.98,0.03
0.55,-0.99,0.04
0.53,-1.01,0.04
0.52,-1.03,0.03
0.51,-1.01,0.03
0.5,-1.03,0.02
0.49,-1.06,0
0.49,-1.06,0
0.5,-1.07,-0.03
0.46,-1.1,-0.05
0.43,-1.15,-0.01
0.49,-1.18,0
0.53,-1.22,-0.03
0.51,-1.3,-0.06
0.53,-1.37,-0.07
0.55,-1.41,-0.13
0.48,-1.61,-0.14
0.4,-1.62,-0.11
0.39,-1.56,-0.12
0.49,-1.42,-0.15
0.51,-1.27,-0.12
0.42,-1.26,-0.04
0.41,-1.32,-0.02
0.42,-1.4,-0.07
0.36,-1.48,-0.1
0.33,-1.54,-0.1
0.35,-1.54,-0.12
0.33,-1.52,-0.12
0.29,-1.48,-0.13
0.26,-1.4,-0.12
0.18,-1.32,-0.12
0.12,-1.23,-0.12
0.15,-1.11,-0.12
0.2,-0.99,-0.13
0.18,-0.85,-0.09
0.17,-0.79,0.02
0.21,-0.82,0.03
0.22,-0.85,-0.12
0.24,-0.84,-0.14
0.26,-0.79,-0.07
0.26,-0.8,-0.08
0.26,-0.81,-0.07
0.21,-0.91,-0.08
0.24,-0.92,-0.1
0.22,-0.87,-0.09
0.18,-0.85,-0.1
0.16,-0.85,-0.11
0.15,-0.8,-0.1
0.16,-0.75,-0.08
0.17,-0.7,-0.08
0.16,-0.67,-0.07
0.15,-0.66,-0.07
0.16,-0.63,-0.06
0.17,-0.62,-0.06
0.16,-0.62,-0.07
0.16,-0.62,-0.07
0.15,-0.62,-0.06
0.16,-0.62,-0.05
0.18,-0.62,-0.04
0.19,-0.63,-0.04
0.2,-0.64,-0.03
0.23,-0.66,-0.03
0.25,-0.69,-0.02
0.25,-0.73,-0.02
0.26,-0.77,-0.01
0.29,-0.79,0
0.31,-0.83,0
0.3,-0.91,0.03
0.3,-1.1,0.03
0.26,-1.28,0.03
0.29,-1.4,0.01
0.26,-1.61,0.01
0.24,-1.72,0.02
0.25,-1.82,-0.02
0.25,-2.05,-0.05
0.34,-2.11,-0.14
0.45,-1.98,-0.13
0.5,-1.77,0.04
0.6,-1.56,0.13
0.71,-1.33,0.15
0.77,-1.18,0.13
0.68,-1.03,0.13
0.56,-0.97,0.18
0.47,-1.16,0.19
0.43,-1.32,0.16
0.49,-1.36,0.11
0.56,-1.39,0.07
0.57,-1.36,0.1
0.51,-1.39,0.11
0.54,-1.34,0.1
0.55,-1.23,0.09
0.52,-1.11,0.17
0.43,-1.11,0.19
0.49,-1.13,0.16
0.5,-0.95,0.15
0.52,-0.95,0.13
0.51,-0.92,0.11
0.52,-0.88,0.11
0.53,-0.84,0.11
0.53,-0.81,0.12
0.54,-0.79,0.13
0.54,-0.76,0.14
0.54,-0.76,0.13
0.55,-0.77,0.11
0.57,-0.79,0.1
0.59,-0.81,0.09
0.6,-0.82,0.09
0.6,-0.84,0.08
0.6,-0.89,0.06
0.6,-0.92,0.05
0.6,-0.95,0.05
0.6,-0.98,0.04
0.6,-1,0.04
0.62,-1.02,0.02
0.63,-1.02,-0.02
0.63,-1.04,-0.02
0.59,-1.07,-0.04
0.61,-1.05,-0.04
0.6,-1.04,-0.02
0.58,-1.06,-0.07
0.58,-1.09,-0.08
0.57,-1.12,-0.11
0.55,-1.16,-0.14
0.51,-1.22,-0.16
0.47,-1.26,-0.17
0.51,-1.25,-0.16
0.54,-1.22,-0.16
0.5,-1.25,-0.19
0.46,-1.29,-0.2
0.47,-1.33,-0.23
0.48,-1.4,-0.3
0.49,-1.48,-0.3
0.52,-1.59,-0.29
0.43,-1.72,-0.31
0.39,-1.72,-0.27
0.49,-1.57,-0.21
0.46,-1.5,-0.2
0.37,-1.46,-0.19
0.36,-1.37,-0.2
0.38,-1.3,-0.21
0.36,-1.29,-0.18
0.36,-1.3,-0.15
0.33,-1.31,-0.15
0.29,-1.31,-0.15
0.26,-1.29,-0.17
0.2,-1.27,-0.19
0.11,-1.14,-0.21
0.1,-1.05,-0.19
0.1,-0.96,-0.13
0.13,-0.84,-0.12
0.21,-0.75,-0.11
0.21,-0.71,-0.15
0.19,-0.68,-0.18
0.24,-0.65,-0.16
0.26,-0.66,-0.19
0.24,-0.7,-0.2
0.2,-0.7,-0.17
0.17,-0.67,-0.17
0.2,-0.66,-0.17
0.18,-0.67,-0.17
0.17,-0.69,-0.16
0.18,-0.7,-0.15
0.17,-0.71,-0.14
0.16,-0.72,-0.14
0.16,-0.72,-0.13
0.18,-0.73,-0.11
0.18,-0.74,-0.11
0.19,-0.74,-0.11
0.2,-0.75,-0.1
0.22,-0.74,-0.09
0.23,-0.74,-0.08
0.24,-0.74,-0.07
0.25,-0.77,-0.05
0.27,-0.8,-0.04
0.28,-0.84,-0.01
0.3,-0.87,0.03
0.31,-1.19,0.04
0.27,-1.26,0.01
0.26,-1.36,0.01
0.27,-1.45,0.04
0.26,-1.51,0.02
0.29,-1.5,0.03
0.31,-1.42,0.05
0.31,-1.31,0.06
0.36,-1.19,0.09
0.37,-1.05,0.1
0.41,-0.94,0.11
0.48,-0.95,0.08
0.53,-1.05,0.04
0.46,-1.21,0.02
0.46,-1.47,0.02
0.63,-1.64,0.28
0.68,-1.78,0.41
0.54,-1.85,0.16
0.37,-1.56,-0.15
0.63,-1.38,-0.18
0.75,-1.22,-0.15
0.78,-1.04,-0.12
0.76,-0.95,0.01
0.57,-1,0.08
0.62,-0.95,0.06
0.68,-0.89,0.05
0.58,-0.86,-0.03
0.56,-0.89,0
0.54,-0.93,0.12
0.51,-0.94,0.13
0.47,-0.91,0.05
0.47,-0.89,0.04
0.51,-0.94,0.07
0.54,-0.93,0.1
0.55,-0.93,0.12
0.54,-0.94,0.15
0.58,-0.96,0.15
0.65,-0.97,0.12
0.7,-0.96,0.08
0.7,-0.95,0.08
0.72,-0.94,0.09
0.71,-0.96,0.08
0.69,-0.96,0.07
0.68,-0.97,0.07
0.64,-0.99,0.08
0.58,-1,0.09
0.55,-1.02,0.09
0.53,-1.03,0.09
0.53,-1.05,0.07
0.53,-1.07,0.06
0.53,-1.11,0.04
0.5,-1.2,0.02
0.48,-1.27,0.04
0.52,-1.34,0
0.52,-1.41,-0.04
0.47,-1.48,-0.07
0.47,-1.5,-0.09
0.48,-1.44,-0.04
0.4,-1.38,0.02
0.4,-1.29,0
0.52,-1.14,-0.04
0.41,-1.06,-0.01
0.3,-1.09,0.03
0.46,-1.12,-0.01
0.55,-1.18,-0.05
0.48,-1.36,-0.06
0.46,-1.46,-0.05
0.38,-1.55,-0.01
0.38,-1.6,-0.03
0.38,-1.58,-0.07
0.28,-1.42,-0.1
0.23,-1.27,-0.1
0.21,-1.16,-0.1
0.21,-1.08,-0.1
0.19,-1,-0.11
0.2,-0.93,-0.11
0.22,-0.87,-0.1
0.2,-0.83,-0.11
0.26,-0.77,-0.1
0.25,-0.72,-0.13
0.19,-0.7,-0.16
0.22,-0.71,-0.15
0.27,-0.71,-0.13
0.25,-0.69,-0.13
0.19,-0.71,-0.12
0.19,-0.74,-0.13
0.23,-0.75,-0.16
0.22,-0.77,-0.17
0.18,-0.8,-0.15
0.15,-0.81,-0.15
0.15,-0.83,-0.14
0.15,-0.84,-0.13
0.15,-0.84,-0.11
0.15,-0.82,-0.09
0.16,-0.81,-0.08
0.17,-0.8,-0.07
0.18,-0.79,-0.06
0.2,-0.75,-0.06
0.21,-0.75,-0.05
0.22,-0.75,-0.05
0.22,-0.75,-0.04
0.23,-0.76,-0.04
0.24,-0.77,-0.04
0.25,-0.78,-0.04
0.26,-0.8,-0.04
0.26,-0.83,-0.03
0.26,-0.86,-0.02
0.28,-0.9,-0.03
0.3,-0.95,-0.03
0.32,-1,-0.03
0.32,-1.04,-0.03
0.33,-1.1,-0.01
0.32,-1.16,0
0.31,-1.22,0
0.36,-1.31,0
0.41,-1.42,-0.03
0.39,-1.55,-0.05
0.33,-1.71,-0.16
0.32,-1.71,-0.14
0.39,-1.71,-0.06
0.46,-1.84,-0.16
0.37,-1.82,-0.18
0.38,-1.67,-0.03
0.49,-1.44,-0.07
0.55,-1.29,-0.01
0.55,-1.17,0.01
0.55,-1.15,-0.09
0.52,-1.17,-0.11
0.61,-1.17,-0.29
0.73,-1.3,-0.31
0.46,-1.44,-0.06
0.35,-1.44,0.05
0.41,-1.36,0.03
0.52,-1.23,-0.01
0.59,-1.07,0.01
0.48,-0.96,0.05
0.45,-0.89,0.07
0.46,-0.8,0.11
0.48,-0.73,0.15
0.49,-0.69,0.18
0.5,-0.69,0.18
0.52,-0.69,0.14
0.52,-0.7,0.14
0.51,-0.74,0.13
0.49,-0.79,0.11
0.48,-0.81,0.11
0.47,-0.85,0.12
0.46,-0.9,0.12
0.47,-0.94,0.11
0.49,-0.99,0.1
0.51,-1,0.11
0.53,-1.02,0.11
0.54,-1.03,0.11
0.55,-1.03,0.1
0.57,-1.04,0.08
0.57,-1.04,0.07
0.56,-1.04,0.07
0.53,-1.04,0.08
0.51,-1.04,0.08
0.49,-1.05,0.07
0.46,-1.05,0.06
0.44,-1.05,0.06
0.41,-1.05,0.06
0.37,-1.06,0.06
0.36,-1.07,0.05
0.37,-1.07,0.03
0.37,-1.12,0.02
0.36,-1.16,0.02
0.37,-1.22,0.01
0.35,-1.29,0
0.34,-1.33,-0.01
0.32,-1.4,-0.04
0.33,-1.45,-0.04
0.38,-1.44,-0.05
0.29,-1.46,-0.03
0.3,-1.39,0
0.28,-1.31,-0.01
0.19,-1.26,-0.05
0.21,-1.17,-0.04
0.28,-1.09,-0.05
0.3,-1.08,-0.05
0.31,-1.1,-0.03
0.3,-1.14,-0.04
0.28,-1.19,-0.05
0.25,-1.22,-0.05
0.23,-1.24,-0.04
0.19,-1.26,-0.05
0.16,-1.24,-0.06
0.16,-1.21,-0.08
0.09,-1.16,-0.09
0.09,-1.02,-0.06
0.13,-0.94,-0.05
0.15,-0.87,-0.12
0.22,-0.8,-0.15
0.25,-0.79,-0.07
0.32,-0.75,-0.05
0.34,-0.74,-0.04
0.27,-0.78,-0.03
0.27,-0.81,-0.05
0.3,-0.79,-0.07
0.28,-0.76,-0.07
0.19,-0.74,-0.05
0.17,-0.74,-0.03
0.15,-0.74,-0.02
0.13,-0.74,-0.02
0.12,-0.74,-0.02
0.12,-0.74,-0.02
0.13,-0.74,-0.01
0.14,-0.75,0
0.15,-0.76,0
0.16,-0.77,0.01
0.17,-0.77,0.02
0.19,-0.77,0.02
0.2,-0.78,0.02
0.22,-0.79,0.02
0.23,-0.81,0.03
0.24,-0.83,0.03
0.25,-0.86,0.03
0.26,-0.9,0.03
0.27,-0.94,0.03
0.28,-0.99,0.02
0.3,-1.03,0.03
0.28,-1.06,0.04
0.28,-1.12,0.06
0.33,-1.19,0.05
0.38,-1.28,0.04
0.35,-1.37,0.07
0.37,-1.39,0.08
0.39,-1.54,-0.01
0.41,-1.57,-0.06
0.38,-1.58,-0.03
0.33,-1.59,0
0.32,-1.54,0
0.37,-1.45,-0.01
0.41,-1.32,0
0.46,-1.15,0.02
0.5,-0.98,0.03
0.51,-0.93,0
0.53,-1.04,0
0.5,-1.21,-0.04
0.52,-1.34,-0.09
0.6,-1.47,-0.07
0.47,-1.57,-0.02
0.38,-1.57,0.01
0.48,-1.48,-0.01
0.51,-1.31,0.01
0.5,-1.12,0.06
0.52,-0.93,0.1
0.53,-0.79,0.15
0.5,-0.74,0.19
0.54,-0.7,0.2
0.57,-0.68,0.17
0.51,-0.69,0.16
0.48,-0.81,0.2
0.51,-0.87,0.16
0.54,-0.92,0.11
0.45,-0.89,0.13
0.49,-0.91,0.11
0.53,-0.95,0.08
0.51,-0.97,0.07
0.5,-0.98,0.07
0.51,-0.99,0.08
0.53,-1,0.08
0.57,-1.01,0.08
0.59,-1.01,0.08
0.61,-1.01,0.07
0.62,-0.99,0.07
0.62,-1,0.05
0.61,-1.02,0.04
0.59,-1.02,0.05
0.57,-1.02,0.05
0.53,-1.02,0.06
0.48,-1.03,0.06
0.46,-1.04,0.07
0.43,-1.07,0.06
0.41,-1.11,0.06
0.39,-1.15,0.04
0.41,-1.2,0.03
0.39,-1.29,0.01
0.37,-1.48,-0.01
0.39,-1.53,-0.04
0.41,-1.55,-0.07
0.37,-1.53,-0.05
0.33,-1.49,-0.03
0.28,-1.38,-0.01
0.24,-1.24,0
0.25,-1.11,-0.02
0.29,-1.04,-0.03
0.28,-1.03,-0.04
0.28,-1.09,-0.02
0.33,-1.22,-0.04
0.35,-1.35,-0.08
0.33,-1.46,-0.07
0.28,-1.57,-0.08
0.24,-1.62,-0.08
0.22,-1.56,-0.1
0.16,-1.43,-0.13
0.11,-1.3,-0.14
0.07,-1.23,-0.14
0.16,-1.05,-0.16
0.23,-0.91,-0.17
0.09,-0.94,-0.14
0.08,-0.9,-0.04
0.19,-0.87,0.02
0.27,-0.89,-0.1
0.3,-0.92,-0.1
0.16,-0.94,-0.1
0.23,-0.93,-0.15
0.28,-0.89,-0.14
0.25,-0.89,-0.12
0.2,-0.93,-0.08
0.18,-0.92,-0.07
0.21,-0.88,-0.09
0.2,-0.86,-0.1
0.14,-0.86,-0.08
0.11,-0.84,-0.08
0.09,-0.81,-0.08
0.07,-0.78,-0.07
0.05,-0.74,-0.06
0.03,-0.71,-0.05
0.02,-0.68,-0.05
0.01,-0.67,-0.04
0.02,-0.67,-0.02
0.03,-0.69,-0.01
0.04,-0.72,0
0.06,-0.75,0.01
0.08,-0.78,0.01
0.12,-0.8,0.01
0.15,-0.83,0.01
0.18,-0.87,0
0.21,-0.9,-0.01
0.23,-1.01,-0.02
0.26,-1.07,-0.02
0.24,-1.17,-0.05
0.26,-1.22,-0.08
0.28,-1.29,-0.05
0.28,-1.41,-0.04
0.27,-1.51,-0.03
0.25,-1.6,-0.07
0.31,-1.62,-0.1
0.35,-1.69,-0.09
0.37,-1.77,-0.11
0.41,-1.74,-0.09
0.43,-1.69,-0.07
0.47,-1.61,-0.08
0.55,-1.5,-0.05
0.63,-1.42,-0.07
0.64,-1.36,-0.08
0.66,-1.27,-0.01
0.54,-1.19,0.07
0.52,-1.19,0.04
0.61,-1.2,0
0.53,-1.2,0.02
0.44,-1.26,0.11
0.48,-1.28,0.16
0.46,-1.22,0.15
0.41,-1.22,0.18
0.46,-1.16,0.13
0.47,-1.12,0.15
0.47,-1.08,0.14
0.48,-1.03,0.14
0.48,-0.98,0.14
0.48,-0.96,0.12
0.49,-0.94,0.12
0.51,-0.91,0.11
0.52,-0.91,0.09
0.54,-0.9,0.08
0.57,-0.88,0.07
0.59,-0.86,0.05
0.6,-0.86,0.03
0.64,-0.85,0.01
0.67,-0.83,0.01
0.69,-0.84,0.01
0.7,-0.86,0.01
0.68,-0.89,0
0.66,-0.91,-0.01
0.66,-0.92,-0.01
0.65,-0.95,-0.02
0.63,-0.98,-0.03
0.61,-0.98,-0.03
0.58,-1,-0.03
0.57,-1.01,-0.02
0.54,-1.03,-0.02
0.53,-1.07,-0.02
0.51,-1.1,-0.02
0.49,-1.14,-0.03
0.49,-1.19,-0.04
0.47,-1.26,-0.06
0.45,-1.32,-0.07
0.44,-1.35,-0.07
0.42,-1.36,-0.07
0.36,-1.36,-0.05
0.29,-1.31,-0.02
0.31,-1.24,-0.04
0.4,-1.24,-0.07
0.39,-1.33,-0.09
0.39,-1.41,-0.07
0.47,-1.55,-0.12
0.43,-1.7,-0.19
0.39,-1.71,-0.08
0.38,-1.82,-0.01
0.31,-1.85,-0.04
0.29,-1.75,-0.06
0.26,-1.7,-0.06
0.23,-1.51,-0.05
0.33,-1.38,-0.1
0.32,-1.33,-0.12
0.32,-1.23,0.06
0.35,-1.19,0.06
0.3,-1.24,-0.08
0.23,-1.08,-0.04
0.32,-1.07,-0.07
0.33,-1.06,-0.17
0.32,-0.95,-0.1
0.24,-0.88,-0.03
0.2,-0.88,-0.05
0.24,-0.86,-0.07
0.21,-0.81,-0.06
0.18,-0.81,-0.07
0.19,-0.79,-0.08
0.19,-0.76,-0.08
0.17,-0.73,-0.08
0.15,-0.7,-0.07
0.14,-0.68,-0.06
0.14,-0.65,-0.05
0.14,-0.62,-0.04
0.13,-0.61,-0.04
0.12,-0.59,-0.04
0.12,-0.58,-0.04
0.12,-0.57,-0.05
0.12,-0.57,-0.06
0.13,-0.57,-0.06
0.14,-0.58,-0.06
0.15,-0.59,-0.05
0.16,-0.61,-0.04
0.18,-0.64,-0.05
0.19,-0.66,-0.05
0.21,-0.68,-0.05
0.24,-0.72,-0.06
0.25,-0.75,-0.06
0.25,-0.76,-0.06
0.28,-0.8,-0.05
0.29,-0.85,-0.05
0.31,-0.91,-0.05
0.32,-0.99,-0.04
0.32,-1.06,-0.04
0.34,-1.13,-0.04
0.33,-1.24,-0.04
0.33,-1.36,-0.03
0.33,-1.46,-0.03
0.34,-1.54,-0.01
0.37,-1.57,0.02
0.39,-1.62,-0.01
0.42,-1.72,-0.01
0.45,-1.84,0.02
0.42,-1.86,0
0.41,-1.87,0.06
0.56,-1.79,0.1
0.65,-1.56,0.07
0.56,-1.44,0.12
0.47,-1.34,0.16
0.49,-1.26,0.03
0.54,-1.31,-0.02
0.47,-1.31,-0.01
0.44,-1.33,0.02
0.3,-1.31,0.07
0.3,-1.24,0.08
0.43,-1.2,0.05
0.43,-1.2,0.01
0.39,-1.16,0.01
0.39,-1.1,0.02
0.41,-1.05,0.01
0.41,-1,0.01
0.41,-0.94,0
0.41,-0.88,0
0.42,-0.84,0
0.43,-0.81,0.01
0.43,-0.8,0.01
0.43,-0.8,0.01
0.43,-0.8,0
0.44,-0.81,-0.01
0.44,-0.81,-0.02
0.43,-0.82,-0.03
0.42,-0.84,-0.03
0.42,-0.84,-0.04
0.43,-0.82,-0.03
0.43,-0.79,-0.02
0.43,-0.77,-0.01
0.41,-0.84,-0.01
0.41,-0.89,0.01
0.41,-0.96,0.02
0.41,-1.04,0.02
0.38,-1.09,0.03
0.34,-1.09,0.02
0.3,-1.07,0.01
0.23,-1.07,-0.02
0.18,-1.09,-0.04
0.14,-1.12,-0.03
0.08,-1.15,-0.02
0.06,-1.17,-0.02
0.05,-1.16,0
-0.02,-1.15,-0.01
-0.11,-1.17,-0.01
-0.15,-1.15,0
-0.21,-1.14,-0.01
-0.27,-1.14,-0.01
-0.27,-1.13,-0.01
-0.28,-1.13,0
-0.31,-1.13,0.01
-0.36,-1.12,-0.01
-0.41,-1.09,-0.03
-0.43,-1.06,-0.06
-0.42,-1.04,-0.1
-0.44,-0.99,-0.1
-0.41,-0.95,-0.09
-0.42,-0.9,-0.07
-0.43,-0.89,-0.08
-0.42,-0.88,-0.08
-0.43,-0.89,-0.08
-0.44,-0.9,-0.09
-0.45,-0.92,-0.11
-0.45,-0.93,-0.12
-0.44,-0.95,-0.13
-0.42,-0.97,-0.14
-0.41,-0.99,-0.14
-0.38,-1,-0.14
-0.34,-1.01,-0.15
-0.32,-1.02,-0.16
-0.3,-1.04,-0.17
-0.28,-1.06,-0.18
-0.25,-1.06,-0.2
-0.22,-1.04,-0.22
-0.19,-1.02,-0.23
-0.16,-1,-0.23
-0.12,-0.98,-0.22
-0.09,-0.96,-0.2
-0.07,-0.93,-0.19
-0.07,-0.92,-0.17
-0.06,-0.89,-0.16
-0.03,-0.87,-0.14
-0.01,-0.84,-0.13
0.02,-0.85,-0.12
0.04,-0.87,-0.12
0.05,-0.89,-0.13
0.07,-0.92,-0.13
0.12,-0.95,-0.14
0.15,-0.97,-0.13
0.18,-0.98,-0.11
0.19,-0.96,-0.08
0.2,-0.88,-0.06
0.2,-0.79,-0.05
0.19,-0.72,-0.05
0.19,-0.65,-0.03
0.21,-0.6,0
0.23,-0.6,0.04
0.24,-0.64,0.08
0.23,-0.71,0.09
0.19,-0.81,0.07
0.15,-0.88,0.05
0.16,-0.89,0.06
0.2,-0.88,0.09
0.22,-0.85,0.15
0.22,-0.81,0.21
0.21,-0.8,0.24
0.21,-0.79,0.27
0.22,-0.8,0.3
0.24,-0.79,0.25
0.32,-0.8,0.23
0.38,-0.86,0.24
0.45,-0.91,0.31
0.4,-0.94,0.37
0.33,-1,0.39
0.35,-1.03,0.39
0.34,-1.05,0.34
0.35,-1.05,0.3
0.36,-1.06,0.3
0.43,-1.06,0.31
0.52,-1.07,0.31
0.55,-1.14,0.3
0.56,-1.21,0.28
0.57,-1.25,0.26
0.58,-1.29,0.22
0.61,-1.33,0.18
0.62,-1.34,0.16
0.62,-1.35,0.15
0.6,-1.35,0.14
0.58,-1.33,0.15
0.59,-1.31,0.14
0.61,-1.3,0.11
0.64,-1.29,0.09
0.67,-1.28,0.08
0.7,-1.26,0.07
0.74,-1.25,0.08
0.81,-1.24,0.1
0.81,-1.22,0.11
0.8,-1.2,0.12
0.79,-1.2,0.14
0.78,-1.19,0.16
0.79,-1.19,0.17
0.81,-1.18,0.18
0.83,-1.17,0.16
0.85,-1.17,0.15
0.87,-1.14,0.15
0.89,-1.08,0.2
0.86,-1,0.27
0.8,-0.9,0.33
0.75,-0.76,0.41
0.69,-0.62,0.49
0.67,-0.52,0.56
0.67,-0.42,0.62
0.68,-0.32,0.72
0.64,-0.24,0.71
0.5,-0.26,0.66
0.42,-0.23,0.64
0.35,-0.16,0.62
0.33,-0.14,0.65
0.11,-0.17,0.7
0.01,-0.26,0.73
0.2,-0.24,0.7
0.32,-0.25,0.7
0.35,-0.25,0.72
0.42,-0.3,0.74
0.58,-0.42,0.85
