Acc_x,Acc_y,Acc_z
0.28,0.84,0.43
0.29,0.84,0.44
0.29,0.85,0.43
0.28,0.85,0.41
0.29,0.85,0.4
0.29,0.85,0.4
0.29,0.85,0.42
0.3,0.84,0.43
0.29,0.84,0.43
0.28,0.85,0.42
0.28,0.84,0.42
0.28,0.84,0.42
0.28,0.85,0.42
0.27,0.85,0.42
0.27,0.85,0.43
0.27,0.85,0.43
0.29,0.85,0.43
0.29,0.85,0.43
0.29,0.86,0.44
0.29,0.87,0.44
0.3,0.87,0.44
0.3,0.87,0.44
0.29,0.87,0.44
0.29,0.87,0.44
0.28,0.87,0.44
0.28,0.87,0.43
0.27,0.87,0.43
0.26,0.87,0.43
0.26,0.86,0.43
0.26,0.84,0.43
0.26,0.84,0.42
0.26,0.84,0.42
0.27,0.83,0.42
0.28,0.83,0.42
0.28,0.83,0.41
0.27,0.83,0.41
0.27,0.84,0.41
0.28,0.84,0.42
0.27,0.84,0.42
0.27,0.84,0.42
0.27,0.84,0.42
0.28,0.84,0.42
0.28,0.84,0.41
0.28,0.85,0.41
0.27,0.85,0.41
0.27,0.86,0.42
0.27,0.85,0.42
0.28,0.85,0.41
0.27,0.84,0.41
0.28,0.84,0.41
0.28,0.84,0.41
0.28,0.84,0.41
0.27,0.84,0.42
0.27,0.85,0.42
0.26,0.85,0.41
0.26,0.85,0.4
0.27,0.85,0.4
0.27,0.85,0.41
0.27,0.85,0.41
0.26,0.85,0.42
0.25,0.86,0.44
0.27,0.86,0.45
0.28,0.86,0.45
0.28,0.86,0.45
0.28,0.86,0.46
0.29,0.86,0.46
0.29,0.86,0.45
0.28,0.85,0.44
0.28,0.84,0.43
0.28,0.84,0.42
0.28,0.84,0.41
0.29,0.83,0.4
0.3,0.83,0.4
0.29,0.83,0.37
0.3,0.79,0.37
0.3,0.79,0.37
0.28,0.78,0.35
0.27,0.76,0.35
0.27,0.75,0.35
0.27,0.73,0.36
0.26,0.73,0.37
0.24,0.73,0.38
0.24,0.73,0.39
0.24,0.72,0.39
0.24,0.7,0.38
0.24,0.68,0.37
0.24,0.66,0.36
0.25,0.64,0.35
0.27,0.62,0.34
0.28,0.61,0.33
0.3,0.59,0.33
0.32,0.57,0.31
0.33,0.56,0.29
0.34,0.55,0.27
0.33,0.55,0.24
0.34,0.56,0.22
0.37,0.55,0.2
0.41,0.54,0.18
0.45,0.53,0.17
0.49,0.52,0.18
0.53,0.53,0.2
0.56,0.52,0.19
0.6,0.52,0.15
0.63,0.51,0.12
0.64,0.51,0.09
0.64,0.51,0.07
0.65,0.49,0.13
0.68,0.46,0.19
0.76,0.44,0.21
0.84,0.43,0.21
0.89,0.43,0.21
0.92,0.43,0.19
0.92,0.43,0.17
0.91,0.43,0.17
0.89,0.43,0.19
0.87,0.41,0.2
0.87,0.39,0.22
0.9,0.36,0.23
0.96,0.33,0.23
1.04,0.3,0.22
1.06,0.27,0.22
1.04,0.26,0.23
1.01,0.25,0.25
1,0.23,0.26
1.01,0.21,0.25
1.01,0.19,0.21
1,0.15,0.14
1.05,0.12,0.08
1.1,0.1,0.06
1.11,0.09,0.06
1.11,0.08,0.11
1.11,0.06,0.16
1.12,0.04,0.19
1.14,0.01,0.2
1.14,-0.02,0.18
1.12,-0.06,0.13
1.07,-0.1,0.04
1.01,-0.13,-0.01
0.97,-0.15,-0.01
0.95,-0.15,-0.01
0.96,-0.18,0.02
1,-0.22,0.04
1.07,-0.28,0.03
1.11,-0.34,0
1.12,-0.4,-0.04
1.11,-0.45,-0.09
1.03,-0.51,-0.2
0.9,-0.61,-0.3
0.84,-0.7,-0.31
0.94,-0.73,-0.24
1.11,-0.75,-0.17
1.25,-0.73,-0.2
1.32,-0.92,-0.14
1.16,-0.99,-0.17
1.11,-0.94,-0.2
1.07,-0.95,-0.2
1.02,-1.05,-0.2
1.06,-1.08,-0.14
1.14,-1.07,-0.07
1.17,-1.1,0
1.18,-1.12,0.06
1.17,-1.11,0.09
1.12,-1.11,0.1
1.11,-1.13,0.1
1.13,-1.09,0.1
1.13,-1.07,0.1
1.12,-1.09,0.13
1.18,-1.06,0.14
1.23,-1.02,0.15
1.28,-1,0.17
1.29,-0.98,0.16
1.24,-0.96,0.11
1.27,-0.89,0.06
1.29,-0.83,0.02
1.3,-0.8,-0.02
1.31,-0.8,-0.04
1.31,-0.8,-0.06
1.33,-0.79,-0.06
1.36,-0.83,-0.04
1.34,-0.81,-0.03
1.3,-0.79,-0.06
1.28,-0.75,-0.09
1.27,-0.75,-0.1
1.28,-0.75,-0.09
1.28,-0.74,-0.12
1.28,-0.74,-0.14
1.25,-0.72,-0.15
1.2,-0.68,-0.15
1.15,-0.65,-0.13
1.15,-0.64,-0.12
1.14,-0.62,-0.12
1.07,-0.59,-0.14
1.04,-0.57,-0.19
0.99,-0.55,-0.21
0.95,-0.54,-0.23
0.93,-0.54,-0.25
0.89,-0.5,-0.25
0.84,-0.44,-0.26
0.81,-0.37,-0.27
0.79,-0.34,-0.27
0.78,-0.34,-0.31
0.77,-0.32,-0.34
0.77,-0.26,-0.35
0.76,-0.2,-0.37
0.73,-0.1,-0.44
0.7,-0.08,-0.47
0.71,-0.08,-0.5
0.71,-0.08,-0.53
0.69,-0.03,-0.54
0.67,0.02,-0.56
0.65,0.04,-0.58
0.62,0.08,-0.57
0.61,0.1,-0.57
0.6,0.14,-0.57
0.61,0.15,-0.56
0.64,0.15,-0.56
0.64,0.18,-0.57
0.65,0.21,-0.57
0.67,0.28,-0.54
0.7,0.33,-0.52
0.74,0.33,-0.51
0.73,0.35,-0.48
0.7,0.38,-0.45
0.67,0.44,-0.43
0.64,0.53,-0.42
0.64,0.59,-0.44
0.65,0.61,-0.42
0.66,0.61,-0.39
0.68,0.61,-0.36
0.69,0.61,-0.35
0.68,0.62,-0.31
0.59,0.66,-0.32
0.56,0.7,-0.3
0.49,0.69,-0.29
0.47,0.65,-0.27
0.47,0.65,-0.23
0.47,0.66,-0.2
0.47,0.67,-0.2
0.43,0.71,-0.23
0.38,0.73,-0.26
0.33,0.69,-0.27
0.27,0.65,-0.24
0.22,0.65,-0.18
0.19,0.68,-0.13
0.16,0.69,-0.13
0.13,0.7,-0.13
0.13,0.71,-0.14
0.14,0.71,-0.13
0.14,0.71,-0.12
0.12,0.73,-0.1
0.08,0.75,-0.08
0.04,0.75,-0.07
0.01,0.73,-0.05
-0.04,0.69,-0.04
-0.09,0.61,-0.02
-0.12,0.54,0.01
-0.15,0.54,0.05
-0.16,0.72,0.06
-0.16,0.83,0.06
-0.15,0.86,0.07
-0.13,0.85,0.11
-0.12,0.84,0.15
-0.13,0.82,0.21
-0.13,0.82,0.28
-0.13,0.84,0.36
-0.13,0.86,0.43
-0.12,0.87,0.46
-0.1,0.85,0.46
-0.1,0.81,0.47
-0.09,0.78,0.49
-0.1,0.76,0.51
-0.11,0.78,0.53
-0.12,0.83,0.55
-0.11,0.86,0.56
-0.1,0.86,0.55
-0.1,0.86,0.52
-0.1,0.86,0.48
-0.09,0.85,0.44
-0.1,0.86,0.42
-0.11,0.89,0.42
-0.11,0.9,0.42
-0.12,0.88,0.42
-0.13,0.87,0.36
-0.16,0.84,0.35
-0.17,0.81,0.35
-0.17,0.8,0.34
-0.18,0.81,0.32
-0.21,0.84,0.32
-0.21,0.84,0.33
-0.2,0.83,0.31
-0.18,0.81,0.3
-0.16,0.8,0.3
-0.15,0.79,0.31
-0.15,0.79,0.31
-0.15,0.8,0.32
-0.15,0.83,0.31
-0.14,0.83,0.29
-0.12,0.82,0.28
-0.12,0.8,0.27
-0.12,0.8,0.27
-0.1,0.79,0.27
-0.09,0.77,0.27
-0.09,0.76,0.24
-0.1,0.77,0.19
-0.12,0.79,0.16
-0.11,0.8,0.14
-0.1,0.79,0.13
-0.09,0.75,0.12
-0.08,0.72,0.08
-0.07,0.66,0.06
-0.05,0.64,0.03
-0.06,0.62,0
-0.06,0.6,-0.02
-0.06,0.58,-0.02
-0.05,0.57,-0.02
-0.04,0.56,-0.02
-0.01,0.55,-0.03
0.03,0.55,-0.05
0.06,0.53,-0.08
0.08,0.51,-0.09
0.1,0.47,-0.09
0.13,0.42,-0.09
0.15,0.37,-0.1
0.18,0.35,-0.1
0.24,0.35,-0.11
0.31,0.35,-0.15
0.35,0.33,-0.2
0.39,0.3,-0.24
0.41,0.28,-0.26
0.43,0.28,-0.29
0.48,0.27,-0.35
0.52,0.21,-0.41
0.55,0.18,-0.45
0.56,0.17,-0.47
0.57,0.14,-0.5
0.56,0.13,-0.51
0.58,0.19,-0.55
0.62,0.26,-0.63
0.66,0.23,-0.73
0.69,0.14,-0.8
0.72,0.08,-0.81
0.75,0.03,-0.81
0.78,0.01,-0.8
0.8,0.04,-0.81
0.8,0.09,-0.84
0.78,0.11,-0.87
0.82,0.1,-0.9
0.89,0.03,-0.97
0.94,-0.03,-0.99
0.96,-0.03,-0.97
0.97,-0.03,-0.95
0.95,-0.02,-0.96
0.94,0.03,-0.98
0.95,0.09,-0.99
0.96,0.1,-1.01
0.99,0.03,-1.05
1.02,-0.05,-1.09
1.01,-0.09,-1.08
0.96,-0.13,-1.07
0.89,-0.16,-1.08
0.82,-0.15,-1.12
0.87,-0.02,-1.12
0.92,0,-1.11
0.95,0,-1.1
0.94,-0.02,-1.08
0.89,-0.09,-1.07
0.81,-0.18,-1.07
0.71,-0.27,-1.08
0.63,-0.33,-1.1
0.65,-0.35,-1.13
0.74,-0.34,-1.15
0.81,-0.33,-1.14
0.88,-0.32,-1.12
0.9,-0.33,-1.11
0.87,-0.36,-1.11
0.82,-0.41,-1.09
0.78,-0.43,-1.09
0.78,-0.44,-1.1
0.81,-0.42,-1.11
0.87,-0.4,-1.1
0.93,-0.38,-1.1
0.97,-0.38,-1.1
0.99,-0.39,-1.1
0.98,-0.4,-1.09
0.99,-0.42,-1.07
1.03,-0.44,-1.07
1.08,-0.44,-1.07
1.16,-0.43,-1.06
1.19,-0.42,-1.07
1.22,-0.42,-1.07
1.22,-0.43,-1.06
1.22,-0.43,-1.05
1.22,-0.41,-1.03
1.21,-0.39,-1.01
1.2,-0.38,-1
1.18,-0.37,-1
1.16,-0.37,-1.01
1.14,-0.38,-1.02
1.12,-0.4,-1.03
1.11,-0.42,-1.05
1.1,-0.42,-1.05
1.1,-0.42,-1.07
1.13,-0.42,-1.09
1.15,-0.42,-1.11
1.14,-0.43,-1.11
1.13,-0.44,-1.1
1.12,-0.44,-1.08
1.08,-0.44,-1.08
1.06,-0.45,-1.08
1.07,-0.45,-1.09
1.08,-0.46,-1.11
1.11,-0.47,-1.12
1.14,-0.46,-1.12
1.16,-0.45,-1.11
1.12,-0.46,-1.08
1.12,-0.48,-1.07
1.12,-0.48,-1.05
1.1,-0.46,-1.01
1.09,-0.44,-0.99
1.08,-0.43,-0.96
1.04,-0.43,-0.93
1.02,-0.43,-0.89
1.02,-0.41,-0.86
1.02,-0.4,-0.81
1.02,-0.37,-0.77
1.03,-0.36,-0.73
1.04,-0.36,-0.7
1.01,-0.33,-0.69
0.99,-0.31,-0.68
0.99,-0.31,-0.67
0.98,-0.3,-0.63
0.95,-0.28,-0.59
0.92,-0.24,-0.54
0.87,-0.2,-0.5
0.85,-0.16,-0.47
0.84,-0.12,-0.45
0.84,-0.08,-0.44
0.85,-0.01,-0.44
0.84,0.07,-0.43
0.82,0.15,-0.44
0.78,0.11,-0.44
0.73,0.08,-0.41
0.68,0.1,-0.37
0.66,0.15,-0.34
0.63,0.18,-0.32
0.59,0.2,-0.3
0.57,0.24,-0.3
0.56,0.25,-0.32
0.55,0.26,-0.33
0.55,0.28,-0.32
0.52,0.3,-0.31
0.48,0.32,-0.29
0.44,0.33,-0.27
0.4,0.35,-0.25
0.32,0.41,-0.34
0.28,0.45,-0.35
0.29,0.46,-0.24
0.25,0.48,-0.23
0.21,0.48,-0.24
0.15,0.52,-0.22
0.11,0.55,-0.19
0.08,0.55,-0.16
0.06,0.57,-0.13
0.06,0.61,-0.09
0.07,0.66,-0.06
0.09,0.69,-0.05
0.09,0.69,-0.02
0.06,0.72,0.01
0.03,0.74,0.04
0.01,0.74,0.06
-0.01,0.73,0.08
-0.01,0.72,0.11
0,0.71,0.14
0.01,0.72,0.18
0.03,0.74,0.21
0.04,0.74,0.22
0.04,0.73,0.22
0.01,0.71,0.25
-0.04,0.69,0.29
-0.08,0.68,0.32
-0.12,0.69,0.35
-0.15,0.7,0.38
-0.18,0.7,0.41
-0.2,0.7,0.44
-0.22,0.72,0.47
-0.24,0.75,0.49
-0.27,0.76,0.52
-0.3,0.77,0.55
-0.33,0.78,0.57
-0.36,0.77,0.6
-0.37,0.75,0.62
-0.38,0.74,0.66
-0.4,0.73,0.68
-0.38,0.72,0.68
-0.37,0.7,0.68
-0.38,0.69,0.67
-0.39,0.69,0.65
-0.38,0.68,0.65
-0.38,0.66,0.65
-0.39,0.65,0.65
-0.39,0.67,0.63
-0.37,0.69,0.6
-0.35,0.71,0.57
-0.32,0.72,0.55
-0.29,0.71,0.51
-0.27,0.69,0.46
-0.25,0.68,0.43
-0.22,0.68,0.39
-0.2,0.68,0.36
-0.19,0.66,0.32
-0.18,0.64,0.28
-0.17,0.62,0.24
-0.16,0.6,0.21
-0.13,0.6,0.18
-0.09,0.6,0.15
-0.06,0.59,0.12
-0.04,0.58,0.1
-0.03,0.58,0.04
0.02,0.57,0.01
0.04,0.54,-0.01
0.06,0.51,-0.02
0.1,0.47,-0.02
0.16,0.43,-0.03
0.2,0.41,-0.04
0.25,0.38,-0.07
0.28,0.38,-0.09
0.32,0.42,-0.14
0.35,0.44,-0.2
0.34,0.42,-0.27
0.34,0.37,-0.34
0.38,0.32,-0.38
0.44,0.3,-0.39
0.51,0.31,-0.41
0.55,0.34,-0.45
0.54,0.38,-0.5
0.55,0.4,-0.56
0.55,0.39,-0.59
0.53,0.35,-0.61
0.5,0.29,-0.63
0.48,0.25,-0.63
0.46,0.22,-0.6
0.48,0.28,-0.59
0.52,0.34,-0.63
0.54,0.31,-0.68
0.58,0.12,-0.7
0.61,0.04,-0.72
0.63,-0.02,-0.73
0.61,-0.06,-0.74
0.59,-0.05,-0.77
0.58,-0.03,-0.81
0.61,0.01,-0.85
0.67,0.04,-0.88
0.72,0.01,-0.92
0.75,-0.06,-0.97
0.74,-0.13,-1.01
0.71,-0.18,-1.05
0.65,-0.22,-1.08
0.58,-0.24,-1.11
0.55,-0.18,-1.14
0.59,-0.06,-1.19
0.65,0.02,-1.22
0.69,0.02,-1.23
0.75,-0.04,-1.25
0.77,-0.12,-1.27
0.73,-0.2,-1.29
0.66,-0.25,-1.31
0.59,-0.26,-1.33
0.53,-0.25,-1.36
0.53,-0.25,-1.38
0.62,-0.24,-1.36
0.86,-0.24,-1.31
0.86,-0.25,-1.28
0.79,-0.26,-1.3
0.69,-0.28,-1.31
0.59,-0.31,-1.31
0.57,-0.33,-1.3
0.62,-0.36,-1.28
0.68,-0.38,-1.25
0.73,-0.38,-1.24
0.74,-0.38,-1.24
0.71,-0.38,-1.25
0.67,-0.39,-1.27
0.67,-0.41,-1.27
0.7,-0.43,-1.24
0.74,-0.44,-1.21
0.76,-0.44,-1.18
0.75,-0.44,-1.16
0.73,-0.43,-1.16
0.72,-0.42,-1.15
0.74,-0.42,-1.15
0.8,-0.42,-1.13
0.84,-0.41,-1.09
0.86,-0.41,-1.08
0.88,-0.42,-1.07
0.88,-0.42,-1.05
0.87,-0.43,-1.04
0.88,-0.43,-1.04
0.89,-0.43,-1.03
0.93,-0.44,-1.02
0.98,-0.44,-1.02
1,-0.44,-1.02
1.02,-0.44,-1.02
1.03,-0.44,-1.02
1.04,-0.44,-1.02
1.06,-0.43,-1.03
1.08,-0.44,-1.04
1.09,-0.44,-1.07
1.09,-0.43,-1.09
1.08,-0.42,-1.1
1.06,-0.41,-1.1
1.03,-0.42,-1.1
1.01,-0.45,-1.11
1.02,-0.49,-1.11
1.04,-0.53,-1.11
1.05,-0.54,-1.12
1.06,-0.53,-1.13
1.05,-0.51,-1.12
1.03,-0.48,-1.12
1.01,-0.43,-1.12
0.99,-0.39,-1.11
0.97,-0.39,-1.1
0.97,-0.4,-1.1
0.95,-0.44,-1.11
0.93,-0.44,-1.13
0.91,-0.44,-1.14
0.89,-0.44,-1.13
0.84,-0.43,-1.1
0.81,-0.41,-1.07
0.8,-0.37,-1.04
0.78,-0.34,-1.02
0.79,-0.32,-1.03
0.81,-0.32,-1.05
0.82,-0.32,-1.06
0.83,-0.31,-1.05
0.84,-0.29,-1.02
0.84,-0.28,-0.98
0.83,-0.27,-0.93
0.82,-0.26,-0.89
0.8,-0.27,-0.86
0.76,-0.24,-0.83
0.76,-0.18,-0.79
0.79,-0.12,-0.75
0.83,-0.07,-0.75
0.84,-0.06,-0.74
0.83,-0.05,-0.72
0.82,-0.03,-0.7
0.79,0,-0.66
0.73,0.02,-0.6
0.67,0.18,-0.48
0.72,0.19,-0.46
0.74,0.17,-0.41
0.73,0.18,-0.34
0.73,0.21,-0.3
0.74,0.22,-0.28
0.74,0.21,-0.27
0.68,0.2,-0.24
0.58,0.22,-0.17
0.54,0.27,-0.11
0.57,0.32,-0.09
0.62,0.36,-0.11
0.62,0.38,-0.13
0.57,0.37,-0.14
0.54,0.36,-0.11
0.53,0.39,-0.08
0.53,0.44,-0.06
0.53,0.5,-0.08
0.48,0.53,-0.11
0.36,0.54,-0.08
0.27,0.56,-0.05
0.29,0.59,-0.03
0.32,0.61,-0.01
0.29,0.63,0
0.25,0.62,0
0.22,0.6,0
0.18,0.62,0.03
0.07,0.68,0.04
0.09,0.71,0.03
0.15,0.71,0.02
0.17,0.71,0.01
0.14,0.69,-0.02
0.12,0.64,-0.04
0.1,0.62,-0.02
0.06,0.65,0.04
0.04,0.71,0.11
0.03,0.75,0.14
0.01,0.76,0.16
-0.03,0.73,0.18
-0.05,0.71,0.2
-0.07,0.7,0.22
-0.09,0.71,0.25
-0.11,0.73,0.28
-0.14,0.75,0.29
-0.18,0.75,0.32
-0.21,0.76,0.34
-0.24,0.75,0.38
-0.27,0.73,0.42
-0.31,0.71,0.45
-0.35,0.7,0.47
-0.39,0.69,0.5
-0.42,0.7,0.54
-0.46,0.72,0.59
-0.53,0.71,0.6
-0.56,0.7,0.6
-0.59,0.68,0.6
-0.59,0.66,0.6
-0.6,0.66,0.6
-0.6,0.67,0.59
-0.6,0.68,0.58
-0.59,0.7,0.57
-0.57,0.7,0.55
-0.55,0.7,0.53
-0.54,0.71,0.52
-0.52,0.71,0.5
-0.51,0.71,0.48
-0.49,0.71,0.46
-0.45,0.71,0.43
-0.41,0.7,0.41
-0.39,0.71,0.38
-0.36,0.73,0.36
-0.33,0.72,0.35
-0.31,0.7,0.33
-0.3,0.67,0.31
-0.3,0.65,0.28
-0.31,0.63,0.26
-0.31,0.62,0.23
-0.3,0.61,0.2
-0.29,0.55,0.13
-0.22,0.52,0.1
-0.17,0.5,0.07
-0.1,0.49,0.06
-0.03,0.48,0.03
0.03,0.46,0
0.04,0.44,-0.03
0.03,0.41,-0.05
0.05,0.39,-0.03
0.09,0.39,-0.01
0.12,0.39,0.01
0.16,0.39,0.02
0.2,0.38,0.01
0.22,0.38,0
0.24,0.34,-0.03
0.25,0.29,-0.09
0.27,0.25,-0.14
0.3,0.22,-0.17
0.35,0.21,-0.18
0.4,0.23,-0.19
0.42,0.24,-0.21
0.44,0.23,-0.22
0.45,0.17,-0.25
0.46,0.06,-0.32
0.47,-0.06,-0.39
0.5,-0.12,-0.44
0.54,-0.04,-0.5
0.63,0.03,-0.55
0.64,0,-0.61
0.66,-0.11,-0.69
0.72,-0.26,-0.79
0.81,-0.39,-0.86
0.91,-0.4,-0.91
0.98,-0.32,-0.97
1,-0.27,-1.04
0.97,-0.26,-1.1
0.94,-0.29,-1.15
0.91,-0.33,-1.21
0.9,-0.36,-1.26
0.94,-0.3,-1.3
0.98,-0.2,-1.36
0.98,-0.17,-1.43
0.97,-0.19,-1.47
0.95,-0.2,-1.47
0.89,-0.24,-1.44
0.82,-0.28,-1.42
0.89,-0.09,-1.35
0.89,-0.09,-1.35
0.89,-0.14,-1.33
0.86,-0.25,-1.34
0.73,-0.3,-1.35
0.71,-0.34,-1.34
0.76,-0.33,-1.33
0.85,-0.32,-1.31
0.93,-0.31,-1.27
0.98,-0.3,-1.24
0.97,-0.32,-1.22
0.91,-0.34,-1.19
0.85,-0.36,-1.16
0.77,-0.39,-1.13
0.72,-0.42,-1.11
0.73,-0.44,-1.08
0.8,-0.46,-1.03
0.87,-0.48,-0.97
0.89,-0.46,-0.92
0.86,-0.45,-0.9
0.81,-0.45,-0.91
0.77,-0.46,-0.92
0.77,-0.48,-0.94
0.8,-0.51,-0.93
0.88,-0.53,-0.88
0.97,-0.55,-0.8
0.97,-0.54,-0.75
0.94,-0.53,-0.74
0.88,-0.53,-0.73
0.81,-0.53,-0.75
0.83,-0.54,-0.76
0.9,-0.54,-0.74
0.96,-0.55,-0.73
1,-0.56,-0.72
0.99,-0.55,-0.71
0.95,-0.55,-0.72
0.93,-0.55,-0.73
0.92,-0.54,-0.72
0.94,-0.53,-0.73
0.98,-0.52,-0.75
1.01,-0.52,-0.75
1.04,-0.51,-0.75
1.06,-0.51,-0.76
1.07,-0.51,-0.79
1.09,-0.48,-0.81
1.12,-0.45,-0.84
1.13,-0.43,-0.85
1.14,-0.42,-0.86
1.16,-0.43,-0.87
1.17,-0.45,-0.88
1.16,-0.46,-0.9
1.17,-0.46,-0.92
1.19,-0.45,-0.94
1.18,-0.44,-0.94
1.17,-0.43,-0.94
1.17,-0.44,-0.94
1.16,-0.44,-0.93
1.14,-0.43,-0.94
1.15,-0.42,-0.96
1.14,-0.41,-0.97
1.12,-0.4,-0.97
1.11,-0.4,-0.97
1.1,-0.41,-0.95
1.1,-0.4,-0.92
1.1,-0.38,-0.89
1.09,-0.38,-0.87
1.08,-0.39,-0.87
1.06,-0.4,-0.86
1.05,-0.39,-0.85
1.06,-0.37,-0.83
1.08,-0.34,-0.81
1.09,-0.35,-0.79
1.1,-0.35,-0.76
1.08,-0.34,-0.74
1.04,-0.31,-0.71
1,-0.28,-0.67
0.99,-0.25,-0.65
0.99,-0.24,-0.61
0.98,-0.23,-0.57
0.98,-0.21,-0.53
0.99,-0.19,-0.5
1,-0.18,-0.47
1,-0.11,-0.47
0.98,-0.1,-0.47
0.93,-0.07,-0.46
0.88,-0.02,-0.45
0.85,0.04,-0.42
0.83,0.1,-0.37
0.84,0.16,-0.29
0.88,0.22,-0.24
0.93,0.26,-0.21
0.95,0.32,-0.19
0.96,0.39,-0.18
0.97,0.41,-0.17
0.95,0.37,-0.14
0.89,0.3,-0.11
0.81,0.25,-0.07
0.71,0.23,-0.02
0.66,0.25,0.03
0.67,0.27,0.05
0.69,0.31,0.04
0.67,0.34,0.01
0.64,0.37,-0.02
0.63,0.38,-0.02
0.62,0.37,-0.02
0.56,0.35,0.09
0.54,0.4,0.11
0.52,0.48,-0.03
0.36,0.46,-0.07
0.31,0.46,-0.06
0.27,0.47,-0.03
0.24,0.51,0.02
0.25,0.52,0.05
0.24,0.51,0.07
0.2,0.47,0.07
0.16,0.47,0.07
0.13,0.49,0.04
0.13,0.56,0.02
0.13,0.62,0.04
0.12,0.63,0.07
0.1,0.61,0.12
0.07,0.58,0.14
0.03,0.58,0.15
-0.02,0.62,0.17
-0.08,0.64,0.2
-0.15,0.66,0.24
-0.21,0.69,0.27
-0.24,0.72,0.31
-0.25,0.73,0.34
-0.27,0.71,0.35
-0.29,0.69,0.35
-0.3,0.69,0.37
-0.32,0.67,0.37
-0.35,0.66,0.42
-0.42,0.67,0.45
-0.46,0.67,0.48
-0.51,0.67,0.52
-0.56,0.67,0.55
-0.58,0.67,0.57
-0.58,0.67,0.57
-0.58,0.67,0.58
-0.59,0.67,0.6
-0.59,0.68,0.6
-0.6,0.68,0.59
-0.6,0.66,0.58
-0.61,0.65,0.6
-0.63,0.64,0.62
-0.63,0.65,0.61
-0.64,0.65,0.61
-0.64,0.67,0.61
-0.63,0.69,0.6
-0.61,0.7,0.59
-0.6,0.7,0.57
-0.59,0.69,0.56
-0.58,0.69,0.55
-0.57,0.69,0.53
-0.55,0.7,0.51
-0.52,0.71,0.5
-0.5,0.72,0.5
-0.48,0.72,0.49
-0.42,0.69,0.48
-0.4,0.68,0.46
-0.37,0.68,0.43
-0.28,0.69,0.34
-0.26,0.7,0.33
-0.23,0.7,0.31
-0.2,0.7,0.3
-0.18,0.69,0.28
-0.16,0.66,0.26
-0.14,0.64,0.24
-0.13,0.61,0.22
-0.11,0.61,0.21
-0.07,0.63,0.18
-0.03,0.64,0.15
-0.01,0.62,0.14
-0.01,0.59,0.14
0,0.55,0.14
0.02,0.52,0.13
0.04,0.52,0.13
0.08,0.53,0.11
0.13,0.54,0.08
0.17,0.55,0.07
0.19,0.55,0.06
0.22,0.53,0.04
0.24,0.46,0.02
0.25,0.45,0.03
0.27,0.47,0.03
0.3,0.51,0.01
0.35,0.52,-0.03
0.38,0.5,-0.08
0.38,0.45,-0.14
0.39,0.39,-0.19
0.39,0.35,-0.2
0.39,0.34,-0.21
0.43,0.36,-0.24
0.46,0.41,-0.27
0.5,0.43,-0.32
0.53,0.38,-0.38
0.56,0.29,-0.42
0.56,0.18,-0.45
0.55,0.1,-0.47
0.59,0.1,-0.5
0.64,0.16,-0.53
0.66,0.18,-0.58
0.67,0.13,-0.64
0.69,0.03,-0.69
0.72,-0.11,-0.74
0.73,-0.23,-0.78
0.74,-0.27,-0.8
0.77,-0.24,-0.81
0.79,-0.02,-0.85
0.82,0.04,-0.9
0.82,-0.01,-0.94
0.81,-0.12,-0.98
0.83,-0.24,-1.01
0.85,-0.29,-1.03
0.87,-0.29,-1.05
0.89,-0.25,-1.08
0.9,-0.17,-1.1
0.91,-0.1,-1.11
0.91,-0.09,-1.11
0.91,-0.13,-1.1
0.9,-0.19,-1.09
0.89,-0.26,-1.09
0.88,-0.3,-1.11
0.88,-0.31,-1.12
0.9,-0.29,-1.12
0.92,-0.27,-1.12
0.95,-0.27,-1.13
0.97,-0.28,-1.15
0.96,-0.31,-1.17
0.96,-0.35,-1.18
0.97,-0.38,-1.17
0.97,-0.38,-1.13
0.99,-0.37,-1.09
1,-0.35,-1.06
0.98,-0.31,-1.03
0.99,-0.33,-1.01
1,-0.35,-0.99
1.02,-0.38,-0.96
1.01,-0.41,-0.93
0.99,-0.42,-0.91
0.97,-0.44,-0.89
0.95,-0.47,-0.89
0.94,-0.5,-0.89
0.93,-0.5,-0.88
0.93,-0.49,-0.86
0.95,-0.5,-0.82
0.97,-0.51,-0.77
0.97,-0.52,-0.75
0.95,-0.52,-0.75
0.94,-0.54,-0.75
0.93,-0.54,-0.75
0.93,-0.54,-0.74
0.92,-0.53,-0.74
0.92,-0.53,-0.73
0.94,-0.55,-0.72
0.96,-0.55,-0.7
0.94,-0.56,-0.68
0.93,-0.56,-0.67
0.93,-0.55,-0.67
0.94,-0.54,-0.68
0.95,-0.53,-0.69
1.05,-0.54,-0.69
1.07,-0.52,-0.69
1.08,-0.51,-0.68
1.14,-0.52,-0.69
1.19,-0.53,-0.71
1.22,-0.52,-0.73
1.24,-0.51,-0.75
1.25,-0.48,-0.75
1.25,-0.47,-0.75
1.24,-0.46,-0.76
1.24,-0.47,-0.77
1.26,-0.49,-0.79
1.27,-0.49,-0.81
1.28,-0.5,-0.81
1.29,-0.5,-0.81
1.28,-0.52,-0.83
1.26,-0.53,-0.85
1.23,-0.53,-0.86
1.22,-0.54,-0.87
1.2,-0.57,-0.87
1.18,-0.57,-0.86
1.18,-0.56,-0.85
1.2,-0.54,-0.85
1.2,-0.52,-0.84
1.2,-0.51,-0.85
1.2,-0.51,-0.84
1.18,-0.52,-0.83
1.16,-0.5,-0.82
1.15,-0.48,-0.8
1.16,-0.47,-0.78
1.16,-0.45,-0.76
1.16,-0.43,-0.75
1.15,-0.42,-0.73
1.14,-0.42,-0.72
1.13,-0.43,-0.71
1.13,-0.45,-0.68
1.13,-0.44,-0.66
1.14,-0.39,-0.63
1.13,-0.34,-0.61
1.14,-0.31,-0.6
1.12,-0.31,-0.59
1.09,-0.31,-0.57
1.07,-0.29,-0.55
1.05,-0.27,-0.55
1,-0.24,-0.55
0.96,-0.22,-0.52
0.95,-0.18,-0.48
0.93,-0.12,-0.44
0.91,-0.06,-0.41
0.87,0,-0.4
0.82,0.03,-0.39
0.78,0.04,-0.39
0.8,0.09,-0.37
0.78,0.12,-0.33
0.77,0.14,-0.31
0.75,0.15,-0.31
0.72,0.15,-0.28
0.68,0.19,-0.24
0.64,0.27,-0.21
0.63,0.32,-0.19
0.62,0.33,-0.21
0.59,0.31,-0.23
0.53,0.31,-0.23
0.52,0.37,-0.21
0.55,0.43,-0.22
0.64,0.44,-0.14
0.63,0.42,-0.13
0.52,0.44,-0.23
0.46,0.48,-0.24
0.4,0.48,-0.25
0.33,0.5,-0.23
0.27,0.53,-0.2
0.24,0.56,-0.18
0.22,0.56,-0.16
0.2,0.57,-0.12
0.19,0.59,-0.1
0.19,0.61,-0.09
0.21,0.62,-0.06
0.17,0.59,-0.03
0.14,0.6,0.01
0.11,0.58,0.03
0.07,0.56,0.06
0,0.55,0.09
-0.09,0.57,0.13
-0.13,0.58,0.17
-0.14,0.57,0.18
-0.17,0.55,0.21
-0.23,0.57,0.23
-0.28,0.58,0.25
-0.32,0.58,0.26
-0.38,0.61,0.29
-0.43,0.64,0.31
-0.48,0.65,0.32
-0.52,0.67,0.33
-0.56,0.71,0.36
-0.58,0.72,0.38
-0.57,0.7,0.38
-0.57,0.67,0.38
-0.6,0.66,0.4
-0.64,0.67,0.43
-0.65,0.69,0.44
-0.67,0.7,0.44
-0.71,0.71,0.44
-0.74,0.7,0.43
-0.76,0.7,0.44
-0.75,0.71,0.45
-0.73,0.72,0.46
-0.68,0.73,0.45
-0.64,0.73,0.43
-0.62,0.73,0.41
-0.6,0.73,0.39
-0.59,0.74,0.39
-0.57,0.76,0.39
-0.55,0.77,0.38
-0.54,0.77,0.36
-0.54,0.76,0.36
-0.54,0.76,0.36
-0.52,0.76,0.36
-0.48,0.76,0.36
-0.45,0.77,0.35
-0.42,0.78,0.36
-0.39,0.78,0.36
-0.37,0.77,0.35
-0.35,0.76,0.33
-0.32,0.75,0.3
-0.3,0.75,0.3
-0.29,0.76,0.3
-0.26,0.76,0.3
-0.24,0.75,0.29
-0.22,0.74,0.28
-0.21,0.73,0.26
-0.18,0.75,0.23
-0.14,0.76,0.2
-0.1,0.76,0.17
-0.06,0.74,0.14
-0.03,0.72,0.11
-0.01,0.69,0.09
0.01,0.68,0.1
0.04,0.68,0.1
0.08,0.69,0.08
0.1,0.69,0.04
0.12,0.68,0.02
0.14,0.66,0.01
0.15,0.63,0
0.15,0.6,0.01
0.15,0.58,0.02
0.18,0.59,0.03
0.25,0.62,0
0.3,0.63,-0.03
0.32,0.61,-0.06
0.34,0.58,-0.08
0.35,0.53,-0.08
0.36,0.49,-0.07
0.38,0.46,-0.05
0.4,0.45,-0.04
0.45,0.45,-0.1
0.5,0.44,-0.12
0.52,0.41,-0.13
0.54,0.35,-0.15
0.56,0.3,-0.16
0.55,0.25,-0.16
0.54,0.25,-0.15
0.57,0.28,-0.16
0.62,0.28,-0.18
0.66,0.25,-0.21
0.69,0.2,-0.25
0.7,0.16,-0.26
0.69,0.13,-0.27
0.66,0.09,-0.29
0.62,0.05,-0.31
0.63,0.05,-0.32
0.7,0.08,-0.37
0.77,0.1,-0.42
0.8,0.07,-0.44
0.81,0.02,-0.45
0.83,-0.04,-0.45
0.83,-0.09,-0.46
0.81,-0.14,-0.49
0.81,-0.17,-0.56
0.83,-0.14,-0.65
0.89,-0.13,-0.71
0.97,-0.2,-0.75
1.1,-0.34,-0.76
1.11,-0.36,-0.78
1.05,-0.36,-0.82
0.95,-0.38,-0.88
0.92,-0.39,-0.93
0.97,-0.35,-0.94
1.05,-0.28,-0.92
1.12,-0.27,-0.93
1.19,-0.31,-0.97
1.22,-0.35,-1.01
1.19,-0.37,-1.03
1.12,-0.4,-1.03
0.99,-0.37,-1
0.99,-0.37,-1
1.02,-0.35,-0.98
1.08,-0.37,-0.98
1.1,-0.4,-0.97
1.06,-0.42,-0.97
0.99,-0.44,-0.98
0.92,-0.46,-0.98
0.87,-0.48,-0.98
0.86,-0.48,-0.97
0.9,-0.49,-0.94
0.96,-0.48,-0.9
0.98,-0.49,-0.89
0.96,-0.51,-0.9
0.95,-0.51,-0.89
0.93,-0.53,-0.86
0.92,-0.54,-0.83
0.91,-0.55,-0.83
0.89,-0.54,-0.83
0.9,-0.54,-0.83
0.93,-0.54,-0.81
0.94,-0.53,-0.8
0.93,-0.54,-0.8
0.94,-0.54,-0.8
0.95,-0.54,-0.8
0.94,-0.54,-0.78
0.93,-0.53,-0.77
0.96,-0.53,-0.77
1,-0.55,-0.78
1.04,-0.57,-0.78
1.09,-0.58,-0.76
1.12,-0.59,-0.74
1.1,-0.59,-0.73
1.08,-0.59,-0.72
1.07,-0.6,-0.71
1.07,-0.59,-0.7
1.08,-0.58,-0.71
1.09,-0.58,-0.71
1.12,-0.58,-0.75
1.15,-0.57,-0.76
1.16,-0.54,-0.76
1.18,-0.51,-0.77
1.21,-0.5,-0.79
1.22,-0.5,-0.8
1.24,-0.51,-0.83
1.28,-0.52,-0.86
1.33,-0.54,-0.89
1.37,-0.56,-0.91
1.4,-0.57,-0.91
1.41,-0.57,-0.92
1.4,-0.57,-0.93
1.38,-0.58,-0.95
1.35,-0.6,-0.97
1.32,-0.63,-0.99
1.31,-0.64,-0.97
1.35,-0.63,-0.97
1.39,-0.6,-0.97
1.39,-0.59,-0.98
1.39,-0.58,-0.98
1.39,-0.58,-0.98
1.38,-0.59,-0.99
1.37,-0.62,-0.97
1.36,-0.62,-0.94
1.33,-0.6,-0.9
1.29,-0.6,-0.83
1.24,-0.61,-0.78
1.22,-0.63,-0.74
1.19,-0.65,-0.68
1.18,-0.64,-0.64
1.16,-0.57,-0.62
1.14,-0.53,-0.59
1.11,-0.52,-0.56
1.07,-0.5,-0.55
1.03,-0.46,-0.53
1.02,-0.42,-0.5
1.01,-0.37,-0.48
1.01,-0.33,-0.47
1,-0.28,-0.45
0.97,-0.22,-0.41
0.94,-0.19,-0.39
0.88,-0.15,-0.36
0.85,-0.11,-0.34
0.84,-0.06,-0.33
0.83,-0.02,-0.31
0.81,0,-0.29
0.78,0.02,-0.24
0.76,0.06,-0.19
0.77,0.11,-0.16
0.78,0.14,-0.15
0.76,0.15,-0.12
0.71,0.11,-0.01
0.6,0.09,0.01
0.52,0.07,0.04
0.44,0.14,0.07
0.39,0.26,0.05
0.3,0.31,-0.02
0.24,0.32,-0.05
0.24,0.3,-0.07
0.26,0.31,-0.11
0.35,0.38,-0.09
0.36,0.45,-0.07
0.28,0.52,-0.08
0.19,0.59,-0.12
0.09,0.66,-0.16
0.01,0.69,-0.16
-0.06,0.69,-0.15
-0.09,0.68,-0.11
-0.06,0.68,-0.08
0,0.66,-0.04
0.04,0.64,0.01
0.08,0.6,0.02
0.08,0.56,0.02
0.05,0.5,0
0,0.45,0
-0.07,0.45,0.02
-0.14,0.48,0.05
-0.18,0.54,0.09
-0.24,0.57,0.1
-0.3,0.56,0.13
-0.36,0.56,0.16
-0.41,0.55,0.19
-0.45,0.57,0.23
-0.5,0.61,0.27
-0.56,0.66,0.31
-0.63,0.68,0.35
-0.69,0.66,0.39
-0.74,0.64,0.42
-0.77,0.61,0.43
-0.8,0.58,0.45
-0.83,0.58,0.48
-0.86,0.59,0.49
-0.86,0.61,0.5
-0.85,0.64,0.51
-0.83,0.67,0.51
-0.82,0.69,0.51
-0.82,0.7,0.51
-0.82,0.71,0.51
-0.82,0.71,0.51
-0.8,0.72,0.51
-0.76,0.72,0.51
-0.73,0.7,0.51
-0.7,0.69,0.5
-0.67,0.69,0.49
-0.65,0.73,0.49
-0.63,0.75,0.47
-0.6,0.74,0.45
-0.57,0.73,0.45
-0.52,0.71,0.47
-0.48,0.7,0.47
-0.45,0.7,0.46
-0.42,0.69,0.44
-0.38,0.7,0.42
-0.36,0.71,0.41
-0.34,0.72,0.4
-0.31,0.72,0.39
-0.28,0.71,0.37
-0.24,0.7,0.33
-0.21,0.7,0.31
-0.19,0.7,0.3
-0.17,0.68,0.29
-0.15,0.67,0.29
-0.12,0.69,0.28
-0.08,0.71,0.25
-0.06,0.71,0.21
-0.05,0.68,0.18
-0.03,0.65,0.16
-0.01,0.6,0.14
0,0.58,0.13
0.02,0.58,0.13
0.14,0.6,0.11
0.19,0.6,0.07
0.21,0.57,0.03
0.2,0.54,0.01
0.2,0.5,0.01
0.22,0.46,0.01
0.26,0.43,0.02
0.3,0.44,0.02
0.35,0.46,-0.02
0.4,0.46,-0.07
0.4,0.45,-0.13
0.39,0.43,-0.18
0.39,0.38,-0.21
0.39,0.33,-0.21
0.41,0.31,-0.2
0.45,0.32,-0.2
0.52,0.34,-0.23
0.54,0.33,-0.29
0.53,0.3,-0.35
0.53,0.23,-0.41
0.55,0.14,-0.44
0.57,0.07,-0.44
0.58,0.05,-0.43
0.62,0.1,-0.43
0.7,0.19,-0.46
0.75,0.25,-0.54
0.72,0.14,-0.58
0.72,0.03,-0.63
0.73,-0.08,-0.67
0.76,-0.15,-0.71
0.81,-0.16,-0.75
0.86,-0.09,-0.79
0.87,0.01,-0.84
0.86,0.02,-0.9
0.85,-0.03,-0.94
0.84,-0.09,-0.96
0.83,-0.17,-0.98
0.82,-0.23,-1.01
0.84,-0.21,-1.07
0.86,-0.12,-1.11
0.89,-0.03,-1.14
0.93,0.04,-1.16
0.95,0.06,-1.18
0.93,0.03,-1.16
0.86,-0.02,-1.13
0.78,-0.07,-1.1
0.75,-0.09,-1.08
0.75,-0.11,-1.06
0.74,-0.14,-1.04
0.75,-0.16,-1.04
0.8,-0.19,-1.04
0.83,-0.22,-1.01
0.83,-0.22,-1.02
0.82,-0.22,-1.04
0.81,-0.22,-1.07
0.81,-0.23,-1.09
0.82,-0.24,-1.1
0.85,-0.26,-1.09
0.91,-0.28,-1.07
0.95,-0.29,-1.05
0.99,-0.27,-1.07
1,-0.25,-1.08
0.99,-0.24,-1.09
0.99,-0.25,-1.08
1,-0.28,-1.07
1.01,-0.31,-1.04
1.02,-0.34,-1.01
1.05,-0.35,-1
1.09,-0.34,-1.01
1.1,-0.33,-1.02
1.11,-0.33,-1.03
1.13,-0.34,-1.01
1.13,-0.35,-0.98
1.11,-0.37,-0.94
1.11,-0.39,-0.93
1.09,-0.41,-0.92
1.08,-0.41,-0.89
1.09,-0.41,-0.85
1.05,-0.41,-0.84
1.04,-0.42,-0.82
1.02,-0.44,-0.81
1,-0.45,-0.8
1,-0.47,-0.79
1,-0.48,-0.77
1,-0.49,-0.75
0.99,-0.49,-0.74
0.99,-0.48,-0.72
0.98,-0.47,-0.7
0.96,-0.46,-0.69
0.95,-0.46,-0.69
0.96,-0.46,-0.71
0.97,-0.45,-0.71
0.97,-0.43,-0.71
0.99,-0.42,-0.72
1.03,-0.4,-0.73
1.05,-0.39,-0.75
1.07,-0.38,-0.76
1.1,-0.37,-0.79
1.14,-0.36,-0.81
1.16,-0.36,-0.82
1.17,-0.36,-0.83
1.21,-0.37,-0.85
1.24,-0.38,-0.86
1.24,-0.38,-0.86
1.26,-0.41,-0.88
1.26,-0.42,-0.86
1.25,-0.41,-0.85
1.26,-0.4,-0.86
1.25,-0.38,-0.86
1.23,-0.38,-0.84
1.24,-0.38,-0.81
1.27,-0.36,-0.8
1.29,-0.32,-0.79
1.3,-0.26,-0.79
1.3,-0.21,-0.84
1.28,-0.21,-0.9
1.24,-0.25,-0.94
1.19,-0.32,-0.94
1.17,-0.39,-0.9
1.17,-0.45,-0.83
1.17,-0.48,-0.76
1.16,-0.47,-0.73
1.13,-0.44,-0.71
1.11,-0.41,-0.71
1.09,-0.37,-0.71
1.06,-0.32,-0.7
1.05,-0.3,-0.67
1.03,-0.29,-0.6
1,-0.24,-0.52
0.94,-0.18,-0.47
0.88,-0.09,-0.38
0.8,-0.02,-0.32
0.8,0.04,-0.3
0.81,0.06,-0.3
0.81,0.05,-0.3
0.82,0.09,-0.3
0.85,0.16,-0.3
0.85,0.25,-0.29
0.83,0.31,-0.27
0.8,0.33,-0.24
0.78,0.3,-0.19
0.76,0.28,-0.14
0.74,0.29,-0.1
0.71,0.31,-0.08
0.68,0.33,-0.07
0.65,0.34,-0.06
0.61,0.36,-0.06
0.57,0.39,-0.07
0.54,0.41,-0.08
0.51,0.42,-0.06
0.48,0.47,-0.02
0.46,0.52,-0.04
0.51,0.55,-0.03
0.52,0.51,0
0.44,0.46,0
0.4,0.46,0.02
0.36,0.49,0.04
0.27,0.51,0.06
0.22,0.54,0.09
0.18,0.57,0.11
0.17,0.59,0.12
0.18,0.58,0.13
0.19,0.56,0.15
0.16,0.56,0.18
0.15,0.57,0.19
0.15,0.59,0.2
0.15,0.63,0.19
0.14,0.66,0.18
0.12,0.67,0.18
0.06,0.67,0.21
-0.03,0.65,0.25
-0.09,0.63,0.25
-0.13,0.63,0.26
-0.17,0.64,0.27
-0.19,0.65,0.28
-0.19,0.66,0.29
-0.18,0.66,0.3
-0.18,0.66,0.31
-0.19,0.64,0.32
-0.25,0.63,0.34
-0.32,0.63,0.37
-0.41,0.64,0.41
-0.49,0.66,0.47
-0.51,0.67,0.48
-0.5,0.67,0.49
-0.54,0.65,0.51
-0.58,0.65,0.54
-0.62,0.65,0.56
-0.66,0.66,0.58
-0.69,0.67,0.59
-0.7,0.67,0.6
-0.7,0.68,0.61
-0.68,0.68,0.63
-0.67,0.67,0.65
-0.65,0.65,0.66
-0.64,0.64,0.68
-0.65,0.64,0.69
-0.64,0.64,0.69
-0.62,0.65,0.69
-0.61,0.66,0.69
-0.6,0.66,0.69
-0.59,0.66,0.67
-0.56,0.66,0.66
-0.52,0.67,0.65
-0.48,0.66,0.65
-0.45,0.66,0.64
-0.44,0.67,0.63
-0.43,0.67,0.61
-0.41,0.67,0.55
-0.37,0.66,0.53
-0.33,0.66,0.51
-0.29,0.66,0.5
-0.26,0.65,0.48
-0.22,0.64,0.45
-0.2,0.63,0.41
-0.18,0.63,0.36
-0.17,0.62,0.33
-0.14,0.62,0.3
-0.11,0.6,0.27
-0.09,0.58,0.23
-0.06,0.57,0.21
-0.01,0.58,0.18
0.04,0.58,0.14
0.07,0.57,0.11
0.11,0.55,0.08
0.15,0.52,0.05
0.18,0.49,0.04
0.18,0.47,0.04
0.19,0.47,0.05
0.25,0.49,0.04
0.32,0.52,0
0.37,0.5,-0.04
0.39,0.45,-0.08
0.4,0.39,-0.12
0.4,0.34,-0.17
0.44,0.32,-0.2
0.5,0.36,-0.24
0.53,0.39,-0.26
0.52,0.38,-0.28
0.51,0.33,-0.31
0.51,0.27,-0.35
0.52,0.23,-0.39
0.55,0.23,-0.42
0.6,0.25,-0.45
0.62,0.26,-0.48
0.63,0.26,-0.52
0.64,0.23,-0.57
0.64,0.18,-0.6
0.66,0.15,-0.61
0.69,0.16,-0.61
0.73,0.19,-0.64
0.75,0.19,-0.69
0.74,0.14,-0.72
0.73,0.07,-0.75
0.73,-0.03,-0.78
0.73,-0.03,-0.78
0.72,-0.09,-0.8
0.72,-0.14,-0.81
0.76,-0.11,-0.82
0.81,-0.06,-0.85
0.86,-0.07,-0.95
0.94,-0.12,-0.97
0.95,-0.12,-0.98
0.92,-0.13,-0.97
0.84,-0.14,-0.93
0.87,-0.1,-0.93
0.88,-0.13,-0.94
0.9,-0.19,-0.97
0.93,-0.22,-0.97
0.94,-0.24,-0.96
0.92,-0.27,-0.95
0.89,-0.3,-0.96
0.88,-0.3,-0.98
0.9,-0.27,-0.98
0.93,-0.22,-0.97
0.97,-0.21,-0.96
1.02,-0.24,-0.94
1.06,-0.28,-0.91
1.05,-0.32,-0.89
0.99,-0.35,-0.88
0.93,-0.37,-0.89
0.93,-0.36,-0.91
0.96,-0.34,-0.91
0.98,-0.32,-0.88
1.03,-0.34,-0.85
1.13,-0.41,-0.84
1.08,-0.42,-0.83
1.03,-0.41,-0.84
1.02,-0.39,-0.87
1.05,-0.37,-0.89
1.08,-0.35,-0.87
1.14,-0.35,-0.84
1.2,-0.36,-0.82
1.21,-0.37,-0.79
1.18,-0.39,-0.78
1.16,-0.4,-0.8
1.16,-0.39,-0.84
1.19,-0.38,-0.86
1.24,-0.39,-0.85
1.29,-0.4,-0.83
1.33,-0.4,-0.8
1.35,-0.41,-0.8
1.34,-0.41,-0.81
1.34,-0.42,-0.83
1.38,-0.42,-0.85
1.42,-0.41,-0.86
1.43,-0.4,-0.86
1.41,-0.4,-0.87
1.41,-0.4,-0.87
1.39,-0.4,-0.87
1.36,-0.4,-0.87
1.33,-0.42,-0.87
1.31,-0.44,-0.88
1.28,-0.45,-0.89
1.25,-0.45,-0.89
1.25,-0.46,-0.89
1.24,-0.45,-0.87
1.22,-0.46,-0.87
1.21,-0.46,-0.86
1.2,-0.45,-0.85
1.18,-0.44,-0.84
1.17,-0.44,-0.82
1.14,-0.43,-0.8
1.12,-0.42,-0.8
1.11,-0.41,-0.8
1.11,-0.4,-0.8
1.12,-0.39,-0.79
1.13,-0.37,-0.78
1.13,-0.36,-0.77
1.12,-0.32,-0.76
1.1,-0.29,-0.74
1.09,-0.27,-0.71
1.07,-0.27,-0.69
1.06,-0.27,-0.67
1.05,-0.27,-0.65
1.05,-0.24,-0.63
1.06,-0.21,-0.61
1.08,-0.12,-0.59
1.08,-0.09,-0.58
1.06,-0.11,-0.58
1.02,-0.14,-0.56
0.98,-0.13,-0.53
0.94,-0.11,-0.49
0.91,-0.06,-0.45
0.89,0,-0.43
0.87,0.05,-0.42
0.85,0.07,-0.42
0.85,0.06,-0.43
0.85,0.05,-0.42
0.83,0.08,-0.4
0.8,0.14,-0.39
0.77,0.19,-0.38
0.74,0.21,-0.36
0.7,0.22,-0.32
0.68,0.24,-0.28
0.66,0.29,-0.23
0.66,0.37,-0.2
0.67,0.44,-0.19
0.67,0.46,-0.2
0.67,0.47,-0.2
0.66,0.46,-0.19
0.64,0.45,-0.18
0.6,0.44,-0.14
0.47,0.51,-0.09
0.48,0.56,-0.05
0.52,0.58,-0.04
0.51,0.56,-0.05
0.47,0.51,-0.04
0.42,0.48,-0.03
0.39,0.51,-0.02
0.4,0.58,-0.01
0.41,0.66,0.01
0.36,0.68,-0.01
0.32,0.65,-0.02
0.26,0.59,-0.03
0.19,0.53,-0.02
0.13,0.52,0.01
0.09,0.56,0.06
0.1,0.63,0.09
0.13,0.7,0.11
0.15,0.73,0.11
0.15,0.72,0.13
0.13,0.72,0.15
0.11,0.7,0.18
0.11,0.68,0.21
0.09,0.64,0.26
0.05,0.61,0.3
0,0.61,0.34
-0.04,0.65,0.36
-0.06,0.66,0.37
-0.09,0.64,0.38
-0.13,0.61,0.4
-0.17,0.58,0.44
-0.2,0.57,0.46
-0.23,0.59,0.47
-0.26,0.63,0.5
-0.29,0.66,0.53
-0.35,0.68,0.56
-0.4,0.67,0.56
-0.44,0.67,0.58
-0.5,0.67,0.61
-0.55,0.67,0.64
-0.58,0.69,0.67
-0.59,0.71,0.66
-0.59,0.72,0.65
-0.59,0.71,0.63
-0.58,0.7,0.63
-0.58,0.69,0.64
-0.57,0.69,0.64
-0.54,0.7,0.64
-0.51,0.71,0.64
-0.5,0.71,0.62
-0.48,0.7,0.6
-0.47,0.7,0.58
-0.46,0.69,0.58
-0.44,0.72,0.57
-0.38,0.73,0.56
-0.37,0.73,0.55
-0.35,0.74,0.52
-0.32,0.74,0.49
-0.3,0.73,0.47
-0.29,0.73,0.46
-0.27,0.73,0.45
-0.24,0.73,0.42
-0.23,0.75,0.4
-0.22,0.75,0.39
-0.21,0.74,0.37
-0.2,0.72,0.35
-0.19,0.71,0.33
-0.17,0.7,0.29
-0.14,0.7,0.25
-0.12,0.68,0.22
-0.11,0.67,0.2
-0.1,0.65,0.18
-0.09,0.62,0.17
-0.08,0.6,0.15
-0.07,0.57,0.14
-0.04,0.56,0.13
0,0.55,0.12
0.04,0.55,0.1
0.08,0.55,0.08
0.13,0.52,0.04
0.12,0.49,0.04
0.13,0.47,0.04
0.16,0.43,0.04
0.2,0.4,0.05
0.25,0.39,0.05
0.3,0.41,0.04
0.34,0.41,0.02
0.36,0.39,-0.01
0.38,0.36,-0.04
0.39,0.32,-0.08
0.38,0.28,-0.11
0.4,0.26,-0.14
0.44,0.28,-0.18
0.5,0.35,-0.23
0.58,0.39,-0.28
0.62,0.37,-0.34
0.64,0.33,-0.39
0.65,0.26,-0.43
0.66,0.18,-0.45
0.69,0.13,-0.48
0.73,0.17,-0.53
0.77,0.24,-0.58
0.8,0.25,-0.64
0.81,0.18,-0.69
0.85,0.08,-0.73
0.89,-0.08,-0.81
0.91,-0.11,-0.85
0.91,-0.08,-0.89
0.91,0.02,-0.91
0.91,0.11,-0.91
0.9,0.09,-0.94
0.88,0.02,-0.95
0.86,-0.06,-0.95
0.82,-0.12,-0.95
0.76,-0.16,-0.95
0.73,-0.17,-0.95
0.77,-0.14,-0.96
0.82,-0.1,-0.99
0.85,-0.12,-1.02
0.87,-0.17,-1.06
0.86,-0.23,-1.08
0.82,-0.28,-1.09
0.75,-0.32,-1.09
0.66,-0.33,-1.09
0.62,-0.31,-1.09
0.67,-0.28,-1.09
0.76,-0.24,-1.09
0.82,-0.23,-1.07
0.87,-0.26,-1.08
0.87,-0.3,-1.09
0.82,-0.33,-1.09
0.77,-0.39,-1.06
0.73,-0.37,-1.04
0.81,-0.33,-1.04
0.88,-0.28,-1.04
0.91,-0.27,-1.03
0.96,-0.29,-1.03
1,-0.33,-1.02
1,-0.36,-0.98
0.98,-0.39,-0.96
0.93,-0.43,-0.94
0.91,-0.46,-0.93
0.93,-0.47,-0.93
0.98,-0.46,-0.93
1.04,-0.45,-0.92
1.09,-0.44,-0.91
1.13,-0.43,-0.87
1.13,-0.43,-0.83
1.1,-0.44,-0.84
1.07,-0.46,-0.86
1.06,-0.47,-0.86
1.1,-0.47,-0.86
1.15,-0.46,-0.85
1.19,-0.47,-0.82
1.21,-0.46,-0.8
1.2,-0.45,-0.79
1.19,-0.45,-0.79
1.19,-0.46,-0.8
1.23,-0.46,-0.8
1.26,-0.46,-0.79
1.27,-0.46,-0.79
1.28,-0.46,-0.8
1.28,-0.47,-0.82
1.28,-0.47,-0.84
1.3,-0.47,-0.84
1.33,-0.47,-0.85
1.36,-0.45,-0.86
1.37,-0.44,-0.86
1.36,-0.44,-0.86
1.36,-0.45,-0.86
1.35,-0.46,-0.87
1.33,-0.48,-0.88
1.32,-0.49,-0.87
1.31,-0.48,-0.87
1.29,-0.47,-0.89
1.28,-0.46,-0.9
1.26,-0.46,-0.89
1.25,-0.47,-0.89
1.27,-0.47,-0.88
1.26,-0.48,-0.87
1.24,-0.49,-0.86
1.23,-0.49,-0.86
1.21,-0.44,-0.87
1.2,-0.38,-0.86
1.21,-0.35,-0.85
1.2,-0.4,-0.83
1.17,-0.44,-0.81
1.15,-0.47,-0.77
1.13,-0.48,-0.74
1.1,-0.44,-0.72
1.08,-0.37,-0.7
1.06,-0.31,-0.69
1.03,-0.27,-0.67
1,-0.28,-0.66
0.98,-0.31,-0.64
0.98,-0.31,-0.62
0.99,-0.26,-0.62
0.97,-0.22,-0.61
0.95,-0.2,-0.59
0.92,-0.18,-0.57
0.9,-0.12,-0.52
0.87,-0.05,-0.49
0.82,-0.01,-0.48
0.77,0,-0.45
0.72,0.01,-0.4
0.7,0.02,-0.34
0.68,0.03,-0.3
0.66,0.1,-0.24
0.63,0.21,-0.19
0.61,0.28,-0.2
0.57,0.3,-0.21
0.52,0.31,-0.18
0.49,0.35,-0.15
0.46,0.41,-0.12
0.44,0.47,-0.09
0.44,0.49,-0.08
0.47,0.48,-0.09
0.49,0.46,-0.1
0.5,0.45,-0.12
0.46,0.46,-0.16
0.46,0.49,-0.16
0.48,0.54,-0.14
0.43,0.55,-0.14
0.39,0.55,-0.13
0.36,0.55,-0.12
0.33,0.56,-0.11
0.31,0.59,-0.09
0.32,0.6,-0.09
0.32,0.57,-0.07
0.29,0.55,-0.05
0.24,0.55,-0.02
0.21,0.57,-0.01
0.19,0.6,0.01
0.18,0.62,0.03
0.17,0.62,0.06
0.14,0.63,0.08
0.07,0.66,0.11
0,0.68,0.14
-0.05,0.69,0.17
-0.06,0.7,0.19
-0.05,0.7,0.23
-0.05,0.7,0.26
-0.05,0.7,0.28
-0.08,0.71,0.28
-0.15,0.75,0.29
-0.2,0.8,0.3
-0.24,0.84,0.31
-0.28,0.87,0.3
-0.34,0.88,0.31
-0.39,0.87,0.34
-0.4,0.84,0.36
-0.39,0.82,0.37
-0.39,0.8,0.38
-0.39,0.77,0.37
-0.41,0.73,0.37
-0.42,0.69,0.37
-0.41,0.66,0.38
-0.42,0.65,0.4
-0.44,0.66,0.41
-0.46,0.66,0.43
-0.5,0.65,0.45
-0.55,0.65,0.48
-0.61,0.66,0.47
-0.64,0.67,0.48
-0.66,0.69,0.49
-0.66,0.7,0.49
-0.68,0.7,0.49
-0.68,0.73,0.49
-0.69,0.76,0.51
-0.69,0.77,0.53
-0.67,0.78,0.53
-0.63,0.77,0.51
-0.6,0.74,0.48
-0.58,0.72,0.46
-0.56,0.71,0.45
-0.54,0.7,0.45
-0.5,0.69,0.43
-0.47,0.68,0.4
-0.44,0.68,0.37
-0.42,0.68,0.35
-0.38,0.67,0.33
-0.33,0.67,0.3
-0.32,0.65,0.27
-0.32,0.63,0.24
-0.32,0.62,0.2
-0.29,0.63,0.18
-0.25,0.64,0.14
-0.21,0.64,0.07
-0.15,0.59,0.05
-0.13,0.57,0.03
-0.12,0.55,0.01
-0.1,0.53,0.02
-0.04,0.51,0.01
0,0.48,-0.01
0.02,0.47,-0.03
0.02,0.46,-0.03
0.04,0.43,-0.02
0.08,0.38,-0.01
0.13,0.36,0
0.19,0.34,0
0.24,0.31,-0.02
0.28,0.29,-0.05
0.33,0.27,-0.08
0.36,0.24,-0.11
0.4,0.23,-0.12
0.45,0.25,-0.15
0.49,0.27,-0.2
0.53,0.27,-0.25
0.55,0.25,-0.3
0.57,0.21,-0.34
0.6,0.15,-0.38
0.62,0.09,-0.4
0.68,0.09,-0.39
0.75,0.15,-0.42
0.85,0.2,-0.55
0.87,0.11,-0.62
0.87,0,-0.68
0.87,-0.12,-0.73
0.86,-0.22,-0.76
0.88,-0.27,-0.76
0.95,-0.24,-0.76
1.03,-0.16,-0.77
1.06,-0.13,-0.79
1.04,-0.15,-0.81
0.99,-0.2,-0.85
0.92,-0.27,-0.9
0.86,-0.35,-0.95
0.88,-0.37,-0.99
0.98,-0.26,-1.02
1.08,-0.12,-1.04
1.14,-0.08,-1.06
1.2,-0.1,-1.07
1.22,-0.13,-1.07
1.16,-0.18,-1.06
1.06,-0.23,-1.03
1.01,-0.25,-0.99
1,-0.24,-0.95
1,-0.2,-0.91
1.03,-0.19,-0.91
1.08,-0.22,-0.92
1.14,-0.32,-0.89
1.16,-0.37,-0.89
1.13,-0.4,-0.89
1.11,-0.41,-0.9
1.13,-0.38,-0.89
1.16,-0.36,-0.88
1.18,-0.36,-0.86
1.21,-0.36,-0.84
1.23,-0.38,-0.82
1.21,-0.4,-0.77
1.18,-0.41,-0.75
1.13,-0.43,-0.75
1.11,-0.44,-0.76
1.13,-0.43,-0.75
1.15,-0.42,-0.73
1.19,-0.42,-0.7
1.22,-0.42,-0.67
1.19,-0.42,-0.65
1.14,-0.43,-0.64
1.12,-0.45,-0.64
1.11,-0.45,-0.63
1.1,-0.45,-0.62
1.09,-0.45,-0.62
1.11,-0.46,-0.62
1.15,-0.47,-0.62
1.18,-0.48,-0.61
1.21,-0.45,-0.57
1.23,-0.43,-0.57
1.22,-0.42,-0.58
1.21,-0.41,-0.59
1.21,-0.41,-0.61
1.22,-0.4,-0.61
1.24,-0.38,-0.62
1.26,-0.38,-0.62
1.28,-0.36,-0.62
1.29,-0.35,-0.64
1.29,-0.34,-0.66
1.3,-0.34,-0.7
1.32,-0.36,-0.72
1.33,-0.38,-0.73
1.35,-0.38,-0.73
1.37,-0.39,-0.72
1.39,-0.39,-0.72
1.38,-0.39,-0.74
1.37,-0.4,-0.74
1.38,-0.42,-0.74
1.37,-0.42,-0.75
1.38,-0.39,-0.74
1.41,-0.37,-0.72
1.44,-0.36,-0.7
1.45,-0.37,-0.69
1.44,-0.37,-0.69
1.43,-0.38,-0.7
1.34,-0.36,-0.71
1.33,-0.33,-0.7
1.33,-0.33,-0.69
1.34,-0.36,-0.66
1.36,-0.39,-0.64
1.37,-0.4,-0.65
1.34,-0.4,-0.67
1.31,-0.41,-0.69
1.27,-0.4,-0.69
1.22,-0.37,-0.68
1.19,-0.35,-0.66
1.16,-0.33,-0.64
1.13,-0.32,-0.64
1.12,-0.32,-0.63
1.12,-0.31,-0.62
1.1,-0.28,-0.62
1.06,-0.23,-0.6
1.03,-0.17,-0.56
0.99,-0.1,-0.53
0.95,-0.06,-0.52
0.93,-0.07,-0.5
0.91,-0.1,-0.47
0.87,-0.13,-0.43
0.82,-0.1,-0.39
0.79,-0.05,-0.38
0.78,0.08,-0.38
0.73,0.1,-0.38
0.7,0.11,-0.35
0.66,0.14,-0.32
0.63,0.17,-0.29
0.62,0.21,-0.28
0.61,0.26,-0.28
0.61,0.31,-0.27
0.62,0.37,-0.26
0.64,0.41,-0.26
0.65,0.42,-0.25
0.62,0.45,-0.23
0.59,0.5,-0.22
0.58,0.53,-0.21
0.56,0.52,-0.2
0.5,0.5,-0.16
0.48,0.48,-0.1
0.49,0.47,-0.06
0.48,0.46,-0.04
0.49,0.45,-0.04
0.48,0.44,-0.03
0.44,0.47,-0.01
0.4,0.51,0.01
0.36,0.49,0.01
0.31,0.45,0.02
0.24,0.43,0.04
0.17,0.44,0.11
0.1,0.49,0.16
0.04,0.52,0.2
-0.01,0.53,0.23
-0.06,0.54,0.25
-0.11,0.57,0.26
-0.16,0.58,0.26
-0.22,0.56,0.26
-0.28,0.54,0.27
-0.33,0.53,0.29
-0.35,0.52,0.31
-0.38,0.52,0.33
-0.43,0.54,0.37
-0.48,0.56,0.41
-0.53,0.58,0.43
-0.56,0.59,0.44
-0.58,0.59,0.46
-0.6,0.59,0.47
-0.61,0.59,0.49
-0.63,0.59,0.53
-0.67,0.6,0.56
-0.71,0.6,0.57
-0.74,0.6,0.59
-0.77,0.6,0.6
-0.79,0.6,0.62
-0.81,0.6,0.64
-0.81,0.61,0.66
-0.79,0.62,0.67
-0.78,0.64,0.68
-0.77,0.66,0.67
-0.75,0.67,0.66
-0.72,0.67,0.64
-0.7,0.66,0.63
-0.69,0.66,0.62
-0.67,0.67,0.61
-0.63,0.67,0.6
-0.59,0.68,0.59
-0.54,0.69,0.59
-0.51,0.69,0.57
-0.48,0.69,0.54
-0.44,0.69,0.52
-0.4,0.68,0.51
-0.39,0.68,0.49
-0.37,0.68,0.48
-0.33,0.67,0.45
-0.3,0.66,0.43
-0.27,0.67,0.41
-0.23,0.68,0.38
-0.19,0.67,0.34
-0.17,0.65,0.32
-0.16,0.63,0.31
-0.14,0.61,0.31
-0.11,0.61,0.28
-0.01,0.64,0.25
0.02,0.64,0.23
0.02,0.62,0.22
0.01,0.59,0.2
0.02,0.56,0.18
0.02,0.53,0.16
0.04,0.55,0.16
0.1,0.59,0.14
0.17,0.62,0.1
0.23,0.63,0.07
0.25,0.6,0.05
0.25,0.57,0.05
0.25,0.53,0.04
0.27,0.5,0.03
0.32,0.51,0.02
0.38,0.52,-0.01
0.42,0.5,-0.07
0.46,0.49,-0.11
0.51,0.48,-0.14
0.58,0.46,-0.17
0.61,0.44,-0.18
0.61,0.42,-0.18
0.6,0.42,-0.2
0.59,0.43,-0.21
0.59,0.43,-0.2
0.63,0.43,-0.18
0.68,0.33,-0.18
0.69,0.27,-0.19
0.7,0.26,-0.21
0.72,0.28,-0.24
0.74,0.3,-0.29
0.77,0.3,-0.34
0.77,0.26,-0.38
0.79,0.2,-0.41
0.84,0.14,-0.4
0.88,0.09,-0.4
0.89,0.07,-0.41
0.89,0.07,-0.44
0.9,0.12,-0.51
0.91,0.15,-0.58
0.91,0.15,-0.62
0.9,0.12,-0.65
0.91,0.06,-0.66
0.94,-0.03,-0.65
0.97,-0.12,-0.64
1.01,-0.13,-0.65
1.05,-0.08,-0.68
1.06,-0.01,-0.71
1.05,0.05,-0.73
1.03,0.07,-0.75
1.02,0.04,-0.74
1.01,-0.01,-0.69
0.96,-0.17,-0.68
0.95,-0.26,-0.69
0.96,-0.29,-0.69
0.98,-0.25,-0.68
1.01,-0.18,-0.68
1.05,-0.14,-0.7
1.08,-0.16,-0.71
1.09,-0.19,-0.7
1.07,-0.23,-0.7
1.04,-0.26,-0.73
1.02,-0.27,-0.76
1.03,-0.27,-0.79
1.06,-0.29,-0.79
1.1,-0.3,-0.76
1.14,-0.3,-0.73
1.18,-0.29,-0.71
1.19,-0.28,-0.69
1.18,-0.26,-0.69
1.15,-0.24,-0.71
1.12,-0.24,-0.71
1.11,-0.27,-0.7
1.12,-0.31,-0.68
1.12,-0.35,-0.66
1.13,-0.38,-0.65
1.13,-0.41,-0.64
1.14,-0.43,-0.62
1.11,-0.43,-0.61
1.08,-0.44,-0.61
1.06,-0.44,-0.62
1.03,-0.45,-0.62
1.05,-0.45,-0.59
1.07,-0.47,-0.56
1.05,-0.48,-0.54
0.99,-0.48,-0.53
0.96,-0.48,-0.53
0.93,-0.49,-0.54
0.88,-0.48,-0.53
0.85,-0.48,-0.52
0.83,-0.5,-0.51
0.83,-0.54,-0.51
0.87,-0.58,-0.49
0.93,-0.61,-0.45
0.98,-0.62,-0.42
0.96,-0.63,-0.4
0.9,-0.64,-0.39
0.83,-0.64,-0.37
0.8,-0.64,-0.37
0.79,-0.64,-0.36
0.83,-0.65,-0.33
0.9,-0.65,-0.29
0.97,-0.65,-0.26
1.01,-0.63,-0.28
0.99,-0.61,-0.34
1,-0.6,-0.35
1.02,-0.58,-0.36
1.08,-0.59,-0.35
1.15,-0.6,-0.34
1.2,-0.57,-0.34
1.25,-0.55,-0.36
1.29,-0.55,-0.37
1.35,-0.54,-0.38
1.44,-0.53,-0.38
1.51,-0.52,-0.39
1.55,-0.53,-0.4
1.58,-0.53,-0.43
1.61,-0.53,-0.46
1.64,-0.53,-0.48
1.67,-0.54,-0.5
1.68,-0.54,-0.51
1.67,-0.55,-0.53
1.64,-0.56,-0.56
1.6,-0.58,-0.58
1.58,-0.6,-0.61
1.57,-0.62,-0.64
1.54,-0.62,-0.65
1.52,-0.62,-0.67
1.49,-0.62,-0.71
1.45,-0.61,-0.74
1.42,-0.66,-0.73
1.37,-0.68,-0.74
1.33,-0.67,-0.76
1.28,-0.65,-0.76
1.24,-0.62,-0.74
1.21,-0.59,-0.71
1.18,-0.56,-0.69
1.14,-0.53,-0.68
1.13,-0.51,-0.66
1.13,-0.51,-0.64
1.11,-0.51,-0.63
1.1,-0.5,-0.62
1.08,-0.46,-0.6
1.07,-0.41,-0.6
1.05,-0.35,-0.6
1.05,-0.3,-0.59
1.03,-0.31,-0.57
1,-0.33,-0.54
0.98,-0.35,-0.49
0.96,-0.31,-0.46
0.93,-0.19,-0.43
0.92,-0.1,-0.42
0.94,-0.09,-0.45
0.92,-0.12,-0.46
0.88,-0.13,-0.44
0.84,-0.14,-0.4
0.79,-0.06,-0.33
0.77,0.05,-0.31
0.78,0.13,-0.28
0.77,0.15,-0.26
0.74,0.14,-0.23
0.7,0.16,-0.19
0.69,0.21,-0.17
0.69,0.26,-0.15
0.68,0.33,-0.13
0.68,0.4,-0.11
0.69,0.41,-0.09
0.66,0.37,-0.07
0.63,0.35,-0.03
0.63,0.37,-0.01
0.62,0.41,0
0.6,0.47,0.02
0.56,0.51,0.04
0.53,0.48,0.04
0.48,0.42,0.05
0.42,0.38,0.07
0.37,0.41,0.08
0.35,0.49,0.1
0.37,0.55,0.11
0.38,0.55,0.11
0.36,0.55,0.13
0.32,0.53,0.15
0.28,0.52,0.14
0.22,0.55,0.15
0.18,0.57,0.16
0.15,0.55,0.17
0.1,0.55,0.19
0.04,0.55,0.22
0,0.55,0.24
-0.02,0.55,0.26
-0.05,0.56,0.26
-0.08,0.56,0.27
-0.12,0.55,0.28
-0.14,0.56,0.28
-0.15,0.55,0.28
-0.17,0.55,0.28
-0.23,0.56,0.3
-0.32,0.6,0.35
-0.4,0.65,0.39
-0.42,0.67,0.41
-0.4,0.68,0.4
-0.42,0.67,0.39
-0.46,0.66,0.39
-0.49,0.67,0.42
-0.5,0.68,0.44
-0.51,0.69,0.47
-0.55,0.7,0.49
-0.58,0.71,0.48
-0.61,0.71,0.49
-0.62,0.67,0.5
-0.6,0.66,0.52
-0.59,0.65,0.54
-0.6,0.65,0.56
-0.61,0.64,0.57
-0.62,0.63,0.57
-0.64,0.63,0.58
-0.68,0.65,0.6
-0.7,0.68,0.63
-0.71,0.68,0.65
-0.73,0.68,0.64
-0.72,0.67,0.64
-0.68,0.66,0.63
-0.65,0.65,0.62
-0.63,0.64,0.62
-0.61,0.65,0.63
-0.61,0.66,0.63
-0.61,0.68,0.62
-0.6,0.7,0.61
-0.58,0.7,0.59
-0.55,0.69,0.58
-0.53,0.68,0.57
-0.51,0.67,0.55
-0.48,0.65,0.52
-0.44,0.65,0.51
-0.41,0.66,0.48
-0.35,0.66,0.46
-0.33,0.65,0.44
-0.33,0.63,0.42
-0.33,0.61,0.4
-0.34,0.59,0.38
-0.32,0.59,0.37
-0.27,0.6,0.35
-0.21,0.6,0.34
-0.17,0.6,0.33
-0.15,0.6,0.31
-0.13,0.6,0.28
-0.11,0.59,0.26
-0.08,0.56,0.24
-0.05,0.53,0.23
-0.03,0.52,0.22
0.01,0.53,0.21
0.07,0.55,0.2
0.12,0.54,0.19
0.16,0.52,0.17
0.17,0.48,0.14
0.17,0.43,0.11
0.19,0.38,0.09
0.21,0.36,0.06
0.25,0.37,0.03
0.32,0.42,0
0.39,0.46,-0.06
0.43,0.45,-0.09
0.43,0.39,-0.13
0.43,0.32,-0.17
0.42,0.27,-0.22
0.45,0.25,-0.27
0.5,0.27,-0.29
0.56,0.3,-0.29
0.62,0.32,-0.3
0.66,0.3,-0.33
0.66,0.24,-0.37
0.63,0.17,-0.41
0.62,0.11,-0.45
0.63,0.1,-0.47
0.66,0.14,-0.49
0.69,0.16,-0.52
0.71,0.13,-0.56
0.71,0.06,-0.6
0.72,-0.03,-0.66
0.73,-0.12,-0.71
0.76,-0.17,-0.73
0.76,-0.17,-0.73
0.83,-0.08,-0.75
0.89,-0.03,-0.81
0.9,-0.05,-0.86
1.07,-0.3,-1.03
1.05,-0.33,-1.02
1,-0.34,-0.99
0.99,-0.35,-0.94
1.01,-0.37,-0.89
1.06,-0.37,-0.85
1.1,-0.34,-0.85
1.12,-0.32,-0.85
1.15,-0.31,-0.85
1.18,-0.33,-0.85
1.22,-0.35,-0.84
1.25,-0.34,-0.84
1.26,-0.33,-0.84
1.24,-0.31,-0.84
1.22,-0.31,-0.83
1.2,-0.32,-0.82
1.18,-0.34,-0.81
1.18,-0.36,-0.8
1.18,-0.39,-0.78
1.2,-0.41,-0.78
1.23,-0.42,-0.79
1.24,-0.45,-0.77
1.24,-0.47,-0.76
1.22,-0.48,-0.75
1.19,-0.49,-0.73
1.17,-0.49,-0.72
1.16,-0.48,-0.7
1.17,-0.49,-0.69
1.18,-0.49,-0.66
1.18,-0.49,-0.63
1.17,-0.49,-0.6
1.15,-0.49,-0.59
1.12,-0.48,-0.59
1.09,-0.48,-0.57
1.07,-0.48,-0.56
1.07,-0.48,-0.56
1.06,-0.49,-0.55
1.06,-0.5,-0.54
1.08,-0.52,-0.52
1.08,-0.53,-0.5
1.08,-0.53,-0.49
1.1,-0.52,-0.49
1.12,-0.51,-0.51
1.12,-0.51,-0.52
1.13,-0.51,-0.53
1.14,-0.51,-0.55
1.15,-0.51,-0.57
1.21,-0.51,-0.57
1.24,-0.51,-0.6
1.27,-0.51,-0.65
1.32,-0.46,-0.75
1.35,-0.44,-0.78
1.37,-0.43,-0.79
1.36,-0.41,-0.78
1.36,-0.39,-0.79
1.36,-0.37,-0.86
1.36,-0.37,-0.87
1.37,-0.37,-0.87
1.37,-0.37,-0.87
1.36,-0.38,-0.86
1.31,-0.25,-0.77
1.31,-0.25,-0.77
1.3,-0.24,-0.73
1.29,-0.22,-0.7
1.26,-0.19,-0.69
1.22,-0.19,-0.67
1.18,-0.2,-0.65
1.16,-0.22,-0.63
1.12,-0.26,-0.62
1.09,-0.29,-0.61
1.08,-0.29,-0.59
0.68,0.18,-0.25
0.68,0.18,-0.25
0.65,0.18,-0.23
0.64,0.21,-0.19
0.56,0.27,-0.17
0.5,0.41,-0.12
0.44,0.41,-0.12
0.4,0.41,-0.12
0.36,0.41,-0.1
0.33,0.44,-0.07
0.31,0.58,-0.02
0.31,0.58,-0.02
0.3,0.59,0.02
0.25,0.57,0.03
0.21,0.56,0.04
0.09,0.62,0.08
0.09,0.62,0.08
0.06,0.61,0.11
0.04,0.61,0.15
0.03,0.6,0.18
-0.03,0.64,0.25
-0.03,0.64,0.25
-0.06,0.65,0.28
-0.11,0.63,0.28
-0.16,0.61,0.29
-0.22,0.61,0.3
-0.25,0.64,0.33
-0.26,0.67,0.35
-0.26,0.69,0.36
-0.28,0.7,0.38
-0.33,0.69,0.4
-0.37,0.66,0.42
-0.4,0.64,0.43
-0.43,0.64,0.44
-0.45,0.65,0.45
-0.48,0.66,0.47
-0.51,0.68,0.51
-0.52,0.69,0.53
-0.52,0.69,0.54
-0.53,0.69,0.54
-0.55,0.68,0.54
-0.55,0.67,0.53
-0.56,0.66,0.54
-0.56,0.66,0.56
-0.56,0.66,0.57
-0.57,0.66,0.58
-0.58,0.67,0.58
-0.59,0.68,0.57
-0.59,0.69,0.57
-0.56,0.69,0.58
-0.55,0.7,0.58
-0.54,0.7,0.58
-0.52,0.7,0.59
-0.52,0.7,0.6
-0.53,0.7,0.59
-0.51,0.7,0.56
-0.5,0.7,0.56
-0.5,0.69,0.57
-0.5,0.69,0.59
-0.48,0.7,0.6
-0.45,0.71,0.6
-0.43,0.72,0.58
-0.42,0.72,0.57
-0.4,0.72,0.56
-0.39,0.72,0.55
-0.37,0.72,0.54
-0.34,0.72,0.53
-0.33,0.71,0.53
-0.31,0.69,0.52
-0.29,0.69,0.51
-0.27,0.69,0.49
-0.23,0.7,0.48
-0.2,0.71,0.45
-0.17,0.71,0.42
-0.15,0.68,0.38
-0.11,0.66,0.37
-0.08,0.63,0.36
-0.06,0.63,0.34
-0.02,0.65,0.32
0.02,0.66,0.29
0.05,0.65,0.26
0.07,0.63,0.24
0.08,0.61,0.22
0.08,0.57,0.2
0.08,0.55,0.19
0.09,0.54,0.17
0.12,0.54,0.15
0.15,0.55,0.12
0.17,0.55,0.1
0.19,0.55,0.07
0.21,0.54,0.04
0.23,0.52,0.01
0.24,0.48,-0.01
0.26,0.46,-0.03
0.28,0.45,-0.04
0.3,0.46,-0.05
0.35,0.47,-0.08
0.39,0.47,-0.11
0.39,0.44,-0.14
0.38,0.4,-0.17
0.39,0.38,-0.21
0.44,0.4,-0.23
0.46,0.38,-0.26
0.49,0.36,-0.28
0.54,0.32,-0.29
0.59,0.28,-0.3
0.64,0.27,-0.31
0.7,0.27,-0.33
0.72,0.25,-0.36
0.71,0.22,-0.39
0.7,0.17,-0.44
0.75,-0.01,-0.56
0.82,-0.02,-0.58
0.88,-0.04,-0.6
0.92,-0.07,-0.62
0.94,-0.08,-0.65
0.93,-0.1,-0.68
0.88,-0.13,-0.71
0.82,-0.16,-0.74
0.77,-0.17,-0.77
0.77,-0.17,-0.8
0.93,-0.22,-0.87
0.93,-0.22,-0.9
0.97,-0.3,-0.93
0.97,-0.33,-0.98
0.99,-0.33,-1
1.05,-0.28,-0.95
1.07,-0.32,-0.9
1.1,-0.36,-0.83
1.12,-0.4,-0.77
1.13,-0.45,-0.75
1.12,-0.5,-0.77
1.13,-0.5,-0.79
1.17,-0.48,-0.78
1.21,-0.48,-0.76
1.24,-0.49,-0.74
1.25,-0.5,-0.72
1.25,-0.53,-0.71
1.22,-0.55,-0.71
1.21,-0.55,-0.71
1.2,-0.53,-0.71
1.21,-0.52,-0.71
1.24,-0.52,-0.71
1.3,-0.52,-0.68
1.35,-0.5,-0.67
1.36,-0.47,-0.67
1.31,-0.45,-0.69
1.3,-0.46,-0.7
1.29,-0.47,-0.69
1.31,-0.48,-0.68
1.35,-0.49,-0.66
1.27,-0.53,-0.65
1.27,-0.53,-0.65
1.27,-0.52,-0.66
1.27,-0.51,-0.66
1.27,-0.5,-0.67
1.24,-0.5,-0.68
1.15,-0.51,-0.69
1.12,-0.51,-0.7
1.11,-0.51,-0.73
1.11,-0.52,-0.76
1.13,-0.53,-0.79
1.15,-0.53,-0.83
1.14,-0.52,-0.85
1.12,-0.49,-0.86
1.1,-0.47,-0.87
1.07,-0.46,-0.88
1.02,-0.44,-0.87
0.97,-0.42,-0.86
0.92,-0.39,-0.85
0.91,-0.36,-0.84
0.91,-0.3,-0.85
0.91,-0.25,-0.85
0.91,-0.21,-0.86
0.91,-0.17,-0.89
0.92,-0.16,-0.92
0.93,-0.15,-0.94
0.94,-0.14,-0.93
0.96,-0.11,-0.91
0.96,-0.09,-0.89
0.97,-0.08,-0.87
0.98,-0.07,-0.88
0.96,-0.07,-0.89
0.89,-0.09,-0.87
0.87,-0.1,-0.85
0.85,-0.07,-0.81
0.84,-0.03,-0.77
0.82,-0.02,-0.73
0.77,-0.02,-0.69
0.74,-0.03,-0.66
0.71,0,-0.62
0.68,0.08,-0.59
0.68,0.15,-0.56
0.67,0.19,-0.56
0.66,0.19,-0.54
0.65,0.16,-0.53
0.62,0.16,-0.49
0.6,0.22,-0.45
0.59,0.29,-0.42
0.58,0.33,-0.4
0.56,0.34,-0.37
0.54,0.33,-0.34
0.53,0.32,-0.31
0.53,0.35,-0.28
0.55,0.39,-0.27
0.57,0.42,-0.25
0.57,0.43,-0.22
0.56,0.43,-0.2
0.54,0.46,-0.14
0.24,0.65,0.12
0.18,0.62,0.15
0.15,0.61,0.16
0.14,0.61,0.15
0.15,0.64,0.16
0.02,0.58,0.25
-0.04,0.59,0.27
-0.12,0.6,0.3
-0.19,0.61,0.33
-0.21,0.61,0.35
-0.27,0.58,0.35
-0.31,0.57,0.37
-0.34,0.58,0.39
-0.38,0.6,0.41
-0.43,0.62,0.43
-0.49,0.63,0.45
-0.53,0.64,0.45
-0.53,0.67,0.47
-0.54,0.67,0.49
-0.55,0.66,0.5
-0.56,0.62,0.52
-0.57,0.59,0.53
-0.59,0.58,0.54
-0.62,0.61,0.56
-0.64,0.64,0.59
-0.65,0.65,0.63
-0.67,0.65,0.64
-0.68,0.63,0.65
-0.67,0.61,0.65
-0.67,0.58,0.65
-0.66,0.56,0.64
-0.66,0.57,0.64
-0.66,0.59,0.66
-0.65,0.61,0.68
-0.65,0.64,0.68
-0.65,0.66,0.67
-0.64,0.64,0.64
-0.61,0.63,0.63
-0.6,0.64,0.63
-0.58,0.66,0.62
-0.54,0.67,0.6
-0.5,0.69,0.57
-0.46,0.71,0.54
-0.43,0.71,0.52
-0.41,0.71,0.5
-0.38,0.71,0.49
-0.36,0.72,0.48
-0.34,0.73,0.46
-0.32,0.74,0.46
-0.3,0.75,0.46
-0.29,0.75,0.45
-0.26,0.75,0.44
-0.22,0.73,0.43
-0.21,0.72,0.43
-0.19,0.71,0.43
-0.17,0.69,0.43
-0.17,0.67,0.43
-0.18,0.67,0.44
-0.19,0.67,0.45
-0.18,0.66,0.45
-0.17,0.65,0.46
-0.16,0.64,0.46
-0.14,0.59,0.45
-0.07,0.59,0.44
-0.05,0.6,0.43
-0.04,0.61,0.42
-0.05,0.61,0.42
-0.03,0.61,0.41
0.02,0.59,0.38
0.05,0.57,0.36
0.07,0.54,0.35
0.07,0.52,0.33
0.09,0.5,0.29
0.13,0.52,0.25
0.19,0.53,0.2
0.22,0.52,0.16
0.24,0.49,0.12
0.25,0.45,0.09
0.27,0.41,0.07
0.31,0.38,0.04
0.34,0.38,0
0.37,0.4,-0.03
0.4,0.39,-0.06
0.41,0.35,-0.09
0.42,0.29,-0.13
0.45,0.24,-0.14
0.48,0.21,-0.17
0.49,0.22,-0.2
0.52,0.26,-0.29
0.62,0.25,-0.34
0.65,0.22,-0.39
0.68,0.17,-0.42
0.72,0.12,-0.42
0.74,0.08,-0.43
0.75,0.06,-0.44
0.75,0.04,-0.47
0.77,0.01,-0.53
0.79,-0.02,-0.6
0.8,-0.06,-0.65
0.85,-0.1,-0.69
0.91,-0.1,-0.73
0.95,-0.08,-0.76
0.95,-0.07,-0.77
0.95,-0.07,-0.79
0.93,-0.08,-0.84
0.88,-0.1,-0.9
0.86,-0.13,-0.95
0.87,-0.14,-0.99
0.88,-0.15,-1.01
0.89,-0.18,-1.02
0.92,-0.2,-1.03
0.94,-0.19,-1.04
0.92,-0.19,-1.04
0.9,-0.2,-1.05
0.9,-0.2,-1.09
0.95,-0.18,-1.08
0.98,-0.18,-1.06
1.01,-0.2,-1.04
1.03,-0.23,-1.02
1.04,-0.27,-0.99
1.04,-0.32,-0.98
1.04,-0.36,-0.96
1.05,-0.37,-0.95
1.09,-0.38,-0.93
1.12,-0.38,-0.91
1.11,-0.37,-0.88
1.11,-0.38,-0.87
1.14,-0.4,-0.83
1.19,-0.41,-0.77
1.2,-0.42,-0.74
1.19,-0.44,-0.72
1.15,-0.44,-0.71
1.11,-0.45,-0.7
1.08,-0.46,-0.68
1.11,-0.48,-0.62
1.17,-0.5,-0.55
1.2,-0.5,-0.51
1.2,-0.52,-0.48
1.18,-0.54,-0.47
1.14,-0.55,-0.47
1.08,-0.56,-0.45
0.99,-0.6,-0.43
1,-0.63,-0.38
1.03,-0.64,-0.33
1.03,-0.64,-0.3
1.01,-0.64,-0.3
0.97,-0.66,-0.31
0.92,-0.67,-0.33
0.87,-0.67,-0.32
0.82,-0.68,-0.3
0.82,-0.69,-0.26
0.85,-0.71,-0.2
0.88,-0.72,-0.14
0.87,-0.72,-0.1
0.85,-0.72,-0.07
0.83,-0.69,-0.06
0.82,-0.68,-0.06
0.84,-0.68,-0.05
0.89,-0.68,-0.03
0.98,-0.67,-0.04
1.11,-0.65,0
1.2,-0.65,0.08
1.22,-0.65,0.16
1.17,-0.64,0.18
1.08,-0.66,0.16
0.99,-0.7,0.1
0.88,-0.73,0.01
0.66,-0.75,0.04
0.6,-0.74,0.01
0.62,-0.76,0.03
0.63,-0.79,0.08
0.59,-0.77,0.13
0.57,-0.79,0.11
0.61,-0.8,0.06
0.56,-0.78,0.14
0.5,-0.8,0.21
0.47,-0.81,0.22
0.46,-0.81,0.26
